# Sensor position: Front pocket (trouser)
# Sensor side: Left
# Activity type: Movement
# Activity code: 9
# Subject id: s1621503
timestamp,seq,accel_x,accel_y,accel_z
1601820621595,0,0.0026855469,-0.9824829,-0.0022583008
1601820621673,1,-0.017578125,-1.1282349,-0.06329346
1601820621752,2,-0.05419922,-1.1790161,-0.10357666
1601820621831,3,0.14038086,-0.9378052,-0.038146973
1601820621910,4,0.037353516,-1.0112915,0.12860107
1601820621988,5,0.0703125,-1.1201782,-0.04449463
1601820622067,6,-0.007080078,-1.0198364,-0.093322754
1601820622146,7,0.080566406,-0.8948364,0.08856201
1601820622225,8,0.078125,-0.86968994,0.113464355
1601820622303,9,0.10522461,-0.8953247,0.18353271
1601820622382,10,0.10083008,-1.0151978,0.33392334
1601820622461,11,0.015380859,-0.9854126,0.338562
1601820622540,12,0.02758789,-0.8076782,0.19451904
1601820622618,13,0.08569336,-0.9414673,0.08050537
1601820622697,14,0.3779297,-1.3743286,0.12982178
1601820622776,15,0.2331543,-0.68927,0.12445068
1601820622855,16,-0.10986328,-1.1953735,-0.11505127
1601820622933,17,-0.047851562,-0.96417236,0.08074951
1601820623012,18,0.14257812,-1.0569458,-0.042785645
1601820623091,19,0.18945312,-0.88116455,-0.031555176
1601820623170,20,-0.07836914,-1.0200806,0.009460449
1601820623248,21,0.030029297,-0.9927368,-0.07672119
1601820623327,22,0.10620117,-0.9602661,-0.113586426
1601820623406,23,-0.10595703,-1.081604,-0.037902832
1601820623485,24,-0.080078125,-1.1599731,0.018737793
1601820623563,25,-0.0041503906,-1.2329712,-0.04107666
1601820623642,26,0.072265625,-0.833313,0.019470215
1601820623721,27,0.17797852,-1.1016235,0.1293335
1601820623800,28,0.010986328,-1.192688,-0.0791626
1601820623878,29,-0.05444336,-0.9480591,-7.9345703E-4
1601820623957,30,0.22290039,-0.7005005,0.097839355
1601820624036,31,0.08129883,-0.7324829,0.12347412
1601820624115,32,-0.048583984,-1.0662231,0.3534546
1601820624193,33,0.021728516,-1.0859985,0.44818115
1601820624272,34,0.2758789,-0.7346802,0.14202881
1601820624351,35,0.14379883,-1.58844,0.09539795
1601820624430,36,0.118652344,-0.6018677,0.07977295
1601820624508,37,0.012939453,-1.1560669,-0.34649658
1601820624587,38,0.15795898,-0.96881104,0.008728027
1601820624666,39,0.111572266,-0.93536377,0.0524292
1601820624745,40,0.037841797,-0.9717407,-0.03668213
1601820624823,41,0.057373047,-0.96173096,-0.04498291
1601820624902,42,0.076416016,-0.96051025,-0.02935791
1601820624981,43,-0.25585938,-1.1694946,0.054626465
1601820625060,44,-0.17333984,-1.3858032,0.11126709
1601820625138,45,0.07055664,-0.9199829,0.11639404
1601820625217,46,0.10620117,-0.8953247,0.034606934
1601820625296,47,-0.11621094,-1.3916626,-0.21295166
1601820625375,48,-0.2590332,-1.0193481,-0.073791504
1601820625453,49,0.19580078,-0.6658325,-0.055236816
1601820625532,50,0.22558594,-0.6482544,0.10760498
1601820625611,51,0.04736328,-1.1841431,0.38763428
1601820625690,52,0.016601562,-1.0689087,0.33563232
1601820625768,53,0.1616211,-1.3274536,-0.0635376
1601820625847,54,0.25048828,-0.73760986,0.036315918
1601820625926,55,0.080566406,-1.0293579,0.03338623
1601820626005,56,0.049804688,-1.085022,-0.23248291
1601820626083,57,0.14697266,-0.89801025,-0.011047363
1601820626162,58,0.109375,-0.96295166,0.011413574
1601820626241,59,-0.040039062,-1.0230103,0.09954834
1601820626320,60,0.072021484,-1.0195923,-0.02178955
1601820626398,61,-0.036376953,-1.0774536,-0.06036377
1601820626477,62,0.14428711,-1.2473755,-0.14263916
1601820626556,63,0.22192383,-0.9048462,-0.050842285
1601820626635,64,0.25854492,-0.9192505,-0.028381348
1601820626713,65,0.2770996,-0.93927,-0.0713501
1601820626792,66,0.3256836,-0.96759033,-0.022033691
1601820626871,67,0.38916016,-0.94000244,0.03704834
1601820626950,68,0.29101562,-0.9163208,-0.039123535
1601820627028,69,0.28295898,-0.9480591,0.007019043
1601820627107,70,0.4013672,-0.94781494,-0.015930176
1601820627186,71,0.48217773,-0.8792114,-0.0015258789
1601820627265,72,0.4243164,-0.88653564,-0.012268066
1601820627343,73,0.32983398,-0.9319458,0.031433105
1601820627422,74,0.41259766,-0.88946533,-0.07354736
1601820627501,75,0.5019531,-0.8418579,0.026306152
1601820627580,76,0.41870117,-0.89141846,-0.012268066
1601820627658,77,0.41870117,-0.91900635,-0.019836426
1601820627737,78,0.46264648,-0.8789673,-0.03302002
1601820627816,79,0.48950195,-0.86602783,-0.059631348
1601820627895,80,0.46826172,-0.86968994,-0.04107666
1601820627973,81,0.43066406,-0.8953247,-0.028381348
1601820628052,82,0.46142578,-0.8779907,-0.006164551
1601820628131,83,0.46411133,-0.86309814,-0.031555176
1601820628210,84,0.46264648,-0.8574829,-0.045715332
1601820628288,85,0.4951172,-0.8777466,-0.03692627
1601820628367,86,0.49536133,-0.8779907,-0.030822754
1601820628446,87,0.47680664,-0.8843384,-0.025939941
1601820628525,88,0.4560547,-0.8591919,-0.042053223
1601820628603,89,0.46801758,-0.8711548,-0.047912598
1601820628682,90,0.47143555,-0.87579346,-0.023986816
1601820628761,91,0.46044922,-0.88482666,-0.026428223
1601820628840,92,0.4638672,-0.8748169,-0.023254395
1601820628918,93,0.47924805,-0.8753052,-0.035705566
1601820628997,94,0.4736328,-0.86676025,-0.042297363
1601820629076,95,0.46728516,-0.8755493,-0.04107666
1601820629155,96,0.47509766,-0.8731079,-0.035461426
1601820629233,97,0.46533203,-0.8760376,-0.03668213
1601820629312,98,0.4753418,-0.87677,-0.04498291
1601820629391,99,0.47143555,-0.87457275,-0.038635254
1601820629470,100,0.4658203,-0.8796997,-0.039611816
1601820629548,101,0.46411133,-0.88067627,-0.040100098
1601820629627,102,0.4699707,-0.8726196,-0.042297363
1601820629706,103,0.46655273,-0.8765259,-0.03668213
1601820629785,104,0.47021484,-0.87091064,-0.038146973
1601820629863,105,0.47143555,-0.8550415,-0.04425049
1601820629942,106,0.45288086,-0.8550415,-0.038391113
1601820630021,107,0.40844727,-0.8508911,-0.042785645
1601820630100,108,0.3581543,-0.897522,-0.016418457
1601820630178,109,0.36376953,-0.9109497,0.032165527
1601820630257,110,0.33911133,-0.9807739,0.023132324
1601820630336,111,0.35595703,-0.9512329,-0.053771973
1601820630415,112,0.45751953,-0.92926025,-0.023986816
1601820630493,113,0.3618164,-0.9434204,0.028747559
1601820630572,114,0.2927246,-0.96710205,-0.04840088
1601820630651,115,0.24194336,-0.989563,0.031677246
1601820630730,116,0.2836914,-0.9612427,0.016540527
1601820630808,117,0.33618164,-1.0725708,0.028503418
1601820630887,118,0.21582031,-0.96759033,0.053649902
1601820630966,119,0.234375,-0.9385376,-0.08770752
1601820631045,120,0.10205078,-0.99786377,-0.093322754
1601820631123,121,-0.08984375,-1.0527954,-0.16705322
1601820631202,122,-0.033691406,-1.0513306,-0.08306885
1601820631281,123,0.07299805,-0.9507446,-0.08868408
1601820631360,124,-0.018066406,-1.0342407,-0.019592285
1601820631438,125,-0.12792969,-1.0215454,0.047546387
1601820631517,126,0.0087890625,-0.9768677,0.08856201
1601820631596,127,-0.0769043,-1.0012817,0.1437378
1601820631675,128,0.007080078,-1.0674438,0.086364746
1601820631753,129,-0.033203125,-1.2659302,-0.02178955
1601820631832,130,0.14453125,-0.87457275,-0.11212158
1601820631911,131,-0.17285156,-1.0088501,-0.23516846
1601820631990,132,-0.004638672,-0.9673462,-0.18560791
1601820632068,133,0.088134766,-1.041565,-0.17803955
1601820632147,134,0.046875,-0.96954346,-0.16265869
1601820632226,135,0.07714844,-1.1028442,-0.16558838
1601820632305,136,0.25219727,-1.0947876,0.17376709
1601820632383,137,0.24267578,-0.9758911,0.0914917
1601820632462,138,-0.042236328,-1.0332642,-0.039123535
1601820632541,139,0.107666016,-1.0127563,-0.028137207
1601820632620,140,0.2319336,-1.0049438,0.15032959
1601820632698,141,0.2685547,-0.9866333,-0.19537354
1601820632777,142,0.3972168,-1.1741333,0.1671753
1601820632856,143,0.15405273,-0.9483032,0.24285889
1601820632935,144,-0.16601562,-0.9573364,0.24578857
1601820633013,145,0.104003906,-0.6272583,0.24139404
1601820633092,146,0.17529297,-0.6560669,0.35150146
1601820633171,147,0.27124023,-0.81817627,0.47943115
1601820633250,148,0.16210938,-0.894104,0.4701538
1601820633328,149,0.4025879,-1.2617798,0.3908081
1601820633407,150,0.21948242,-1.0176392,0.24920654
1601820633486,151,0.21411133,-0.8377075,-0.24761963
1601820633565,152,0.04321289,-0.9949341,-0.15509033
1601820633643,153,0.0073242188,-0.98223877,-0.057922363
1601820633722,154,0.21679688,-1.0198364,0.038513184
1601820633801,155,-0.0034179688,-1.0186157,-0.08404541
1601820633880,156,0.029052734,-0.95025635,0.042175293
1601820633958,157,-0.08935547,-1.0213013,0.06463623
1601820634037,158,0.09765625,-1.2219849,0.21282959
1601820634116,159,0.15283203,-1.2869263,-0.1572876
1601820634195,160,0.44677734,-1.0964966,-0.007873535
1601820634273,161,-0.17773438,-0.9614868,-0.11016846
1601820634352,162,0.072021484,-0.8826294,-0.02960205
1601820634431,163,0.26635742,-0.45733643,0.18548584
1601820634510,164,0.05908203,-0.8809204,0.39300537
1601820634588,165,-0.12133789,-1.3059692,0.62908936
1601820634667,166,0.28710938,-0.661438,0.28533936
1601820634746,167,0.36865234,-1.531311,-0.07867432
1601820634825,168,0.24951172,-0.6170044,0.09832764
1601820634903,169,-0.07421875,-1.1082153,-0.18829346
1601820634982,170,0.06640625,-0.99835205,-0.059631348
1601820635061,171,0.07495117,-0.9378052,0.016784668
1601820635140,172,0.14501953,-0.9434204,0.1395874
1601820635218,173,0.09057617,-0.97662354,-0.0010375977
1601820635297,174,0.004638672,-1.0828247,-0.08282471
1601820635376,175,-0.10595703,-1.3528442,0.046813965
1601820635455,176,0.09350586,-1.1809692,0.14154053
1601820635533,177,0.22729492,-0.76690674,-0.051086426
1601820635612,178,0.14697266,-1.1231079,-0.04473877
1601820635691,179,-0.06982422,-0.91070557,-0.08843994
1601820635770,180,0.23364258,-0.7727661,0.08514404
1601820635848,181,0.15722656,-0.86968994,0.18914795
1601820635927,182,0.010986328,-1.0742798,0.50457764
1601820636006,183,-0.025878906,-0.79937744,0.34490967
1601820636085,184,0.024902344,-0.8074341,0.101257324
1601820636163,185,0.42871094,-1.6575317,0.10101318
1601820636242,186,0.4658203,-0.6826782,0.15032959
1601820636321,187,0.099121094,-0.9212036,-0.16168213
1601820636400,188,-0.03564453,-1.0679321,-0.32403564
1601820636478,189,0.026367188,-1.0391235,-0.042541504
1601820636557,190,0.16479492,-0.9158325,0.08416748
1601820636636,191,-0.05419922,-0.9729614,0.15667725
1601820636715,192,0.047851562,-0.9414673,0.031188965
1601820636810,193,-0.06201172,-1.05719,-0.028137207
1601820636906,194,-0.16577148,-1.2525024,0.043640137
1601820637001,195,-0.080078125,-1.3735962,0.2501831
1601820637097,196,0.32641602,-0.9417114,-0.22515869
1601820637193,197,0.13085938,-1.0403442,0.06585693
1601820637288,198,-0.22485352,-0.98394775,-0.17071533
1601820637384,199,0.22314453,-0.5623169,0.0680542
1601820637480,200,-0.026855469,-0.85479736,0.22454834
1601820637575,201,-0.11621094,-1.112854,0.39642334
1601820637671,202,0.14086914,-1.5081177,-0.062805176
1601820637767,203,0.040283203,-0.6321411,-0.21466064
1601820637862,204,0.39892578,-1.0969849,0.066589355
1601820637958,205,0.068115234,-0.9717407,-0.014953613
1601820638054,206,-0.12890625,-1.1296997,0.09710693
1601820638149,207,-0.041015625,-0.960022,0.2086792
1601820638245,208,-0.0021972656,-0.9932251,0.260437
1601820638341,209,-0.010253906,-0.94073486,0.23675537
1601820638436,210,-0.0031738281,-0.9932251,0.20819092
1601820638532,211,0.19506836,-0.90631104,0.34320068
1601820638628,212,0.061279297,-0.9221802,0.35516357
1601820638723,213,0.1171875,-0.87701416,0.3961792
1601820638819,214,0.13598633,-0.85772705,0.43377686
1601820638915,215,0.060791016,-0.8670044,0.46990967
1601820639010,216,0.0715332,-0.86138916,0.41278076
1601820639106,217,0.17016602,-0.8447876,0.47283936
1601820639202,218,0.05029297,-0.84747314,0.5018921
1601820639297,219,2.4414062E-4,-0.8430786,0.47406006
1601820639393,220,0.13720703,-0.8579712,0.4611206
1601820639489,221,0.06567383,-0.8735962,0.45477295
1601820639584,222,0.09277344,-0.8779907,0.46844482
1601820639680,223,0.107666016,-0.87213135,0.48406982
1601820639776,224,0.115234375,-0.9026489,0.47113037
1601820639854,225,0.107177734,-0.88897705,0.43988037
1601820639933,226,0.072753906,-0.86383057,0.3751831
1601820640012,227,0.016845703,-0.92022705,0.3444214
1601820640091,228,0.004638672,-0.9434204,0.3571167
1601820640169,229,0.028320312,-0.95806885,0.29388428
1601820640248,230,0.072021484,-0.9483032,0.20306396
1601820640327,231,0.013671875,-0.972229,0.0770874
1601820640406,232,-0.022705078,-1.0635376,-0.07501221
1601820640484,233,0.09472656,-1.0276489,-6.1035156E-5
1601820640563,234,0.020751953,-1.0274048,0.008728027
1601820640642,235,0.046142578,-0.9990845,0.04437256
1601820640721,236,0.061767578,-0.94073486,-0.03375244
1601820640799,237,0.12719727,-0.9614868,-0.08331299
1601820640878,238,0.008300781,-1.1011353,0.04046631
1601820640957,239,0.02709961,-1.0620728,0.101745605
1601820641036,240,0.31323242,-0.9976196,-0.1326294
1601820641114,241,0.21582031,-0.9639282,-0.10015869
1601820641193,242,0.088134766,-1.0342407,0.23065186
1601820641272,243,0.044433594,-0.9439087,-0.13238525
1601820641351,244,0.21459961,-0.9404907,0.11029053
1601820641429,245,0.1171875,-0.9639282,0.24212646
1601820641508,246,-0.03955078,-1.0747681,-0.039123535
1601820641587,247,0.087646484,-1.0147095,0.08123779
1601820641666,248,0.20361328,-0.9390259,-0.019348145
1601820641744,249,0.12133789,-1.0078735,-0.0256958
1601820641823,250,0.033935547,-1.0020142,-0.047668457
1601820641902,251,0.1640625,-1.0767212,-0.050354004
1601820641981,252,0.17895508,-0.9805298,0.020202637
1601820642059,253,0.04345703,-1.0203247,-0.093811035
1601820642138,254,0.06665039,-1.0261841,-0.14459229
1601820642217,255,0.0871582,-1.0271606,-0.058410645
1601820642296,256,0.068847656,-0.9981079,0.082458496
1601820642374,257,0.04296875,-1.000061,-0.054748535
1601820642453,258,-0.013183594,-1.0010376,-0.11993408
1601820642532,259,0.024902344,-0.9841919,-0.13165283
1601820642611,260,0.08666992,-1.0252075,-0.06866455
1601820642689,261,0.099609375,-1.0545044,0.04559326
1601820642768,262,0.022216797,-1.0059204,0.031433105
1601820642847,263,0.017333984,-1.0198364,-0.105285645
1601820642926,264,0.044433594,-1.0088501,-0.13800049
1601820643004,265,0.018798828,-1.0217896,-0.051574707
1601820643083,266,0.061279297,-1.0098267,-0.0044555664
1601820643162,267,0.053222656,-1.0083618,-0.02935791
1601820643241,268,0.02709961,-1.0117798,-0.07598877
1601820643319,269,0.03173828,-1.0112915,-0.078186035
1601820643398,270,0.03857422,-1.0117798,-0.047424316
1601820643477,271,0.052734375,-1.0137329,-0.027160645
1601820643556,272,0.04321289,-1.0098267,-0.051818848
1601820643634,273,0.040527344,-1.0095825,-0.077697754
1601820643713,274,0.045166016,-1.0134888,-0.07281494
1601820643792,275,0.052978516,-1.0125122,-0.046447754
1601820643871,276,0.05810547,-1.0130005,-0.040100098
1601820643949,277,0.05493164,-1.0134888,-0.06011963
1601820644028,278,0.052734375,-1.0090942,-0.06329346
1601820644107,279,0.059326172,-1.0112915,-0.050354004
1601820644186,280,0.05834961,-1.0122681,-0.050354004
1601820644264,281,0.060546875,-1.0120239,-0.059143066
1601820644343,282,0.057617188,-1.0112915,-0.062072754
1601820644422,283,0.061767578,-1.010315,-0.06011963
1601820644501,284,0.06518555,-1.0098267,-0.054992676
1601820644579,285,0.064941406,-1.008606,-0.05645752
1601820644658,286,0.06591797,-1.0125122,-0.058410645
1601820644737,287,0.06347656,-1.0117798,-0.057678223
1601820644816,288,0.072265625,-1.0120239,-0.054992676
1601820644894,289,0.08300781,-1.0188599,-0.059143066
1601820644973,290,0.079589844,-1.0234985,-0.057922363
1601820645052,291,0.115234375,-1.0215454,-0.06524658
1601820645131,292,0.1730957,-0.99053955,-0.07110596
1601820645209,293,0.10131836,-0.89385986,0.028503418
1601820645288,294,-0.049072266,-1.085022,-0.10650635
1601820645367,295,0.1352539,-0.99346924,0.070495605
1601820645446,296,0.07421875,-0.9885864,0.0079956055
1601820645524,297,-7.324219E-4,-1.0422974,-0.020812988
1601820645603,298,0.12060547,-1.0003052,0.046325684
1601820645682,299,-0.008056641,-1.0195923,0.0770874
1601820645761,300,0.044433594,-1.0222778,0.077819824
1601820645839,301,0.08544922,-1.0083618,0.019714355
1601820645918,302,0.16210938,-0.987854,0.059020996
1601820645997,303,0.061035156,-1.00177,0.027526855
1601820646076,304,0.009765625,-1.0193481,-0.0064086914
1601820646154,305,0.024902344,-0.9541626,-0.005432129
1601820646233,306,0.07543945,-0.94854736,0.11981201
1601820646312,307,0.0925293,-1.0982056,0.31365967
1601820646391,308,0.1303711,-1.1060181,0.43621826
1601820646469,309,0.006591797,-1.0281372,0.571228
1601820646548,310,-0.06542969,-0.6824341,0.14349365
1601820646627,311,0.11694336,-0.7510376,0.22625732
1601820646706,312,0.17456055,-0.7271118,0.11004639
1601820646784,313,0.01171875,-1.2808228,0.42156982
1601820646863,314,-0.04321289,-1.0474243,0.2538452
1601820646942,315,-0.006591797,-0.99884033,0.1798706
1601820647021,316,-0.13500977,-1.0320435,0.10003662
1601820647099,317,0.12573242,-0.97979736,0.1473999
1601820647178,318,0.02758789,-0.9824829,0.13812256
1601820647257,319,-0.048095703,-1.0098267,0.117126465
1601820647336,320,0.009277344,-0.95098877,0.20135498
1601820647414,321,0.06958008,-0.8574829,0.27044678
1601820647493,322,0.05419922,-0.90802,0.3834839
1601820647572,323,0.22680664,-0.6157837,0.5307007
1601820647651,324,0.24560547,-0.6194458,0.6156616
1601820647729,325,0.09057617,-0.6104126,0.68133545
1601820647808,326,0.3022461,-0.46148682,0.74676514
1601820647887,327,0.32348633,-0.53131104,0.7472534
1601820647966,328,0.31469727,-0.40924072,0.7855835
1601820648044,329,0.29614258,-0.15509033,0.8768921
1601820648123,330,0.28149414,0.0680542,0.9098511
1601820648202,331,0.17260742,0.26116943,1.1744995
1601820648281,332,0.095703125,0.26898193,1.0795288
1601820648359,333,-0.036376953,0.2987671,0.8200073
1601820648438,334,-0.0012207031,0.19573975,0.8895874
1601820648517,335,0.06640625,0.2177124,0.9503784
1601820648596,336,-0.031982422,0.29632568,0.89959717
1601820648674,337,-0.033447266,0.21063232,0.91156006
1601820648753,338,0.011474609,0.19281006,0.93426514
1601820648832,339,0.03540039,0.20892334,0.8932495
1601820648911,340,0.032470703,0.20281982,0.9628296
1601820648989,341,0.011230469,0.168396,0.9052124
1601820649068,342,0.057373047,0.13226318,0.9303589
1601820649147,343,0.08496094,0.14447021,0.92401123
1601820649226,344,0.07006836,0.13690186,0.9191284
1601820649304,345,0.07763672,0.137146,0.92059326
1601820649383,346,0.06958008,0.15814209,0.92767334
1601820649462,347,0.06567383,0.15130615,0.9227905
1601820649541,348,0.06933594,0.15618896,0.9266968
1601820649619,349,0.056640625,0.16888428,0.92059326
1601820649698,350,0.061523438,0.16546631,0.92474365
1601820649777,351,0.04248047,0.15985107,0.916687
1601820649856,352,0.028808594,0.15814209,0.9196167
1601820649934,353,0.033203125,0.1720581,0.92767334
1601820650013,354,0.013671875,0.17669678,0.91864014
1601820650092,355,0.021972656,0.15740967,0.92718506
1601820650171,356,0.040771484,0.17352295,0.930603
1601820650249,357,0.016601562,0.12591553,0.9298706
1601820650328,358,0.040527344,0.20233154,0.916687
1601820650407,359,0.028564453,0.17791748,0.9176636
1601820650486,360,0.016845703,0.14105225,0.9286499
1601820650564,361,0.0014648438,0.18792725,0.9310913
1601820650643,362,0.040283203,0.22161865,0.9118042
1601820650722,363,0.01953125,0.17449951,0.92962646
1601820650801,364,0.013671875,0.14642334,0.92059326
1601820650879,365,-0.016113281,0.11444092,0.9664917
1601820650958,366,-0.055419922,0.18621826,0.91082764
1601820651037,367,0.0107421875,0.14715576,0.9515991
1601820651116,368,0.0048828125,0.13372803,0.90179443
1601820651194,369,-0.029052734,0.10247803,0.9347534
1601820651273,370,-0.021484375,0.09588623,0.9442749
1601820651352,371,-0.026367188,0.09954834,0.92230225
1601820651431,372,-0.006591797,0.09637451,0.92352295
1601820651509,373,-0.022460938,0.14324951,0.93304443
1601820651588,374,-0.064453125,0.18035889,0.9533081
1601820651667,375,0.045654297,0.16644287,0.88934326
1601820651746,376,-0.071777344,0.1696167,0.9606323
1601820651824,377,-0.13427734,0.21453857,0.86468506
1601820651903,378,-0.0847168,0.2736206,0.965271
1601820651982,379,-0.034179688,0.21429443,0.8864136
1601820652061,380,0.018798828,0.22650146,0.90301514
1601820652139,381,-0.02319336,0.2880249,0.90130615
1601820652218,382,-7.324219E-4,0.27874756,0.9003296
1601820652297,383,-0.024658203,0.3139038,0.8920288
