# Sensor position: Front pocket (trouser)
# Sensor side: Left
# Activity type: Movement
# Activity code: 9
# Subject id: s1642301
timestamp,seq,accel_x,accel_y,accel_z
1602329019381,0,-0.14404297,-0.95025635,0.30340576
1602329016406,1,-0.14404297,-0.95025635,0.30340576
1602329019381,2,-0.10864258,-0.84381104,0.33465576
1602329019381,3,-0.10864258,-0.84381104,0.33465576
1602329019381,4,-0.12866211,-0.79644775,0.3776245
1602329019381,5,-0.12866211,-0.79644775,0.3776245
1602329019381,6,-0.15966797,-0.86676025,0.44476318
1602329019381,7,-0.15966797,-0.86676025,0.44476318
1602329019381,8,-0.16723633,-1.0632935,0.50213623
1602329019381,9,0.040771484,-1.241272,0.1762085
1602329019381,10,-0.16723633,-1.0632935,0.50213623
1602329019381,11,-0.11669922,-0.81036377,-0.11016846
1602329019381,12,0.040771484,-1.241272,0.1762085
1602329019381,13,-0.07739258,-1.0952759,-0.105285645
1602329019381,14,-0.11669922,-0.81036377,-0.11016846
1602329019381,15,-0.07739258,-1.0952759,-0.105285645
1602329019381,16,-0.14770508,-1.0071411,-0.12774658
1602329019381,17,-0.14770508,-1.0071411,-0.12774658
1602329019381,18,-0.22485352,-1.003479,-0.11260986
1602329019381,19,-0.22485352,-1.003479,-0.11260986
1602329019381,20,-0.26391602,-0.9807739,-0.057678223
1602329019381,21,-0.26391602,-0.9807739,-0.057678223
1602329019381,22,-0.35253906,-0.98150635,-0.058654785
1602329019381,23,-0.24169922,-0.9807739,-0.085510254
1602329019381,24,-0.35253906,-0.98150635,-0.058654785
1602329019381,25,-0.14282227,-1.1294556,-0.13018799
1602329019381,26,-0.24169922,-0.9807739,-0.085510254
1602329019381,27,-0.056884766,-1.1340942,0.039733887
1602329019381,28,-0.26831055,-0.99786377,0.17401123
1602329019381,29,-0.14282227,-1.1294556,-0.13018799
1602329019381,30,-0.30566406,-0.91778564,0.30633545
1602329019381,31,-0.2553711,-0.72906494,0.34246826
1602329019381,32,-0.056884766,-1.1340942,0.039733887
1602329019382,33,-0.34179688,-0.8208618,0.33831787
1602329019382,34,-0.359375,-0.93170166,0.4076538
1602329019382,35,-0.26831055,-0.99786377,0.17401123
1602329019382,36,-0.14746094,-1.024231,0.47479248
1602329019382,37,-0.30566406,-0.91778564,0.30633545
1602329019382,38,-0.029785156,-1.0686646,0.14202881
1602329019382,39,-0.2553711,-0.72906494,0.34246826
1602329019382,40,-0.060302734,-0.9463501,0.024353027
1602329019382,41,-0.34179688,-0.8208618,0.33831787
1602329019382,42,-0.04663086,-1.0862427,-0.12237549
1602329019382,43,-0.359375,-0.93170166,0.4076538
1602329019382,44,-0.16064453,-1.0361938,-0.10406494
1602329019382,45,-0.14746094,-1.024231,0.47479248
1602329019382,46,-0.22680664,-1.0059204,-0.09112549
1602329019382,47,-0.029785156,-1.0686646,0.14202881
1602329019382,48,-0.29907227,-0.95269775,-0.026184082
1602329019382,49,-0.060302734,-0.9463501,0.024353027
1602329019382,50,-0.37060547,-0.93585205,-0.006164551
1602329019382,51,-0.04663086,-1.0862427,-0.12237549
1602329019382,52,-0.3166504,-1.005188,-0.02545166
1602329019382,53,-0.18701172,-1.0332642,0.01751709
1602329019382,54,-0.16064453,-1.0361938,-0.10406494
1602329019382,55,-0.22680664,-1.0059204,-0.09112549
1602329019382,56,-0.26049805,-1.12677,-0.069885254
1602329019382,57,-0.16479492,-1.1699829,-0.12799072
1602329019382,58,-0.29907227,-0.95269775,-0.026184082
1602329019382,59,-0.37060547,-0.93585205,-0.006164551
1602329019382,60,-0.3166504,-1.005188,-0.02545166
1602329019382,61,-0.18701172,-1.0332642,0.01751709
1602329019382,62,-0.26049805,-1.12677,-0.069885254
1602329019382,63,-0.16479492,-1.1699829,-0.12799072
1602329019382,64,0.047607422,-1.0261841,0.117614746
1602329021902,65,0.047607422,-1.0261841,0.117614746
1602329021882,66,-0.29785156,-1.0828247,0.19036865
1602329021892,67,-0.29785156,-1.0828247,0.19036865
1602329021872,68,-0.21240234,-0.9312134,0.36444092
1602329021861,69,-0.21240234,-0.9312134,0.36444092
1602329021841,70,-0.24658203,-0.64801025,0.38641357
1602329021851,71,-0.24658203,-0.64801025,0.38641357
1602329021831,72,-0.29345703,-0.5628052,0.37054443
1602329021820,73,-0.29345703,-0.5628052,0.37054443
1602329021810,74,-0.34887695,-0.9175415,0.4467163
1602329021800,75,-0.34887695,-0.9175415,0.4467163
1602329021789,76,-0.26586914,-1.0620728,0.47747803
1602329021779,77,-0.26586914,-1.0620728,0.47747803
1602329021769,78,-0.13134766,-1.237854,0.2970581
1602329021759,79,-0.13134766,-1.237854,0.2970581
1602329021748,80,-0.1159668,-0.8279419,-0.031555176
1602329021738,81,-0.1159668,-0.8279419,-0.031555176
1602329021728,82,-0.13427734,-1.0320435,-0.06890869
1602329021717,83,-0.13427734,-1.0320435,-0.06890869
1602329021707,84,-0.119140625,-1.0003052,-0.045959473
1602329021697,85,-0.119140625,-1.0003052,-0.045959473
1602329021687,86,-0.26416016,-0.95098877,-0.031066895
1602329021676,87,-0.26416016,-0.95098877,-0.031066895
1602329021666,88,-0.2626953,-0.93536377,0.04144287
1602329021656,89,-0.2626953,-0.93536377,0.04144287
1602329021645,90,-0.24316406,-0.9771118,-0.010803223
1602329021635,91,-0.24316406,-0.9771118,-0.010803223
1602329021625,92,-0.26953125,-1.1084595,-0.05645752
1602329021615,93,-0.29907227,-1.2266235,-0.109680176
1602329021604,94,-0.26953125,-1.1084595,-0.05645752
1602329021594,95,-0.008544922,-0.99786377,0.105163574
1602329021584,96,-0.29907227,-1.2266235,-0.109680176
1602329021573,97,-0.24291992,-1.1057739,0.15179443
1602329021563,98,-0.008544922,-0.99786377,0.105163574
1602329021553,99,-0.16088867,-0.9534302,0.26019287
1602329021543,100,-0.24291992,-1.1057739,0.15179443
1602329021532,101,-0.16699219,-0.7144165,0.29364014
1602329021522,102,-0.16088867,-0.9534302,0.26019287
1602329021512,103,-0.26123047,-0.7251587,0.30438232
1602329021502,104,-0.16699219,-0.7144165,0.29364014
1602329021491,105,-0.3371582,-1.038147,0.42279053
1602329021481,106,-0.26123047,-0.7251587,0.30438232
1602329021471,107,-0.25195312,-1.3721313,0.34783936
1602329021460,108,-0.3371582,-1.038147,0.42279053
1602329021450,109,-0.0847168,-0.77667236,-0.05279541
1602329021440,110,-0.25195312,-1.3721313,0.34783936
1602329021430,111,-0.11987305,-1.0293579,-0.08111572
1602329021409,112,-0.18896484,-1.0046997,-0.05255127
1602329021399,113,-0.2541504,-0.9463501,-0.039123535
1602329021409,114,-0.0847168,-0.77667236,-0.05279541
1602329021388,115,-0.2211914,-0.9612427,-0.00982666
1602329021378,116,-0.11987305,-1.0293579,-0.08111572
1602329021368,117,-0.20214844,-0.9849243,-0.04864502
1602329021358,118,-0.18896484,-1.0046997,-0.05255127
1602329021347,119,-0.22509766,-1.0317993,-0.09185791
1602329021337,120,-0.2541504,-0.9463501,-0.039123535
1602329021327,121,-0.22045898,-1.2236938,-0.14605713
1602329021316,122,0.017089844,-1.0276489,-0.017150879
1602329021306,123,-0.2211914,-0.9612427,-0.00982666
1602329021286,124,-0.20214844,-0.9849243,-0.04864502
1602329021275,125,-0.22509766,-1.0317993,-0.09185791
1602329021265,126,-0.22045898,-1.2236938,-0.14605713
1602329021255,127,0.017089844,-1.0276489,-0.017150879
1602329024093,128,0.03173828,-1.0278931,0.066833496
1602329021573,129,0.03173828,-1.0278931,0.066833496
1602329024094,130,-0.19335938,-1.1062622,0.1749878
1602329024096,131,-0.19335938,-1.1062622,0.1749878
1602329024098,132,-0.19677734,-0.85357666,0.29437256
1602329024100,133,-0.19677734,-0.85357666,0.29437256
1602329024102,134,-0.23803711,-0.78985596,0.30584717
1602329024104,135,-0.23803711,-0.78985596,0.30584717
1602329024106,136,-0.3322754,-0.8735962,0.34832764
1602329024108,137,-0.3322754,-0.8735962,0.34832764
1602329024110,138,-0.2998047,-1.0322876,0.4159546
1602329024112,139,-0.2998047,-1.0322876,0.4159546
1602329024114,140,-0.027832031,-1.085022,0.15545654
1602329024118,141,-0.018310547,-1.0183716,0.043640137
1602329024118,142,-0.027832031,-1.085022,0.15545654
1602329024120,143,-0.19262695,-1.05719,-0.032287598
1602329024122,144,-0.018310547,-1.0183716,0.043640137
1602329024126,145,-0.19262695,-1.05719,-0.032287598
1602329024126,146,-0.1381836,-1.0090942,-0.034240723
1602329024128,147,-0.1381836,-1.0090942,-0.034240723
1602329024130,148,-0.16845703,-1.0654907,-0.11627197
1602329024132,149,-0.16845703,-1.0654907,-0.11627197
1602329024134,150,-0.2890625,-1.0081177,-0.07867432
1602329024136,151,-0.2890625,-1.0081177,-0.07867432
1602329024138,152,-0.37817383,-0.98394775,-0.05645752
1602329024140,153,-0.37817383,-0.98394775,-0.05645752
1602329024142,154,-0.33666992,-0.9690552,-0.026916504
1602329024144,155,-0.33666992,-0.9690552,-0.026916504
1602329024146,156,-0.27246094,-1.0132446,0.028259277
1602329024148,157,-0.27246094,-1.0132446,0.028259277
1602329024150,158,-0.21801758,-0.98883057,0.1642456
1602329024152,159,-0.21801758,-0.98883057,0.1642456
1602329024154,160,-0.3083496,-0.97369385,0.322937
1602329024156,161,-0.3083496,-0.97369385,0.322937
1602329024157,162,-0.32104492,-0.9072876,0.35028076
1602329024159,163,-0.32104492,-0.9072876,0.35028076
1602329024161,164,-0.22021484,-0.8706665,0.35125732
1602329024163,165,-0.22021484,-0.8706665,0.35125732
1602329024165,166,-0.19116211,-0.88653564,0.4130249
1602329024167,167,-0.19116211,-0.88653564,0.4130249
1602329024169,168,-0.25561523,-0.8245239,0.43426514
1602329024171,169,-0.25561523,-0.8245239,0.43426514
1602329024173,170,-0.20214844,-1.0930786,0.3258667
1602329024175,171,-0.20214844,-1.0930786,0.3258667
1602329024177,172,-0.12597656,-0.99005127,0.04827881
1602329024179,173,-0.12597656,-0.99005127,0.04827881
1602329024181,174,-0.19946289,-0.9849243,-0.09185791
1602329024183,175,-0.19946289,-0.9849243,-0.09185791
1602329024185,176,-0.30908203,-1.008606,-0.058654785
1602329024187,177,-0.30908203,-1.008606,-0.058654785
1602329024191,178,-0.2487793,-0.9939575,-0.0010375977
1602329024191,179,-0.2487793,-0.9939575,-0.0010375977
1602329024193,180,-0.25561523,-0.9717407,0.039489746
1602329024195,181,-0.25561523,-0.9717407,0.039489746
1602329024197,182,-0.27075195,-0.95880127,0.0289917
1602329024199,183,-0.27075195,-0.95880127,0.0289917
1602329024201,184,-0.22290039,-1.0100708,-0.06524658
1602329024203,185,-0.22290039,-1.0100708,-0.06524658
1602329024205,186,-0.29101562,-1.1533813,-0.09820557
1602329024207,187,-0.29101562,-1.1533813,-0.09820557
1602329024209,188,-0.16137695,-1.1868286,-0.11431885
1602329024211,189,-0.16137695,-1.1868286,-0.11431885
1602329024213,190,0.0871582,-0.94854736,0.09613037
1602329024215,191,0.0871582,-0.94854736,0.09613037
1602329024156,192,-0.049560547,-1.0813599,0.12762451
1602329026676,193,-0.049560547,-1.0813599,0.12762451
1602329026680,194,-0.2397461,-1.0003052,0.23846436
1602329026678,195,-0.2397461,-1.0003052,0.23846436
1602329026682,196,-0.1899414,-0.8706665,0.35028076
1602329026684,197,-0.1899414,-0.8706665,0.35028076
1602329026688,198,-0.22827148,-0.76348877,0.34173584
1602329026688,199,-0.22827148,-0.76348877,0.34173584
1602329026690,200,-0.31933594,-0.7905884,0.3607788
1602329026694,201,-0.328125,-0.93707275,0.4389038
1602329026692,202,-0.31933594,-0.7905884,0.3607788
1602329026698,203,-0.328125,-0.93707275,0.4389038
1602329026696,204,-0.20922852,-1.1140747,0.4315796
1602329026702,205,0.09741211,-1.1380005,0.035339355
1602329026702,206,-0.20922852,-1.1140747,0.4315796
1602329026706,207,0.09741211,-1.1380005,0.035339355
1602329026706,208,-0.099609375,-0.9170532,-0.089904785
1602329026708,209,-0.099609375,-0.9170532,-0.089904785
1602329026710,210,-0.06982422,-1.0232544,-0.105285645
1602329026712,211,-0.06982422,-1.0232544,-0.105285645
1602329026714,212,-0.20239258,-0.9871216,-0.1296997
1602329026716,213,-0.20239258,-0.9871216,-0.1296997
1602329026718,214,-0.3034668,-0.9546509,-0.042541504
1602329026722,215,-0.34301758,-0.94781494,-0.016662598
1602329026720,216,-0.3034668,-0.9546509,-0.042541504
1602329026726,217,-0.34301758,-0.94781494,-0.016662598
1602329026724,218,-0.28125,-1.024231,-0.049865723
1602329026728,219,-0.28125,-1.024231,-0.049865723
1602329026730,220,-0.22973633,-1.0842896,0.0060424805
1602329026732,221,-0.22973633,-1.0842896,0.0060424805
1602329026734,222,-0.23168945,-1.236145,-0.18487549
1602329026736,223,-0.23168945,-1.236145,-0.18487549
1602329026740,224,0.0546875,-1.003479,0.024841309
1602329026738,225,0.0546875,-1.003479,0.024841309
1602329026742,226,-0.21582031,-1.078186,0.14886475
1602329026746,227,-0.19384766,-0.9319458,0.27703857
1602329026744,228,-0.21582031,-1.078186,0.14886475
1602329026748,229,-0.2175293,-0.7827759,0.3222046
1602329026752,230,-0.26293945,-0.69854736,0.30804443
1602329026752,231,-0.19384766,-0.9319458,0.27703857
1602329026754,232,-0.32958984,-0.9319458,0.42059326
1602329026756,233,-0.2175293,-0.7827759,0.3222046
1602329026758,234,-0.38964844,-1.0010376,0.49700928
1602329026762,235,-0.26293945,-0.69854736,0.30804443
1602329026762,236,-0.03515625,-1.2463989,0.20941162
1602329026766,237,-0.32958984,-0.9319458,0.42059326
1602329026766,238,-0.19506836,-0.831604,-0.06109619
1602329026768,239,-0.38964844,-1.0010376,0.49700928
1602329026770,240,-0.087646484,-1.0383911,-0.07598877
1602329026772,241,-0.03515625,-1.2463989,0.20941162
1602329026774,242,-0.14257812,-0.9871216,-0.04083252
1602329026776,243,-0.19506836,-0.831604,-0.06109619
1602329026778,244,-0.26586914,-0.9338989,-0.0068969727
1602329026782,245,-0.26171875,-0.954895,1.8310547E-4
1602329026782,246,-0.087646484,-1.0383911,-0.07598877
1602329026786,247,-0.14257812,-0.9871216,-0.04083252
1602329026786,248,-0.23901367,-0.9819946,-0.061828613
1602329026790,249,-0.25756836,-1.0325317,-0.05328369
1602329026790,250,-0.26586914,-0.9338989,-0.0068969727
1602329026792,251,-0.27075195,-1.1712036,-0.08721924
1602329026794,252,-0.26171875,-0.954895,1.8310547E-4
1602329026798,253,-0.23901367,-0.9819946,-0.061828613
1602329026800,254,-0.25756836,-1.0325317,-0.05328369
1602329026802,255,-0.27075195,-1.1712036,-0.08721924
1602329026740,256,0.072509766,-1.2061157,-0.038635254
1602329029260,257,0.072509766,-1.2061157,-0.038635254
1602329029256,258,0.0107421875,-0.97613525,0.12567139
1602329029252,259,0.0107421875,-0.97613525,0.12567139
1602329029248,260,-0.17993164,-1.0569458,0.16326904
1602329029244,261,-0.17993164,-1.0569458,0.16326904
1602329029235,262,-0.18310547,-0.91119385,0.2736206
1602329029239,263,-0.18310547,-0.91119385,0.2736206
1602329029227,264,-0.2578125,-0.8699341,0.32635498
1602329029231,265,-0.2578125,-0.8699341,0.32635498
1602329029223,266,-0.24414062,-0.8098755,0.33392334
1602329029218,267,-0.24414062,-0.8098755,0.33392334
1602329029214,268,-0.20166016,-0.87091064,0.34979248
1602329029210,269,-0.20166016,-0.87091064,0.34979248
1602329029206,270,-0.265625,-0.9246216,0.42767334
1602329029201,271,-0.265625,-0.9246216,0.42767334
1602329029197,272,-0.16601562,-1.1074829,0.5621948
1602329029193,273,-0.16601562,-1.1074829,0.5621948
1602329029189,274,0.030029297,-1.0298462,0.28289795
1602329029180,275,-0.1862793,-0.9302368,0.050720215
1602329029185,276,0.030029297,-1.0298462,0.28289795
1602329029172,277,-0.1862793,-0.9302368,0.050720215
1602329029172,278,-0.026611328,-1.0232544,-0.0022583008
1602329029163,279,-0.15185547,-1.0076294,-0.053527832
1602329029168,280,-0.026611328,-1.0232544,-0.0022583008
1602329029159,281,-0.27294922,-1.0110474,-0.0881958
1602329029155,282,-0.15185547,-1.0076294,-0.053527832
1602329029151,283,-0.33447266,-0.9841919,-0.049621582
1602329029147,284,-0.27294922,-1.0110474,-0.0881958
1602329029142,285,-0.3671875,-1.0015259,-0.07330322
1602329029138,286,-0.33447266,-0.9841919,-0.049621582
1602329029134,287,-0.3088379,-1.0420532,-0.05596924
1602329029130,288,-0.3671875,-1.0015259,-0.07330322
1602329029125,289,-0.24291992,-1.0125122,-0.021057129
1602329029121,290,-0.3088379,-1.0420532,-0.05596924
1602329029117,291,-0.29858398,-0.95318604,-0.007873535
1602329029109,292,-0.2680664,-0.96539307,-0.040100098
1602329029109,293,-0.24291992,-1.0125122,-0.021057129
1602329029100,294,-0.088378906,-1.1055298,-0.08135986
1602329029096,295,0.017333984,-1.0352173,0.109558105
1602329029100,296,-0.29858398,-0.95318604,-0.007873535
1602329029092,297,-0.32617188,-1.0540161,0.17425537
1602329029083,298,-0.3154297,-0.9678345,0.26654053
1602329029083,299,-0.2680664,-0.96539307,-0.040100098
1602329029079,300,-0.35839844,-0.8010864,0.30560303
1602329029071,301,-0.4387207,-0.7678833,0.3336792
1602329029075,302,-0.088378906,-1.1055298,-0.08135986
1602329029066,303,-0.35327148,-0.86138916,0.40203857
1602329029062,304,0.017333984,-1.0352173,0.109558105
1602329029058,305,-0.21362305,-0.9121704,0.51727295
1602329029054,306,-0.32617188,-1.0540161,0.17425537
1602329029050,307,-0.10546875,-0.92315674,0.52948
1602329029045,308,-0.3154297,-0.9678345,0.26654053
1602329029041,309,-0.007080078,-1.2109985,0.2506714
1602329029037,310,-0.35839844,-0.8010864,0.30560303
1602329029033,311,-0.12011719,-0.8237915,0.028259277
1602329029028,312,-0.4387207,-0.7678833,0.3336792
1602329029024,313,-0.15600586,-1.0618286,-0.07720947
1602329029020,314,-0.35327148,-0.86138916,0.40203857
1602329029012,315,-0.21362305,-0.9121704,0.51727295
1602329029007,316,-0.10546875,-0.92315674,0.52948
1602329029003,317,-0.007080078,-1.2109985,0.2506714
1602329028999,318,-0.12011719,-0.8237915,0.028259277
1602329028995,319,-0.15600586,-1.0618286,-0.07720947
1602329029125,320,-0.1262207,-1.0046997,-0.04083252
1602329031645,321,-0.1262207,-1.0046997,-0.04083252
1602329031646,322,-0.1977539,-1.0335083,-0.085998535
1602329031648,323,-0.1977539,-1.0335083,-0.085998535
1602329031650,324,-0.32495117,-0.9636841,-0.0025024414
1602329031652,325,-0.32495117,-0.9636841,-0.0025024414
1602329031654,326,-0.3251953,-0.94537354,0.03289795
1602329031656,327,-0.3251953,-0.94537354,0.03289795
1602329031658,328,-0.29882812,-0.9656372,0.00579834
1602329031660,329,-0.29882812,-0.9656372,0.00579834
1602329031662,330,-0.20117188,-1.0322876,-0.027648926
1602329031664,331,-0.20117188,-1.0322876,-0.027648926
1602329031666,332,-0.25610352,-1.147522,-0.04815674
1602329031668,333,-0.26220703,-1.1704712,-0.09869385
1602329031670,334,-0.25610352,-1.147522,-0.04815674
1602329031672,335,0.043701172,-0.928772,0.06488037
1602329031674,336,-0.26220703,-1.1704712,-0.09869385
1602329031678,337,0.043701172,-0.928772,0.06488037
1602329031678,338,-0.24511719,-1.0823364,0.12689209
1602329031682,339,-0.20800781,-0.9937134,0.21844482
1602329031680,340,-0.24511719,-1.0823364,0.12689209
1602329031684,341,-0.24243164,-0.83721924,0.2682495
1602329031686,342,-0.20800781,-0.9937134,0.21844482
1602329031690,343,-0.24243164,-0.83721924,0.2682495
1602329031688,344,-0.27001953,-0.78082275,0.28411865
1602329031694,345,-0.32885742,-0.84503174,0.35321045
1602329031692,346,-0.27001953,-0.78082275,0.28411865
1602329031696,347,-0.32885742,-0.84503174,0.35321045
1602329031698,348,-0.3383789,-0.93829346,0.40374756
1602329031700,349,-0.3383789,-0.93829346,0.40374756
1602329031702,350,-0.43115234,-0.9260864,0.3678589
1602329031704,351,-0.43115234,-0.9260864,0.3678589
1602329031708,352,-0.1472168,-1.3403931,0.17767334
1602329031706,353,-0.1472168,-1.3403931,0.17767334
1602329031709,354,-0.1694336,-0.72540283,-0.009338379
1602329031713,355,-0.19116211,-1.0430298,-0.05987549
1602329031713,356,-0.1694336,-0.72540283,-0.009338379
1602329031715,357,-0.16967773,-0.99957275,-0.0335083
1602329031717,358,-0.19116211,-1.0430298,-0.05987549
1602329031719,359,-0.16357422,-0.97320557,-0.078186035
1602329031723,360,-0.17822266,-0.9624634,-0.028625488
1602329031721,361,-0.16967773,-0.99957275,-0.0335083
1602329031727,362,-0.15942383,-1.010315,-0.058898926
1602329031727,363,-0.16357422,-0.97320557,-0.078186035
1602329031729,364,-0.26416016,-1.071106,-0.040100098
1602329031731,365,-0.17822266,-0.9624634,-0.028625488
1602329031733,366,-0.34960938,-1.2017212,-0.09063721
1602329031737,367,-0.1015625,-1.0127563,-0.034240723
1602329031737,368,-0.15942383,-1.010315,-0.058898926
1602329031739,369,-0.051757812,-0.96343994,0.06732178
1602329031741,370,-0.26416016,-1.071106,-0.040100098
1602329031743,371,-0.18676758,-1.1265259,0.11175537
1602329031745,372,-0.34960938,-1.2017212,-0.09063721
1602329031749,373,-0.1015625,-1.0127563,-0.034240723
1602329031749,374,-0.17553711,-0.9529419,0.23895264
1602329031751,375,-0.051757812,-0.96343994,0.06732178
1602329031753,376,-0.1940918,-0.8689575,0.24578857
1602329031755,377,-0.18676758,-1.1265259,0.11175537
1602329031759,378,-0.17553711,-0.9529419,0.23895264
1602329031757,379,-0.20458984,-0.81622314,0.27923584
1602329031761,380,-0.1940918,-0.8689575,0.24578857
1602329031763,381,-0.23925781,-0.9324341,0.38079834
1602329031765,382,-0.20458984,-0.81622314,0.27923584
1602329031769,383,-0.23925781,-0.9324341,0.38079834
1602329031708,384,-0.26220703,-0.9104614,0.41912842
1602329031786,385,-0.25927734,-0.9043579,0.4989624
1602329034228,386,-0.26220703,-0.9104614,0.41912842
1602329034230,387,-0.1184082,-1.2354126,0.3463745
1602329034232,388,-0.25927734,-0.9043579,0.4989624
1602329034234,389,-0.18603516,-0.8567505,0.109802246
1602329034236,390,-0.1184082,-1.2354126,0.3463745
1602329034238,391,-0.18603516,-0.8567505,0.109802246
1602329034240,392,-0.20581055,-0.9446411,-0.06915283
1602329034242,393,-0.20581055,-0.9446411,-0.06915283
1602329034244,394,-0.11669922,-1.0098267,-0.02178955
1602329034246,395,-0.11669922,-1.0098267,-0.02178955
1602329034248,396,-0.20288086,-1.0427856,-0.04449463
1602329034251,397,-0.20288086,-1.0427856,-0.04449463
1602329034253,398,-0.2290039,-0.9639282,0.025817871
1602329034257,399,-0.2290039,-0.9639282,0.025817871
1602329034257,400,-0.17407227,-0.9866333,0.038269043
1602329034261,401,-0.21826172,-0.99346924,-0.03375244
1602329034261,402,-0.17407227,-0.9866333,0.038269043
1602329034263,403,-0.14501953,-0.991272,-0.018371582
1602329034265,404,-0.21826172,-0.99346924,-0.03375244
1602329034267,405,-0.31225586,-1.1594849,-0.09918213
1602329034269,406,-0.14501953,-0.991272,-0.018371582
1602329034271,407,-0.21459961,-1.1638794,-0.027404785
1602329034274,408,-0.31225586,-1.1594849,-0.09918213
1602329034276,409,-0.107666016,-0.95269775,0.04144287
1602329034280,410,-0.21459961,-1.1638794,-0.027404785
1602329034278,411,-0.22241211,-1.029602,0.06829834
1602329034284,412,-0.22875977,-0.9932251,0.14178467
1602329034284,413,-0.107666016,-0.95269775,0.04144287
1602329034288,414,-0.22241211,-1.029602,0.06829834
1602329034286,415,-0.22705078,-0.9492798,0.1515503
1602329034292,416,-0.24316406,-0.9746704,0.15838623
1602329034292,417,-0.22875977,-0.9932251,0.14178467
1602329034297,418,-0.24511719,-0.9656372,0.19256592
1602329034297,419,-0.22705078,-0.9492798,0.1515503
1602329034299,420,-0.22460938,-0.91973877,0.15692139
1602329034301,421,-0.24316406,-0.9746704,0.15838623
1602329034303,422,-0.16455078,-0.99664307,0.1149292
1602329034307,423,-0.05053711,-1.130188,0.03753662
1602329034307,424,-0.24511719,-0.9656372,0.19256592
1602329034311,425,-0.12231445,-1.0320435,0.0602417
1602329034313,426,-0.4104004,-0.90948486,-0.0154418945
1602329034311,427,-0.22460938,-0.91973877,0.15692139
1602329034315,428,-0.3244629,-1.045227,-0.026672363
1602329034318,429,-0.16455078,-0.99664307,0.1149292
1602329034320,430,-0.19433594,-1.0115356,-0.02960205
1602329034322,431,-0.05053711,-1.130188,0.03753662
1602329034324,432,-0.19628906,-1.017395,-0.04083252
1602329034326,433,-0.12231445,-1.0320435,0.0602417
1602329034330,434,-0.4104004,-0.90948486,-0.0154418945
1602329034328,435,-0.25927734,-1.0078735,-0.043518066
1602329034334,436,-0.26660156,-1.024231,-0.06329346
1602329034332,437,-0.3244629,-1.045227,-0.026672363
1602329034336,438,-0.20825195,-1.0044556,-0.055725098
1602329034338,439,-0.19433594,-1.0115356,-0.02960205
1602329034343,440,-0.2397461,-0.98760986,-0.0413208
1602329034343,441,-0.19628906,-1.017395,-0.04083252
1602329034347,442,-0.25927734,-1.0078735,-0.043518066
1602329034345,443,-0.2277832,-0.99884033,-0.078186035
1602329034349,444,-0.26660156,-1.024231,-0.06329346
1602329034353,445,-0.20825195,-1.0044556,-0.055725098
1602329034355,446,-0.2397461,-0.98760986,-0.0413208
1602329034357,447,-0.2277832,-0.99884033,-0.078186035
1602329036815,448,-0.13623047,-1.0093384,-0.031555176
1602329034295,449,-0.13623047,-1.0093384,-0.031555176
1602329036816,450,-0.12670898,-1.1511841,0.039489746
1602329036818,451,-0.12670898,-1.1511841,0.039489746
1602329036820,452,-0.080566406,-1.0269165,0.14593506
1602329036822,453,-0.080566406,-1.0269165,0.14593506
1602329036824,454,-0.07128906,-1.0357056,0.23968506
1602329036826,455,-0.07128906,-1.0357056,0.23968506
1602329036828,456,-0.20141602,-1.005188,0.26678467
1602329036830,457,-0.20141602,-1.005188,0.26678467
1602329036832,458,-0.20458984,-0.909729,0.29388428
1602329036834,459,-0.20458984,-0.909729,0.29388428
1602329036835,460,-0.25097656,-0.8599243,0.293396
1602329036837,461,-0.25097656,-0.8599243,0.293396
1602329036839,462,-0.26538086,-0.78009033,0.3085327
1602329036841,463,-0.26538086,-0.78009033,0.3085327
1602329036843,464,-0.30151367,-0.86676025,0.38372803
1602329036845,465,-0.30151367,-0.86676025,0.38372803
1602329036847,466,-0.38793945,-0.93585205,0.40911865
1602329036849,467,-0.38793945,-0.93585205,0.40911865
1602329036851,468,-0.34814453,-1.0569458,0.36688232
1602329036853,469,-0.34814453,-1.0569458,0.36688232
1602329036855,470,-0.052246094,-1.1323853,0.20404053
1602329036856,471,-0.052246094,-1.1323853,0.20404053
1602329036858,472,-0.20043945,-0.84576416,-0.0037231445
1602329036860,473,-0.20043945,-0.84576416,-0.0037231445
1602329036862,474,-0.18359375,-1.0122681,-0.038635254
1602329036864,475,-0.18359375,-1.0122681,-0.038635254
1602329036866,476,-0.16210938,-0.98809814,-0.059631348
1602329036870,477,-0.21484375,-0.9883423,-0.031555176
1602329036870,478,-0.16210938,-0.98809814,-0.059631348
1602329036872,479,-0.20507812,-0.9595337,0.011413574
1602329036874,480,-0.21484375,-0.9883423,-0.031555176
1602329036876,481,-0.22558594,-0.97857666,-0.023498535
1602329036877,482,-0.20507812,-0.9595337,0.011413574
1602329036879,483,-0.22558594,-0.97857666,-0.023498535
1602329036881,484,-0.27001953,-1.020813,-0.05303955
1602329036885,485,-0.27905273,-1.1624146,-0.08648682
1602329036883,486,-0.27001953,-1.020813,-0.05303955
1602329036887,487,-0.18725586,-1.1575317,-0.12750244
1602329036889,488,-0.27905273,-1.1624146,-0.08648682
1602329036891,489,0.07421875,-0.940979,0.030456543
1602329036893,490,-0.18725586,-1.1575317,-0.12750244
1602329036895,491,-0.13232422,-1.1235962,0.11907959
1602329036896,492,0.07421875,-0.940979,0.030456543
1602329036898,493,-0.203125,-1.029602,0.22406006
1602329036902,494,-0.13232422,-1.1235962,0.11907959
1602329036902,495,-0.18847656,-0.81256104,0.2904663
1602329036906,496,-0.203125,-1.029602,0.22406006
1602329036906,497,-0.24047852,-0.741272,0.29510498
1602329036908,498,-0.18847656,-0.81256104,0.2904663
1602329036910,499,-0.37329102,-0.90045166,0.38519287
1602329036912,500,-0.24047852,-0.741272,0.29510498
1602329036914,501,-0.31835938,-0.89385986,0.5145874
1602329036916,502,-0.37329102,-0.90045166,0.38519287
1602329036919,503,-0.31835938,-0.89385986,0.5145874
1602329036917,504,-0.14697266,-1.2786255,0.27703857
1602329036921,505,-0.14697266,-1.2786255,0.27703857
1602329036923,506,-0.10473633,-0.8701782,-0.010314941
1602329036925,507,-0.10473633,-0.8701782,-0.010314941
1602329036927,508,-0.107421875,-1.0132446,-0.07745361
1602329036929,509,-0.107421875,-1.0132446,-0.07745361
1602329036931,510,-0.107910156,-1.0239868,-0.06524658
1602329036933,511,-0.107910156,-1.0239868,-0.06524658
1602329036876,512,-0.2758789,-0.9644165,-0.043518066
1602329039396,513,-0.2758789,-0.9644165,-0.043518066
1602329039404,514,-0.2783203,-0.94854736,0.022888184
1602329039412,515,-0.2783203,-0.94854736,0.022888184
1602329039420,516,-0.26416016,-0.9627075,0.011169434
1602329039428,517,-0.26416016,-0.9627075,0.011169434
1602329039436,518,-0.21972656,-0.97613525,-0.062561035
1602329039444,519,-0.21972656,-0.97613525,-0.062561035
1602329039453,520,-0.24121094,-1.0913696,-0.05230713
1602329039461,521,-0.24121094,-1.0913696,-0.05230713
1602329039469,522,-0.31689453,-1.1780396,-0.1350708
1602329039477,523,-0.31689453,-1.1780396,-0.1350708
1602329039485,524,-0.021240234,-1.0689087,0.05267334
1602329039493,525,-0.021240234,-1.0689087,0.05267334
1602329039502,526,-0.14013672,-1.0339966,0.13421631
1602329039510,527,-0.14013672,-1.0339966,0.13421631
1602329039518,528,-0.16894531,-1.0371704,0.18377686
1602329039526,529,-0.16894531,-1.0371704,0.18377686
1602329039534,530,-0.16064453,-0.8850708,0.2819214
1602329039542,531,-0.16064453,-0.8850708,0.2819214
1602329039550,532,-0.1796875,-0.76641846,0.24847412
1602329039559,533,-0.1796875,-0.76641846,0.24847412
1602329039567,534,-0.21826172,-0.79522705,0.32025146
1602329039575,535,-0.21826172,-0.79522705,0.32025146
1602329039583,536,-0.39526367,-0.93585205,0.37200928
1602329039591,537,-0.39526367,-0.93585205,0.37200928
1602329039599,538,-0.4567871,-0.9612427,0.5270386
1602329039608,539,0.060546875,-1.3474731,0.2177124
1602329039616,540,-0.4567871,-0.9612427,0.5270386
1602329039624,541,-0.076416016,-0.7930298,-0.074279785
1602329039632,542,0.060546875,-1.3474731,0.2177124
1602329039640,543,-0.11035156,-1.0877075,-0.07232666
1602329039648,544,-0.076416016,-0.7930298,-0.074279785
1602329039657,545,-0.12158203,-0.989563,-0.05230713
1602329039665,546,-0.11035156,-1.0877075,-0.07232666
1602329039673,547,-0.18188477,-0.99224854,-0.046936035
1602329039681,548,-0.12158203,-0.989563,-0.05230713
1602329039689,549,-0.22509766,-0.9783325,-0.050598145
1602329039697,550,-0.18188477,-0.99224854,-0.046936035
1602329039714,551,-0.22509766,-0.9783325,-0.050598145
1602329039714,552,-0.2866211,-0.9963989,-0.06500244
1602329039730,553,-0.2866211,-0.9963989,-0.06500244
1602329039730,554,-0.21777344,-1.0186157,-0.08843994
1602329039738,555,-0.21777344,-1.0186157,-0.08843994
1602329039746,556,-0.23461914,-1.0076294,-0.08526611
1602329039754,557,-0.23461914,-1.0076294,-0.08526611
1602329039771,558,-0.24707031,-1.1226196,-0.17144775
1602329039763,559,-0.24707031,-1.1226196,-0.17144775
1602329039779,560,-0.091552734,-1.1004028,-0.09942627
1602329039787,561,-0.091552734,-1.1004028,-0.09942627
1602329039795,562,0.03100586,-0.98101807,0.06903076
1602329039803,563,0.03100586,-0.98101807,0.06903076
1602329039811,564,-0.12109375,-1.0752563,0.11077881
1602329039820,565,-0.12109375,-1.0752563,0.11077881
1602329039828,566,-0.25463867,-0.93170166,0.23162842
1602329039836,567,-0.25463867,-0.93170166,0.23162842
1602329039844,568,-0.3088379,-0.82696533,0.30023193
1602329039852,569,-0.3088379,-0.82696533,0.30023193
1602329039869,570,-0.31396484,-0.7835083,0.34173584
1602329039877,571,-0.38842773,-0.90704346,0.40057373
1602329039860,572,-0.31396484,-0.7835083,0.34173584
1602329039885,573,-0.3161621,-0.9429321,0.50115967
1602329039901,574,-0.38842773,-0.90704346,0.40057373
1602329039909,575,-0.3161621,-0.9429321,0.50115967
1602329042177,576,0.08569336,-1.232727,0.3595581
1602329042177,577,0.08569336,-1.232727,0.3595581
1602329042180,578,-0.10107422,-0.83184814,0.012145996
1602329042178,579,-0.10107422,-0.83184814,0.012145996
1602329042182,580,-0.15283203,-1.0623169,0.020202637
1602329042184,581,-0.15283203,-1.0623169,0.020202637
1602329042186,582,-0.14233398,-1.0142212,-0.03643799
1602329042188,583,-0.14233398,-1.0142212,-0.03643799
1602329042190,584,-0.19433594,-1.0239868,-0.08404541
1602329042194,585,-0.22973633,-0.9898071,-0.03741455
1602329042192,586,-0.19433594,-1.0239868,-0.08404541
1602329042196,587,-0.26708984,-0.9866333,-0.01763916
1602329042198,588,-0.22973633,-0.9898071,-0.03741455
1602329042200,589,-0.2927246,-0.97125244,-0.02130127
1602329042202,590,-0.26708984,-0.9866333,-0.01763916
1602329042204,591,-0.24584961,-0.9924927,-0.059143066
1602329042206,592,-0.2927246,-0.97125244,-0.02130127
1602329042208,593,-0.24584961,-0.9924927,-0.059143066
1602329042210,594,-0.25146484,-1.0049438,-0.055236816
1602329042212,595,-0.25146484,-1.0049438,-0.055236816
1602329042214,596,-0.24414062,-1.1148071,-0.09893799
1602329042216,597,-0.24414062,-1.1148071,-0.09893799
1602329042218,598,-0.11791992,-1.1135864,-0.029846191
1602329042220,599,-0.11791992,-1.1135864,-0.029846191
1602329042222,600,0.0087890625,-0.9949341,0.13201904
1602329042224,601,-0.26245117,-1.1035767,0.16766357
1602329042226,602,0.0087890625,-0.9949341,0.13201904
1602329042228,603,-0.32861328,-0.8584595,0.33026123
1602329042230,604,-0.26245117,-1.1035767,0.16766357
1602329042232,605,-0.34399414,-0.72198486,0.385437
1602329042234,606,-0.32861328,-0.8584595,0.33026123
1602329042236,607,-0.35375977,-0.7485962,0.3925171
1602329042240,608,-0.22851562,-0.9133911,0.5360718
1602329042240,609,-0.34399414,-0.72198486,0.385437
1602329042243,610,-0.35375977,-0.7485962,0.3925171
1602329042241,611,-0.18164062,-0.97125244,0.5302124
1602329042245,612,-0.22851562,-0.9133911,0.5360718
1602329042247,613,-0.055908203,-1.1658325,0.2987671
1602329042249,614,-0.18164062,-0.97125244,0.5302124
1602329042251,615,-0.18017578,-0.86724854,0.038513184
1602329042253,616,-0.055908203,-1.1658325,0.2987671
1602329042255,617,-0.13647461,-1.0137329,-0.059143066
1602329042257,618,-0.18017578,-0.86724854,0.038513184
1602329042259,619,-0.122558594,-1.0049438,-0.050598145
1602329042261,620,-0.13647461,-1.0137329,-0.059143066
1602329042263,621,-0.24487305,-1.0186157,-0.08306885
1602329042265,622,-0.122558594,-1.0049438,-0.050598145
1602329042267,623,-0.2548828,-0.9602661,-0.0064086914
1602329042269,624,-0.24487305,-1.0186157,-0.08306885
1602329042271,625,-0.24194336,-0.96588135,0.0028686523
1602329042273,626,-0.2548828,-0.9602661,-0.0064086914
1602329042275,627,-0.28173828,-0.9771118,-0.026184082
1602329042277,628,-0.24194336,-0.96588135,0.0028686523
1602329042279,629,-0.21704102,-1.0332642,-0.027404785
1602329042281,630,-0.28173828,-0.9771118,-0.026184082
1602329042283,631,-0.32373047,-1.187561,-0.06939697
1602329042285,632,-0.21704102,-1.0332642,-0.027404785
1602329042287,633,-0.16821289,-1.1279907,-0.0037231445
1602329042289,634,-0.32373047,-1.187561,-0.06939697
1602329042291,635,0.0087890625,-0.9751587,0.09832764
1602329042293,636,-0.16821289,-1.1279907,-0.0037231445
1602329042297,637,0.0087890625,-0.9751587,0.09832764
1602329042295,638,-0.25585938,-1.0859985,0.13665771
1602329042301,639,-0.25585938,-1.0859985,0.13665771
1602329042240,640,-0.16088867,-0.89068604,0.24578857
1602329044760,641,-0.16088867,-0.89068604,0.24578857
1602329044762,642,-0.26953125,-0.8069458,0.27069092
1602329044764,643,-0.26953125,-0.8069458,0.27069092
1602329044768,644,-0.29077148,-0.80133057,0.31195068
1602329044768,645,-0.29077148,-0.80133057,0.31195068
1602329044770,646,-0.32080078,-0.9102173,0.43988037
1602329044772,647,-0.32080078,-0.9102173,0.43988037
1602329044774,648,-0.3334961,-0.9343872,0.4100952
1602329044776,649,-0.3334961,-0.9343872,0.4100952
1602329044780,650,-0.15063477,-1.2842407,0.17474365
1602329044780,651,-0.15063477,-1.2842407,0.17474365
1602329044784,652,-0.11279297,-0.819397,0.0036010742
1602329044784,653,-0.11279297,-0.819397,0.0036010742
1602329044786,654,-0.1977539,-1.005188,-0.03692627
1602329044788,655,-0.1977539,-1.005188,-0.03692627
1602329044790,656,-0.2163086,-1.0012817,-0.06085205
1602329044792,657,-0.2163086,-1.0012817,-0.06085205
1602329044794,658,-0.21508789,-0.9771118,-0.051330566
1602329044796,659,-0.21508789,-0.9771118,-0.051330566
1602329044798,660,-0.2331543,-0.9607544,0.004333496
1602329044802,661,-0.24169922,-0.9812622,-0.0051879883
1602329044800,662,-0.2331543,-0.9607544,0.004333496
1602329044804,663,-0.2175293,-1.0149536,-0.05255127
1602329044808,664,-0.31079102,-1.1321411,-0.074523926
1602329044806,665,-0.24169922,-0.9812622,-0.0051879883
1602329044810,666,-0.2163086,-1.2141724,-0.0803833
1602329044812,667,-0.2175293,-1.0149536,-0.05255127
1602329044814,668,0.013183594,-0.94537354,0.05999756
1602329044816,669,-0.31079102,-1.1321411,-0.074523926
1602329044818,670,-0.21264648,-1.0708618,0.08538818
1602329044820,671,-0.2163086,-1.2141724,-0.0803833
1602329044822,672,-0.15112305,-0.93951416,0.19696045
1602329044825,673,0.013183594,-0.94537354,0.05999756
1602329044827,674,-0.17773438,-0.9273071,0.2682495
1602329044829,675,-0.21264648,-1.0708618,0.08538818
1602329044831,676,-0.19921875,-0.8875122,0.28118896
1602329044833,677,-0.15112305,-0.93951416,0.19696045
1602329044835,678,-0.2355957,-0.84088135,0.3060913
1602329044837,679,-0.17773438,-0.9273071,0.2682495
1602329044839,680,-0.28100586,-0.92926025,0.35125732
1602329044841,681,-0.19921875,-0.8875122,0.28118896
1602329044843,682,-0.3564453,-0.9011841,0.39422607
1602329044845,683,-0.2355957,-0.84088135,0.3060913
1602329044847,684,-0.27783203,-1.1206665,0.44036865
1602329044849,685,-0.28100586,-0.92926025,0.35125732
1602329044851,686,-0.106933594,-1.0193481,0.29974365
1602329044853,687,-0.3564453,-0.9011841,0.39422607
1602329044855,688,-0.20727539,-0.87335205,0.10809326
1602329044857,689,-0.27783203,-1.1206665,0.44036865
1602329044859,690,-0.056640625,-1.0335083,0.021911621
1602329044861,691,-0.106933594,-1.0193481,0.29974365
1602329044863,692,-0.024169922,-0.98565674,-0.04425049
1602329044865,693,-0.20727539,-0.87335205,0.10809326
1602329044867,694,-0.12841797,-1.0847778,-0.10064697
1602329044869,695,-0.056640625,-1.0335083,0.021911621
1602329044871,696,-0.21362305,-1.0098267,-0.031066895
1602329044873,697,-0.024169922,-0.98565674,-0.04425049
1602329044875,698,-0.20288086,-1.0081177,-0.038391113
1602329044877,699,-0.12841797,-1.0847778,-0.10064697
1602329044879,700,-0.27783203,-0.99224854,-0.07867432
1602329044881,701,-0.21362305,-1.0098267,-0.031066895
1602329044885,702,-0.20288086,-1.0081177,-0.038391113
1602329044887,703,-0.27783203,-0.99224854,-0.07867432
1602329047345,704,-0.32641602,-1.0090942,-0.1104126
1602329044825,705,-0.32641602,-1.0090942,-0.1104126
1602329047341,706,-0.28027344,-1.0071411,-0.09649658
1602329047337,707,-0.28027344,-1.0071411,-0.09649658
1602329047333,708,-0.18164062,-1.0298462,-0.08526611
1602329047329,709,-0.18164062,-1.0298462,-0.08526611
1602329047325,710,-0.1159668,-1.0794067,-0.09185791
1602329047320,711,-0.1159668,-1.0794067,-0.09185791
1602329047316,712,-0.010253906,-1.0474243,-0.03741455
1602329047312,713,-0.048095703,-1.0232544,0.014831543
1602329047308,714,-0.010253906,-1.0474243,-0.03741455
1602329047304,715,-0.1730957,-1.0195923,0.09124756
1602329047299,716,-0.048095703,-1.0232544,0.014831543
1602329047295,717,-0.32714844,-0.9619751,0.26605225
1602329047291,718,-0.1730957,-1.0195923,0.09124756
1602329047287,719,-0.35839844,-0.8533325,0.3493042
1602329047283,720,-0.32714844,-0.9619751,0.26605225
1602329047278,721,-0.265625,-0.8242798,0.44500732
1602329047274,722,-0.35839844,-0.8533325,0.3493042
1602329047270,723,-0.2199707,-0.8731079,0.4730835
1602329047266,724,-0.265625,-0.8242798,0.44500732
1602329047262,725,-0.15429688,-1.0747681,0.35662842
1602329047258,726,-0.2199707,-0.8731079,0.4730835
1602329047253,727,0.0061035156,-0.96051025,0.13983154
1602329047245,728,-0.15429688,-1.0747681,0.35662842
1602329047245,729,-0.07470703,-0.99664307,-0.03692627
1602329047241,730,-0.16577148,-1.0479126,-0.12384033
1602329047237,731,0.0061035156,-0.96051025,0.13983154
1602329047232,732,-0.24047852,-1.0044556,-0.089904785
1602329047228,733,-0.07470703,-0.99664307,-0.03692627
1602329047224,734,-0.29174805,-1.0042114,-0.028625488
1602329047220,735,-0.29296875,-0.98321533,0.015808105
1602329047216,736,-0.16577148,-1.0479126,-0.12384033
1602329047211,737,-0.27270508,-1.00177,-0.0017700195
1602329047207,738,-0.24047852,-1.0044556,-0.089904785
1602329047203,739,-0.3076172,-0.9776001,0.01727295
1602329047195,740,-0.28857422,-0.9780884,-0.00982666
1602329047199,741,-0.29174805,-1.0042114,-0.028625488
1602329047191,742,-0.3010254,-1.0071411,-0.06329346
1602329047186,743,-0.29296875,-0.98321533,0.015808105
1602329047182,744,-0.28125,-1.1834106,-0.05987549
1602329047174,745,-0.08227539,-1.1001587,-0.038879395
1602329047178,746,-0.27270508,-1.00177,-0.0017700195
1602329047170,747,-0.3076172,-0.9776001,0.01727295
1602329047165,748,0.052734375,-0.9668579,0.0758667
1602329047161,749,-0.28857422,-0.9780884,-0.00982666
1602329047157,750,-0.10058594,-1.0650024,0.14910889
1602329047149,751,-0.3010254,-1.0071411,-0.06329346
1602329047149,752,-0.39526367,-1.0403442,0.29559326
1602329047144,753,-0.28125,-1.1834106,-0.05987549
1602329047140,754,-0.19238281,-0.70928955,0.33392334
1602329047136,755,-0.08227539,-1.1001587,-0.038879395
1602329047132,756,-0.40551758,-0.7337036,0.30438232
1602329047128,757,0.052734375,-0.9668579,0.0758667
1602329047124,758,-0.38793945,-0.847229,0.40350342
1602329047119,759,-0.10058594,-1.0650024,0.14910889
1602329047115,760,-0.34838867,-0.95269775,0.4911499
1602329047111,761,-0.39526367,-1.0403442,0.29559326
1602329047107,762,-0.08911133,-1.1824341,0.49627686
1602329047103,763,-0.19238281,-0.70928955,0.33392334
1602329047094,764,-0.40551758,-0.7337036,0.30438232
1602329047090,765,-0.38793945,-0.847229,0.40350342
1602329047086,766,-0.34838867,-0.95269775,0.4911499
1602329047082,767,-0.08911133,-1.1824341,0.49627686
1602329047211,768,-0.036865234,-0.98931885,0.23016357
1602329049731,769,-0.036865234,-0.98931885,0.23016357
1602329049734,770,-0.16821289,-0.9043579,0.031188965
1602329049732,771,-0.16821289,-0.9043579,0.031188965
1602329049736,772,-0.09301758,-0.9727173,0.0048217773
1602329049738,773,-0.09301758,-0.9727173,0.0048217773
1602329049740,774,-0.19824219,-1.0025024,-0.04522705
1602329049742,775,-0.29418945,-1.0195923,-0.0068969727
1602329049744,776,-0.19824219,-1.0025024,-0.04522705
1602329049746,777,-0.30908203,-0.9312134,0.04901123
1602329049748,778,-0.29418945,-1.0195923,-0.0068969727
1602329049750,779,-0.27929688,-0.9595337,0.010437012
1602329049752,780,-0.30908203,-0.9312134,0.04901123
1602329049754,781,-0.27929688,-0.9595337,0.010437012
1602329049756,782,-0.2265625,-1.0220337,-0.024963379
1602329049758,783,-0.2265625,-1.0220337,-0.024963379
1602329049760,784,-0.26708984,-1.0874634,-0.013244629
1602329049762,785,-0.2824707,-1.1941528,-0.074279785
1602329049764,786,-0.26708984,-1.0874634,-0.013244629
1602329049766,787,0.022705078,-0.9961548,0.042419434
1602329049768,788,-0.2824707,-1.1941528,-0.074279785
1602329049770,789,-0.07714844,-1.039856,0.09686279
1602329049772,790,0.022705078,-0.9961548,0.042419434
1602329049774,791,-0.23486328,-1.0828247,0.20281982
1602329049776,792,-0.07714844,-1.039856,0.09686279
1602329049778,793,-0.2397461,-0.89263916,0.28607178
1602329049780,794,-0.23486328,-1.0828247,0.20281982
1602329049782,795,-0.27392578,-0.75177,0.29412842
1602329049786,796,-0.2397461,-0.89263916,0.28607178
1602329049786,797,-0.31860352,-0.74542236,0.31707764
1602329049790,798,-0.27392578,-0.75177,0.29412842
1602329049790,799,-0.4243164,-0.9668579,0.3925171
1602329049794,800,-0.31860352,-0.74542236,0.31707764
1602329049794,801,-0.38183594,-1.0154419,0.5084839
1602329049797,802,-0.06567383,-1.1082153,0.230896
1602329049797,803,-0.4243164,-0.9668579,0.3925171
1602329049799,804,-0.17919922,-0.9146118,-0.0068969727
1602329049801,805,-0.38183594,-1.0154419,0.5084839
1602329049803,806,-0.080322266,-1.0037231,-0.105285645
1602329049805,807,-0.06567383,-1.1082153,0.230896
1602329049807,808,-0.1394043,-1.0159302,-0.06011963
1602329049809,809,-0.17919922,-0.9146118,-0.0068969727
1602329049811,810,-0.2446289,-0.9663696,-0.011291504
1602329049813,811,-0.080322266,-1.0037231,-0.105285645
1602329049815,812,-0.22753906,-0.9788208,0.05340576
1602329049817,813,-0.1394043,-1.0159302,-0.06011963
1602329049819,814,-0.24560547,-0.97540283,0.0040893555
1602329049821,815,-0.2446289,-0.9663696,-0.011291504
1602329049823,816,-0.22167969,-0.9898071,-0.13067627
1602329049825,817,-0.22753906,-0.9788208,0.05340576
1602329049827,818,-0.15966797,-1.2901001,-0.09674072
1602329049829,819,-0.24560547,-0.97540283,0.0040893555
1602329049833,820,-0.0793457,-1.005188,0.1383667
1602329049835,821,-0.21020508,-1.0408325,0.21917725
1602329049833,822,-0.22167969,-0.9898071,-0.13067627
1602329049837,823,-0.12475586,-0.911438,0.2682495
1602329049839,824,-0.15966797,-1.2901001,-0.09674072
1602329049841,825,-0.23339844,-0.82232666,0.3007202
1602329049843,826,-0.0793457,-1.005188,0.1383667
1602329049845,827,-0.29467773,-0.79937744,0.32122803
1602329049847,828,-0.21020508,-1.0408325,0.21917725
1602329049851,829,-0.12475586,-0.911438,0.2682495
1602329049853,830,-0.23339844,-0.82232666,0.3007202
1602329049855,831,-0.29467773,-0.79937744,0.32122803
