# Sensor position: Front pocket (trouser)
# Sensor side: Right
# Activity type: Movement
# Activity code: 9
# Subject id: s1642301
timestamp,seq,accel_x,accel_y,accel_z
1602328890740,0,-0.095214844,-1.0357056,-0.01739502
1602328888220,1,-0.095214844,-1.0357056,-0.01739502
1602328890748,2,-0.044189453,-1.0130005,-0.0049438477
1602328890756,3,-0.044189453,-1.0130005,-0.0049438477
1602328890764,4,-0.1430664,-0.99542236,-0.03765869
1602328890772,5,-0.1430664,-0.99542236,-0.03765869
1602328890780,6,-0.04736328,-1.0198364,0.007019043
1602328890788,7,-0.04736328,-1.0198364,0.007019043
1602328890796,8,-0.12988281,-1.0742798,-0.120666504
1602328890804,9,-0.12988281,-1.0742798,-0.120666504
1602328890812,10,-0.115722656,-1.1460571,-0.097229004
1602328890820,11,-0.115722656,-1.1460571,-0.097229004
1602328890828,12,-0.1665039,-1.0523071,-0.04425049
1602328890836,13,-0.1665039,-1.0523071,-0.04425049
1602328890844,14,-0.20214844,-0.9456177,-0.078430176
1602328890852,15,-0.28808594,-1.109436,0.01361084
1602328890860,16,-0.20214844,-0.9456177,-0.078430176
1602328890868,17,-0.19165039,-1.005188,0.18817139
1602328890876,18,-0.28808594,-1.109436,0.01361084
1602328890884,19,-0.23657227,-0.8496704,0.3307495
1602328890892,20,-0.19165039,-1.005188,0.18817139
1602328890900,21,-0.18774414,-0.75909424,0.32635498
1602328890916,22,-0.23657227,-0.8496704,0.3307495
1602328890916,23,-0.21948242,-0.93463135,0.39837646
1602328890924,24,-0.18774414,-0.75909424,0.32635498
1602328890932,25,-0.24951172,-1.046936,0.38885498
1602328890940,26,-0.21948242,-0.93463135,0.39837646
1602328890948,27,-0.2763672,-1.0056763,0.18621826
1602328890956,28,-0.24951172,-1.046936,0.38885498
1602328890964,29,-0.26049805,-0.94415283,0.14764404
1602328890972,30,-0.2763672,-1.0056763,0.18621826
1602328890980,31,-0.122802734,-0.9968872,0.022155762
1602328890988,32,-0.26049805,-0.94415283,0.14764404
1602328890996,33,-0.1550293,-0.96661377,-0.03717041
1602328891004,34,-0.122802734,-0.9968872,0.022155762
1602328891012,35,-0.20141602,-1.03302,-0.089904785
1602328891028,36,-0.1550293,-0.96661377,-0.03717041
1602328891028,37,-0.18579102,-1.0388794,-0.06793213
1602328891044,38,-0.1538086,-1.000061,-0.009338379
1602328891052,39,-0.1472168,-1.0244751,-0.031555176
1602328891044,40,-0.20141602,-1.03302,-0.089904785
1602328891068,41,-0.18579102,-1.0388794,-0.06793213
1602328891068,42,-0.076171875,-1.0195923,-0.039611816
1602328891084,43,-0.05053711,-1.1726685,-0.10723877
1602328891084,44,-0.1538086,-1.000061,-0.009338379
1602328891092,45,-0.23364258,-1.0681763,-0.04083252
1602328891100,46,-0.1472168,-1.0244751,-0.031555176
1602328891108,47,-0.3022461,-0.9421997,0.031677246
1602328891116,48,-0.076171875,-1.0195923,-0.039611816
1602328891124,49,-0.2783203,-1.0916138,0.007507324
1602328891132,50,-0.05053711,-1.1726685,-0.10723877
1602328891140,51,-0.28564453,-0.9690552,0.16278076
1602328891156,52,-0.2734375,-0.93096924,0.22283936
1602328891156,53,-0.23364258,-1.0681763,-0.04083252
1602328891172,54,-0.3022461,-0.9421997,0.031677246
1602328891172,55,-0.2619629,-0.8609009,0.3258667
1602328891180,56,-0.2783203,-1.0916138,0.007507324
1602328891196,57,-0.18945312,-0.83843994,0.47332764
1602328891196,58,-0.28564453,-0.9690552,0.16278076
1602328891204,59,-0.08251953,-0.9768677,0.3529663
1602328891212,60,-0.2734375,-0.93096924,0.22283936
1602328891228,61,-0.2619629,-0.8609009,0.3258667
1602328891236,62,-0.18945312,-0.83843994,0.47332764
1602328891244,63,-0.08251953,-0.9768677,0.3529663
1602328893516,64,-0.17480469,-1.0042114,0.23651123
1602328890996,65,-0.17480469,-1.0042114,0.23651123
1602328893512,66,-0.16772461,-0.95391846,0.026062012
1602328893508,67,-0.16772461,-0.95391846,0.026062012
1602328893504,68,-0.18676758,-1.036438,0.028015137
1602328893500,69,-0.18676758,-1.036438,0.028015137
1602328893496,70,-0.22802734,-0.97979736,0.028503418
1602328893491,71,-0.22802734,-0.97979736,0.028503418
1602328893487,72,-0.15991211,-0.9807739,-0.039367676
1602328893483,73,-0.15991211,-0.9807739,-0.039367676
1602328893479,74,-0.15332031,-0.9776001,0.061950684
1602328893475,75,-0.15332031,-0.9776001,0.061950684
1602328893470,76,-0.06689453,-1.0059204,-0.05303955
1602328893466,77,-0.06689453,-1.0059204,-0.05303955
1602328893462,78,-0.14550781,-1.2996216,-0.12042236
1602328893458,79,-0.14550781,-1.2996216,-0.12042236
1602328893454,80,-0.22363281,-1.0825806,-0.09210205
1602328893445,81,-0.22363281,-1.0825806,-0.09210205
1602328893445,82,-0.41015625,-0.9663696,-0.018859863
1602328893441,83,-0.41015625,-0.9663696,-0.018859863
1602328893437,84,-0.38110352,-1.0828247,-0.022033691
1602328893433,85,-0.38110352,-1.0828247,-0.022033691
1602328893429,86,-0.36791992,-0.8015747,0.20404053
1602328893424,87,-0.36791992,-0.8015747,0.20404053
1602328893420,88,-0.29736328,-0.75006104,0.2970581
1602328893416,89,-0.29736328,-0.75006104,0.2970581
1602328893412,90,-0.3100586,-0.8389282,0.37176514
1602328893408,91,-0.3100586,-0.8389282,0.37176514
1602328893403,92,-0.32177734,-0.98150635,0.39935303
1602328893399,93,-0.32177734,-0.98150635,0.39935303
1602328893395,94,-0.43286133,-1.1257935,0.31488037
1602328893387,95,-0.21655273,-0.897522,0.1630249
1602328893391,96,-0.43286133,-1.1257935,0.31488037
1602328893382,97,-0.19116211,-0.93878174,-0.026428223
1602328893378,98,-0.21655273,-0.897522,0.1630249
1602328893374,99,-0.2685547,-0.98101807,-0.04473877
1602328893366,100,-0.11791992,-1.065979,-0.0044555664
1602328893370,101,-0.19116211,-0.93878174,-0.026428223
1602328893357,102,-0.09399414,-0.9710083,0.0602417
1602328893357,103,-0.2685547,-0.98101807,-0.04473877
1602328893349,104,-0.11791992,-1.065979,-0.0044555664
1602328893353,105,-0.21533203,-0.9729614,0.03314209
1602328893341,106,-0.2055664,-1.0088501,-0.030822754
1602328893345,107,-0.09399414,-0.9710083,0.0602417
1602328893332,108,-0.16821289,-1.081604,0.0680542
1602328893332,109,-0.21533203,-0.9729614,0.03314209
1602328893328,110,-0.10449219,-1.2737427,-0.07720947
1602328893324,111,-0.2055664,-1.0088501,-0.030822754
1602328893320,112,-0.36791992,-0.9685669,0.03729248
1602328893311,113,-0.16821289,-1.081604,0.0680542
1602328893311,114,-0.21728516,-1.0574341,0.09051514
1602328893303,115,-0.10449219,-1.2737427,-0.07720947
1602328893303,116,-0.31298828,-0.8545532,0.15472412
1602328893295,117,-0.30859375,-0.8062134,0.2994995
1602328893299,118,-0.36791992,-0.9685669,0.03729248
1602328893290,119,-0.29858398,-0.8135376,0.35198975
1602328893286,120,-0.21728516,-1.0574341,0.09051514
1602328893282,121,-0.36401367,-1.0213013,0.42156982
1602328893278,122,-0.31298828,-0.8545532,0.15472412
1602328893274,123,-0.31445312,-1.0654907,0.16375732
1602328893269,124,-0.30859375,-0.8062134,0.2994995
1602328893261,125,-0.29858398,-0.8135376,0.35198975
1602328893257,126,-0.36401367,-1.0213013,0.42156982
1602328893253,127,-0.31445312,-1.0654907,0.16375732
1602328893382,128,-0.14868164,-0.9639282,0.06854248
1602328895902,129,-0.14868164,-0.9639282,0.06854248
1602328895903,130,-0.22241211,-0.9546509,-0.03375244
1602328895905,131,-0.22241211,-0.9546509,-0.03375244
1602328895907,132,-0.18676758,-0.99224854,-0.03717041
1602328895909,133,-0.18676758,-0.99224854,-0.03717041
1602328895911,134,-0.14013672,-1.0755005,-0.05670166
1602328895913,135,-0.14013672,-1.0755005,-0.05670166
1602328895917,136,-0.22851562,-1.0081177,-0.043029785
1602328895915,137,-0.22851562,-1.0081177,-0.043029785
1602328895919,138,-0.2783203,-0.9837036,-0.040100098
1602328895923,139,-0.28857422,-0.987854,-0.014709473
1602328895921,140,-0.2783203,-0.9837036,-0.040100098
1602328895925,141,-0.21044922,-1.0149536,0.010192871
1602328895927,142,-0.28857422,-0.987854,-0.014709473
1602328895931,143,-0.03173828,-1.060852,-0.04864502
1602328895931,144,-0.21044922,-1.0149536,0.010192871
1602328895935,145,-0.21362305,-1.1992798,-0.08721924
1602328895935,146,-0.03173828,-1.060852,-0.04864502
1602328895937,147,-0.32055664,-0.9944458,-0.08087158
1602328895941,148,-0.3232422,-0.9710083,0.046569824
1602328895939,149,-0.21362305,-1.1992798,-0.08721924
1602328895943,150,-0.33276367,-1.0379028,0.023132324
1602328895945,151,-0.32055664,-0.9944458,-0.08087158
1602328895947,152,-0.3527832,-0.9031372,0.18865967
1602328895949,153,-0.3232422,-0.9710083,0.046569824
1602328895951,154,-0.3166504,-0.8892212,0.26727295
1602328895953,155,-0.33276367,-1.0379028,0.023132324
1602328895955,156,-0.34033203,-0.803772,0.34222412
1602328895957,157,-0.3527832,-0.9031372,0.18865967
1602328895959,158,-0.3166504,-0.8892212,0.26727295
1602328895961,159,-0.3166504,-0.8518677,0.496521
1602328895965,160,-0.1430664,-0.8123169,0.50164795
1602328895965,161,-0.34033203,-0.803772,0.34222412
1602328895966,162,-0.37597656,-1.1626587,0.26361084
1602328895968,163,-0.3166504,-0.8518677,0.496521
1602328895970,164,-0.1652832,-0.93536377,0.0914917
1602328895974,165,-0.13110352,-0.9871216,-0.015930176
1602328895974,166,-0.1430664,-0.8123169,0.50164795
1602328895976,167,-0.23144531,-1.0234985,0.026550293
1602328895978,168,-0.37597656,-1.1626587,0.26361084
1602328895980,169,-0.21484375,-1.0203247,-0.05279541
1602328895982,170,-0.1652832,-0.93536377,0.0914917
1602328895984,171,-0.28930664,-0.9768677,-0.03668213
1602328895986,172,-0.13110352,-0.9871216,-0.015930176
1602328895990,173,-0.23144531,-1.0234985,0.026550293
1602328895988,174,-0.3544922,-0.960022,0.011169434
1602328895992,175,-0.21484375,-1.0203247,-0.05279541
1602328895994,176,-0.17626953,-1.0093384,0.012878418
1602328895996,177,-0.28930664,-0.9768677,-0.03668213
1602328895998,178,-0.0048828125,-1.017395,0.019714355
1602328896000,179,-0.3544922,-0.960022,0.011169434
1602328896002,180,-0.08105469,-1.234436,-0.109191895
1602328896004,181,-0.17626953,-1.0093384,0.012878418
1602328896008,182,-0.25585938,-1.2024536,-0.16802979
1602328896008,183,-0.0048828125,-1.017395,0.019714355
1602328896010,184,-0.35083008,-0.8352661,-0.055236816
1602328896012,185,-0.08105469,-1.234436,-0.109191895
1602328896016,186,-0.29638672,-1.0440063,-0.053527832
1602328896016,187,-0.25585938,-1.2024536,-0.16802979
1602328896020,188,-0.35083008,-0.8352661,-0.055236816
1602328896018,189,-0.39770508,-0.9780884,-0.0049438477
1602328896022,190,-0.29638672,-1.0440063,-0.053527832
1602328896026,191,-0.39770508,-0.9780884,-0.0049438477
1602328898485,192,-0.40429688,-0.9260864,0.2296753
1602328895965,193,-0.40429688,-0.9260864,0.2296753
1602328898501,194,-0.3400879,-0.7114868,0.30047607
1602328898493,195,-0.3400879,-0.7114868,0.30047607
1602328898509,196,-0.29882812,-0.74224854,0.447937
1602328898517,197,-0.29882812,-0.74224854,0.447937
1602328898525,198,-0.17260742,-0.87286377,0.49749756
1602328898533,199,-0.17260742,-0.87286377,0.49749756
1602328898542,200,-0.49072266,-1.3284302,0.35662842
1602328898550,201,-0.49072266,-1.3284302,0.35662842
1602328898558,202,-0.2607422,-0.72735596,0.1942749
1602328898566,203,-0.2607422,-0.72735596,0.1942749
1602328898574,204,-0.17919922,-1.0274048,0.06414795
1602328898582,205,-0.17919922,-1.0274048,0.06414795
1602328898591,206,-0.36328125,-0.9673462,0.11077881
1602328898599,207,-0.36328125,-0.9673462,0.11077881
1602328898607,208,-0.18066406,-0.9685669,-0.043762207
1602328898615,209,-0.18066406,-0.9685669,-0.043762207
1602328898623,210,-0.19042969,-0.9507446,0.028015137
1602328898631,211,-0.19042969,-0.9507446,0.028015137
1602328898639,212,-0.19042969,-0.9829712,0.02142334
1602328898648,213,-0.19042969,-0.9829712,0.02142334
1602328898656,214,-0.12402344,-1.0464478,-0.02154541
1602328898664,215,-0.12402344,-1.0464478,-0.02154541
1602328898672,216,-0.17211914,-1.1797485,-0.009094238
1602328898680,217,-0.17211914,-1.1797485,-0.009094238
1602328898688,218,-0.13232422,-1.1577759,-0.14337158
1602328898705,219,-0.44580078,-0.9212036,0.061950684
1602328898697,220,-0.13232422,-1.1577759,-0.14337158
1602328898713,221,-0.28100586,-1.0806274,0.082214355
1602328898721,222,-0.44580078,-0.9212036,0.061950684
1602328898729,223,-0.29833984,-0.84991455,0.23724365
1602328898737,224,-0.28100586,-1.0806274,0.082214355
1602328898746,225,-0.30395508,-0.76934814,0.3944702
1602328898754,226,-0.29833984,-0.84991455,0.23724365
1602328898762,227,-0.2133789,-0.7449341,0.354187
1602328898770,228,-0.30395508,-0.76934814,0.3944702
1602328898778,229,-0.24951172,-0.9714966,0.4694214
1602328898786,230,-0.2133789,-0.7449341,0.354187
1602328898794,231,-0.29833984,-0.99884033,0.4118042
1602328898803,232,-0.24951172,-0.9714966,0.4694214
1602328898811,233,-0.45336914,-0.9885864,0.21282959
1602328898819,234,-0.29833984,-0.99884033,0.4118042
1602328898827,235,-0.24414062,-0.94854736,0.16107178
1602328898835,236,-0.45336914,-0.9885864,0.21282959
1602328898843,237,-0.1381836,-0.99420166,0.07147217
1602328898852,238,-0.24414062,-0.94854736,0.16107178
1602328898860,239,-0.23022461,-0.96099854,0.05218506
1602328898876,240,-0.1381836,-0.99420166,0.07147217
1602328898876,241,-0.17895508,-1.0032349,-0.066467285
1602328898884,242,-0.23022461,-0.96099854,0.05218506
1602328898892,243,-0.24853516,-1.0320435,-0.073791504
1602328898900,244,-0.17895508,-1.0032349,-0.066467285
1602328898909,245,-0.2788086,-0.99224854,-0.06866455
1602328898917,246,-0.24853516,-1.0320435,-0.073791504
1602328898925,247,-0.21801758,-1.0046997,-0.093566895
1602328898933,248,-0.2788086,-0.99224854,-0.06866455
1602328898941,249,-0.109375,-1.0200806,-0.077697754
1602328898949,250,-0.21801758,-1.0046997,-0.093566895
1602328898958,251,-0.10229492,-0.989563,6.713867E-4
1602328898966,252,-0.109375,-1.0200806,-0.077697754
1602328898974,253,-0.043701172,-1.1768188,-0.10430908
1602328898982,254,-0.10229492,-0.989563,6.713867E-4
1602328898998,255,-0.043701172,-1.1768188,-0.10430908
1602328901266,256,-0.20410156,-1.1045532,-0.1182251
1602328898746,257,-0.20410156,-1.1045532,-0.1182251
1602328901262,258,-0.26708984,-0.9451294,-0.14434814
1602328901258,259,-0.26708984,-0.9451294,-0.14434814
1602328901254,260,-0.3630371,-0.97198486,-0.1038208
1602328901250,261,-0.3630371,-0.97198486,-0.1038208
1602328901246,262,-0.26611328,-1.1089478,-0.050598145
1602328901241,263,-0.26611328,-1.1089478,-0.050598145
1602328901237,264,-0.2409668,-0.9326782,0.14715576
1602328901233,265,-0.2409668,-0.9326782,0.14715576
1602328901229,266,-0.28881836,-0.9414673,0.18109131
1602328901225,267,-0.28881836,-0.9414673,0.18109131
1602328901216,268,-0.44555664,-0.93414307,0.10687256
1602328901220,269,-0.44555664,-0.93414307,0.10687256
1602328901212,270,-0.43286133,-0.8386841,0.2230835
1602328901208,271,-0.43286133,-0.8386841,0.2230835
1602328901204,272,-0.2956543,-0.8401489,0.39520264
1602328901199,273,-0.2685547,-0.9963989,0.4118042
1602328901195,274,-0.2956543,-0.8401489,0.39520264
1602328901191,275,-0.25219727,-0.9517212,0.34173584
1602328901187,276,-0.2685547,-0.9963989,0.4118042
1602328901183,277,-0.119140625,-1.0271606,0.24749756
1602328901179,278,-0.25219727,-0.9517212,0.34173584
1602328901174,279,-0.03930664,-1.0056763,0.07171631
1602328901170,280,-0.119140625,-1.0271606,0.24749756
1602328901162,281,-0.03930664,-1.0056763,0.07171631
1602328901166,282,-0.21411133,-0.9741821,0.0053100586
1602328901158,283,-0.21411133,-0.9741821,0.0053100586
1602328901153,284,-0.27539062,-0.9751587,-0.06036377
1602328901145,285,-0.26513672,-1.0249634,-0.06744385
1602328901149,286,-0.27539062,-0.9751587,-0.06036377
1602328901141,287,-0.17822266,-0.99542236,-0.04107666
1602328901137,288,-0.26513672,-1.0249634,-0.06744385
1602328901132,289,-0.10449219,-0.9734497,-0.058898926
1602328901128,290,-0.17822266,-0.99542236,-0.04107666
1602328901120,291,-0.15673828,-1.1921997,-0.14385986
1602328901120,292,-0.10449219,-0.9734497,-0.058898926
1602328901116,293,-0.15673828,-1.1921997,-0.14385986
1602328901112,294,-0.2697754,-1.1624146,-0.15777588
1602328901103,295,-0.29907227,-0.8779907,-0.12506104
1602328901103,296,-0.2697754,-1.1624146,-0.15777588
1602328901095,297,-0.35546875,-1.0144653,-0.112854004
1602328901095,298,-0.29907227,-0.8779907,-0.12506104
1602328901091,299,-0.35595703,-1.000061,-0.07159424
1602328901086,300,-0.35546875,-1.0144653,-0.112854004
1602328901082,301,-0.44433594,-0.9854126,0.105407715
1602328901078,302,-0.35595703,-1.000061,-0.07159424
1602328901074,303,-0.40478516,-0.90289307,0.20013428
1602328901070,304,-0.44433594,-0.9854126,0.105407715
1602328901065,305,-0.40039062,-0.7984009,0.26971436
1602328901061,306,-0.40478516,-0.90289307,0.20013428
1602328901057,307,-0.38549805,-0.86016846,0.31097412
1602328901053,308,-0.40039062,-0.7984009,0.26971436
1602328901049,309,-0.3659668,-0.8711548,0.35076904
1602328901045,310,-0.38549805,-0.86016846,0.31097412
1602328901040,311,-0.4567871,-1.0950317,0.27581787
1602328901036,312,-0.3659668,-0.8711548,0.35076904
1602328901028,313,-0.4567871,-1.0950317,0.27581787
1602328901028,314,-0.23144531,-0.9649048,0.17889404
1602328901024,315,-0.23144531,-0.9649048,0.17889404
1602328901019,316,-0.19311523,-0.9644165,0.0021362305
1602328901015,317,-0.19311523,-0.9644165,0.0021362305
1602328901011,318,-0.22558594,-0.9920044,-0.03277588
1602328901003,319,-0.22558594,-0.9920044,-0.03277588
1602328901132,320,-0.20336914,-1.0159302,-0.11407471
1602328903652,321,-0.20336914,-1.0159302,-0.11407471
1602328903654,322,-0.20336914,-1.0232544,-0.06036377
1602328903656,323,-0.20336914,-1.0232544,-0.06036377
1602328903660,324,-0.20385742,-0.99102783,-0.027160645
1602328903658,325,-0.20385742,-0.99102783,-0.027160645
1602328903662,326,-0.22290039,-0.99664307,-0.010314941
1602328903664,327,-0.22290039,-0.99664307,-0.010314941
1602328903666,328,-0.13916016,-1.0210571,-0.03692627
1602328903668,329,-0.13916016,-1.0210571,-0.03692627
1602328903670,330,-0.15600586,-1.2254028,-0.13018799
1602328903672,331,-0.15600586,-1.2254028,-0.13018799
1602328903674,332,-0.234375,-1.0523071,-0.07623291
1602328903676,333,-0.234375,-1.0523071,-0.07623291
1602328903678,334,-0.16625977,-0.9319458,-0.09503174
1602328903682,335,-0.16625977,-0.9319458,-0.09503174
1602328903682,336,-0.23876953,-1.0735474,-0.014221191
1602328903684,337,-0.23876953,-1.0735474,-0.014221191
1602328903686,338,-0.30249023,-1.0261841,-0.023498535
1602328903688,339,-0.30249023,-1.0261841,-0.023498535
1602328903690,340,-0.41796875,-0.99591064,0.12445068
1602328903692,341,-0.41796875,-0.99591064,0.12445068
1602328903694,342,-0.35205078,-0.94122314,0.11956787
1602328903696,343,-0.35205078,-0.94122314,0.11956787
1602328903698,344,-0.39453125,-0.76763916,0.2531128
1602328903700,345,-0.39453125,-0.76763916,0.2531128
1602328903702,346,-0.3540039,-0.7793579,0.39544678
1602328903704,347,-0.3540039,-0.7793579,0.39544678
1602328903706,348,-0.092285156,-0.8291626,0.48553467
1602328903708,349,-0.092285156,-0.8291626,0.48553467
1602328903710,350,-0.4165039,-1.3855591,0.27215576
1602328903712,351,-0.4165039,-1.3855591,0.27215576
1602328903714,352,-0.14624023,-0.7803345,0.13616943
1602328903719,353,-0.14624023,-0.7803345,0.13616943
1602328903719,354,-0.21728516,-1.076477,0.09075928
1602328903721,355,-0.21728516,-1.076477,0.09075928
1602328903723,356,-0.2788086,-0.9727173,0.03704834
1602328903725,357,-0.2788086,-0.9727173,0.03704834
1602328903727,358,-0.29467773,-0.9573364,-0.05621338
1602328903729,359,-0.29467773,-0.9573364,-0.05621338
1602328903731,360,-0.29052734,-0.96759033,-0.045959473
1602328903733,361,-0.29052734,-0.96759033,-0.045959473
1602328903735,362,-0.25024414,-0.9692993,-6.1035156E-5
1602328903737,363,-0.25024414,-0.9692993,-6.1035156E-5
1602328903739,364,-0.20996094,-1.0064087,-0.07330322
1602328903741,365,-0.20996094,-1.0064087,-0.07330322
1602328903743,366,-0.17871094,-1.1599731,-0.09625244
1602328903745,367,-0.17871094,-1.1599731,-0.09625244
1602328903747,368,-0.114990234,-1.1685181,-0.117248535
1602328903749,369,-0.114990234,-1.1685181,-0.117248535
1602328903753,370,-0.27148438,-0.90631104,-0.10601807
1602328903753,371,-0.27148438,-0.90631104,-0.10601807
1602328903755,372,-0.36206055,-0.97247314,0.07562256
1602328903759,373,-0.36206055,-0.97247314,0.07562256
1602328903759,374,-0.30786133,-1.1589966,-0.043029785
1602328903761,375,-0.30786133,-1.1589966,-0.043029785
1602328903763,376,-0.4230957,-0.88848877,0.22576904
1602328903765,377,-0.4230957,-0.88848877,0.22576904
1602328903767,378,-0.34692383,-0.829895,0.22601318
1602328903769,379,-0.34692383,-0.829895,0.22601318
1602328903771,380,-0.31201172,-0.75787354,0.30682373
1602328903773,381,-0.31201172,-0.75787354,0.30682373
1602328903777,382,-0.3347168,-0.9168091,0.34417725
1602328903777,383,-0.3347168,-0.9168091,0.34417725
1602328906237,384,-0.38745117,-1.175354,0.2098999
1602328903717,385,-0.38745117,-1.175354,0.2098999
1602328906239,386,-0.19897461,-0.8953247,0.078063965
1602328906241,387,-0.19897461,-0.8953247,0.078063965
1602328906243,388,-0.2211914,-1.0261841,0.016540527
1602328906245,389,-0.2211914,-1.0261841,0.016540527
1602328906247,390,-0.22607422,-1.0112915,-0.02520752
1602328906249,391,-0.22607422,-1.0112915,-0.02520752
1602328906253,392,-0.22314453,-1.0125122,0.0067749023
1602328906251,393,-0.22314453,-1.0125122,0.0067749023
1602328906257,394,-0.17895508,-1.0232544,-0.061340332
1602328906257,395,-0.17895508,-1.0232544,-0.061340332
1602328906259,396,-0.2175293,-1.0181274,-0.08282471
1602328906261,397,-0.2175293,-1.0181274,-0.08282471
1602328906263,398,-0.20483398,-1.0059204,-0.0947876
1602328906265,399,-0.20483398,-1.0059204,-0.0947876
1602328906269,400,-0.16699219,-1.0054321,-0.09136963
1602328906267,401,-0.16699219,-1.0054321,-0.09136963
1602328906271,402,-0.06982422,-1.0315552,-0.08062744
1602328906273,403,-0.06982422,-1.0315552,-0.08062744
1602328906275,404,-0.15600586,-1.1560669,-0.093811035
1602328906277,405,-0.15600586,-1.1560669,-0.093811035
1602328906279,406,-0.19018555,-1.0183716,-0.15240479
1602328906283,407,-0.19018555,-1.0183716,-0.15240479
1602328906283,408,-0.34301758,-0.9314575,-0.03375244
1602328906287,409,-0.45703125,-1.1030884,-0.04107666
1602328906285,410,-0.34301758,-0.9314575,-0.03375244
1602328906291,411,-0.45703125,-1.1030884,-0.04107666
1602328906291,412,-0.3881836,-0.9170532,0.03656006
1602328906293,413,-0.3881836,-0.9170532,0.03656006
1602328906295,414,-0.37890625,-0.9163208,0.20477295
1602328906299,415,-0.34155273,-0.8184204,0.21868896
1602328906297,416,-0.37890625,-0.9163208,0.20477295
1602328906301,417,-0.22998047,-0.8870239,0.43743896
1602328906303,418,-0.34155273,-0.8184204,0.21868896
1602328906305,419,-0.15844727,-1.0823364,0.32440186
1602328906307,420,-0.22998047,-0.8870239,0.43743896
1602328906311,421,-0.15844727,-1.0823364,0.32440186
1602328906309,422,-0.359375,-0.9446411,0.12835693
1602328906315,423,-0.23461914,-0.99591064,-0.010803223
1602328906315,424,-0.359375,-0.9446411,0.12835693
1602328906317,425,-0.25610352,-1.0200806,0.011657715
1602328906319,426,-0.23461914,-0.99591064,-0.010803223
1602328906323,427,-0.26049805,-0.9854126,0.027282715
1602328906323,428,-0.25610352,-1.0200806,0.011657715
1602328906327,429,-0.26049805,-0.9854126,0.027282715
1602328906325,430,-0.19140625,-0.9631958,-0.066467285
1602328906329,431,-0.19140625,-0.9631958,-0.066467285
1602328906331,432,-0.29541016,-1.0281372,-0.0635376
1602328906333,433,-0.29541016,-1.0281372,-0.0635376
1602328906335,434,-0.3083496,-1.0222778,-0.10015869
1602328906339,435,-0.15014648,-0.99542236,-0.11114502
1602328906339,436,-0.3083496,-1.0222778,-0.10015869
1602328906341,437,0.021240234,-1.0098267,-0.120910645
1602328906343,438,-0.15014648,-0.99542236,-0.11114502
1602328906345,439,-0.10571289,-1.0647583,-0.05718994
1602328906347,440,0.021240234,-1.0098267,-0.120910645
1602328906349,441,-0.032226562,-1.0352173,-0.030578613
1602328906351,442,-0.10571289,-1.0647583,-0.05718994
1602328906353,443,-0.17089844,-1.0176392,0.01361084
1602328906355,444,-0.032226562,-1.0352173,-0.030578613
1602328906357,445,-0.22192383,-1.2439575,-0.11187744
1602328906359,446,-0.17089844,-1.0176392,0.01361084
1602328906361,447,-0.22192383,-1.2439575,-0.11187744
1602328906301,448,-0.2536621,-0.9793091,-0.1651001
1602328908821,449,-0.2536621,-0.9793091,-0.1651001
1602328908817,450,-0.5637207,-0.94000244,-0.00982666
1602328908813,451,-0.5637207,-0.94000244,-0.00982666
1602328908809,452,-0.42285156,-1.1140747,-0.057922363
1602328908804,453,-0.42285156,-1.1140747,-0.057922363
1602328908796,454,-0.32836914,-0.770813,0.24066162
1602328908800,455,-0.32836914,-0.770813,0.24066162
1602328908792,456,-0.23339844,-0.692688,0.3961792
1602328908787,457,-0.23339844,-0.692688,0.3961792
1602328908783,458,-0.19360352,-0.8303833,0.45794678
1602328908779,459,-0.19360352,-0.8303833,0.45794678
1602328908775,460,-0.34838867,-1.0984497,0.44232178
1602328908770,461,-0.34838867,-1.0984497,0.44232178
1602328908766,462,-0.5358887,-1.0186157,0.13348389
1602328908762,463,-0.5358887,-1.0186157,0.13348389
1602328908758,464,-0.17407227,-0.9290161,0.013122559
1602328908753,465,-0.17407227,-0.9290161,0.013122559
1602328908745,466,-0.29516602,-0.9819946,-0.010803223
1602328908749,467,-0.29516602,-0.9819946,-0.010803223
1602328908741,468,-0.25,-0.9819946,0.031188965
1602328908736,469,-0.25,-0.9819946,0.031188965
1602328908732,470,-0.13232422,-0.98565674,0.014831543
1602328908724,471,-0.16137695,-0.9644165,0.07220459
1602328908728,472,-0.13232422,-0.98565674,0.014831543
1602328908719,473,-0.17993164,-0.97906494,-0.030334473
1602328908715,474,-0.16137695,-0.9644165,0.07220459
1602328908711,475,-0.1550293,-1.034729,-0.1104126
1602328908707,476,-0.17993164,-0.97906494,-0.030334473
1602328908702,477,-0.18457031,-1.2012329,-0.16143799
1602328908698,478,-0.1550293,-1.034729,-0.1104126
1602328908694,479,-0.3479004,-1.0591431,-0.12432861
1602328908690,480,-0.18457031,-1.2012329,-0.16143799
1602328908685,481,-0.42919922,-0.9624634,-0.008605957
1602328908681,482,-0.3479004,-1.0591431,-0.12432861
1602328908677,483,-0.40014648,-1.0662231,-0.04937744
1602328908673,484,-0.42919922,-0.9624634,-0.008605957
1602328908668,485,-0.38256836,-0.86383057,0.15789795
1602328908664,486,-0.40014648,-1.0662231,-0.04937744
1602328908660,487,-0.28979492,-0.80596924,0.25750732
1602328908656,488,-0.38256836,-0.86383057,0.15789795
1602328908651,489,-0.2614746,-0.89263916,0.2477417
1602328908647,490,-0.28979492,-0.80596924,0.25750732
1602328908643,491,-0.37695312,-0.9644165,0.2921753
1602328908634,492,-0.41210938,-0.95928955,0.27191162
1602328908639,493,-0.2614746,-0.89263916,0.2477417
1602328908630,494,-0.45336914,-1.0579224,0.1864624
1602328908626,495,-0.37695312,-0.9644165,0.2921753
1602328908622,496,-0.31323242,-0.94317627,0.0368042
1602328908617,497,-0.41210938,-0.95928955,0.27191162
1602328908613,498,-0.34448242,-0.98223877,-0.12628174
1602328908609,499,-0.45336914,-1.0579224,0.1864624
1602328908605,500,-0.28686523,-1.0322876,-0.0947876
1602328908600,501,-0.31323242,-0.94317627,0.0368042
1602328908596,502,-0.18969727,-0.9963989,-0.113098145
1602328908592,503,-0.34448242,-0.98223877,-0.12628174
1602328908588,504,-0.14941406,-1.0230103,-0.051086426
1602328908583,505,-0.28686523,-1.0322876,-0.0947876
1602328908579,506,-0.103027344,-1.024231,-0.019836426
1602328908575,507,-0.18969727,-0.9963989,-0.113098145
1602328908571,508,-0.09887695,-1.0508423,-0.0037231445
1602328908566,509,-0.14941406,-1.0230103,-0.051086426
1602328908558,510,-0.103027344,-1.024231,-0.019836426
1602328908554,511,-0.09887695,-1.0508423,-0.0037231445
1602328911205,512,-0.1538086,-1.0234985,-0.10430908
1602328908685,513,-0.1538086,-1.0234985,-0.10430908
1602328911207,514,-0.24047852,-1.0166626,-0.11480713
1602328911209,515,-0.24047852,-1.0166626,-0.11480713
1602328911211,516,-0.3305664,-0.98223877,0.13397217
1602328911213,517,-0.3305664,-0.98223877,0.13397217
1602328911215,518,-0.2487793,-1.0176392,0.2579956
1602328911217,519,-0.2487793,-1.0176392,0.2579956
1602328911219,520,-0.2956543,-0.80255127,0.3036499
1602328911221,521,-0.2956543,-0.80255127,0.3036499
1602328911223,522,-0.25073242,-0.7942505,0.3378296
1602328911225,523,-0.25073242,-0.7942505,0.3378296
1602328911227,524,-0.3334961,-0.94854736,0.37322998
1602328911229,525,-0.3334961,-0.94854736,0.37322998
1602328911231,526,-0.46362305,-1.0278931,0.3612671
1602328911233,527,-0.46362305,-1.0278931,0.3612671
1602328911235,528,-0.42382812,-0.97906494,0.29681396
1602328911237,529,-0.42382812,-0.97906494,0.29681396
1602328911239,530,-0.3154297,-0.9216919,-0.013977051
1602328911241,531,-0.3154297,-0.9216919,-0.013977051
1602328911243,532,-0.35107422,-0.9951782,-0.042053223
1602328911245,533,-0.35107422,-0.9951782,-0.042053223
1602328911247,534,-0.2553711,-0.9951782,-0.09991455
1602328911249,535,-0.2553711,-0.9951782,-0.09991455
1602328911251,536,-0.0949707,-1.0012817,-0.120666504
1602328911253,537,-0.0949707,-1.0012817,-0.120666504
1602328911255,538,0.0048828125,-1.0239868,-0.02520752
1602328911257,539,0.0048828125,-1.0239868,-0.02520752
1602328911259,540,0.02368164,-1.0508423,0.04510498
1602328911261,541,0.02368164,-1.0508423,0.04510498
1602328911263,542,-0.114746094,-1.0525513,0.051940918
1602328911265,543,-0.114746094,-1.0525513,0.051940918
1602328911267,544,-0.1665039,-1.0044556,0.06854248
1602328911269,545,-0.24316406,-1.1528931,-0.2666626
1602328911271,546,-0.1665039,-1.0044556,0.06854248
1602328911273,547,-0.35888672,-1.0960083,-0.077697754
1602328911275,548,-0.24316406,-1.1528931,-0.2666626
1602328911277,549,-0.16723633,-1.0974731,0.04144287
1602328911279,550,-0.35888672,-1.0960083,-0.077697754
1602328911281,551,-0.3005371,-0.79693604,0.3710327
1602328911283,552,-0.16723633,-1.0974731,0.04144287
1602328911285,553,-0.3005371,-0.79693604,0.3710327
1602328911287,554,-0.24389648,-0.68414307,0.355896
1602328911289,555,-0.24389648,-0.68414307,0.355896
1602328911291,556,-0.34375,-0.6802368,0.37127686
1602328911293,557,-0.34375,-0.6802368,0.37127686
1602328911295,558,-0.44848633,-0.98760986,0.45672607
1602328911297,559,-0.4453125,-1.1177368,0.37054443
1602328911299,560,-0.44848633,-0.98760986,0.45672607
1602328911301,561,-0.4399414,-1.0039673,0.09320068
1602328911303,562,-0.4453125,-1.1177368,0.37054443
1602328911305,563,-0.08886719,-0.9092407,-0.12750244
1602328911307,564,-0.4399414,-1.0039673,0.09320068
1602328911309,565,-0.2878418,-0.99957275,-0.10235596
1602328911313,566,-0.17773438,-0.99176025,-0.10699463
1602328911311,567,-0.08886719,-0.9092407,-0.12750244
1602328911315,568,-0.048095703,-0.95147705,-0.015197754
1602328911319,569,-0.09863281,-0.9570923,0.0048217773
1602328911317,570,-0.2878418,-0.99957275,-0.10235596
1602328911323,571,-0.17773438,-0.99176025,-0.10699463
1602328911321,572,-0.11425781,-1.0303345,-0.07672119
1602328911325,573,-0.048095703,-0.95147705,-0.015197754
1602328911329,574,-0.09863281,-0.9570923,0.0048217773
1602328911331,575,-0.11425781,-1.0303345,-0.07672119
1602328911269,576,-0.14135742,-1.2405396,-0.09185791
1602328913789,577,-0.14135742,-1.2405396,-0.09185791
1602328913790,578,-0.07348633,-1.133606,-0.17999268
1602328913792,579,-0.07348633,-1.133606,-0.17999268
1602328913794,580,-0.4584961,-0.9036255,0.023864746
1602328913796,581,-0.4584961,-0.9036255,0.023864746
1602328913798,582,-0.27978516,-1.1970825,-0.04107666
1602328913800,583,-0.27978516,-1.1970825,-0.04107666
1602328913802,584,-0.29882812,-0.8049927,0.20477295
1602328913806,585,-0.24829102,-0.6765747,0.32611084
1602328913806,586,-0.29882812,-0.8049927,0.20477295
1602328913808,587,-0.27856445,-0.84259033,0.34979248
1602328913810,588,-0.24829102,-0.6765747,0.32611084
1602328913812,589,-0.31835938,-1.0249634,0.37469482
1602328913814,590,-0.27856445,-0.84259033,0.34979248
1602328913816,591,-0.46826172,-1.0911255,0.37469482
1602328913818,592,-0.31835938,-1.0249634,0.37469482
1602328913820,593,-0.37426758,-0.9871216,0.13690186
1602328913822,594,-0.46826172,-1.0911255,0.37469482
1602328913824,595,-0.064453125,-0.9277954,-0.0635376
1602328913826,596,-0.31176758,-0.9907837,0.018981934
1602328913828,597,-0.06958008,-0.9624634,-0.11016846
1602328913830,598,-0.37426758,-0.9871216,0.13690186
1602328913832,599,-0.0949707,-0.9663696,-0.023498535
1602328913834,600,-0.1105957,-0.9883423,-0.01763916
1602328913836,601,-0.064453125,-0.9277954,-0.0635376
1602328913838,602,-0.31176758,-0.9907837,0.018981934
1602328913840,603,-0.13061523,-1.0835571,-0.01739502
1602328913842,604,-0.06958008,-0.9624634,-0.11016846
1602328913844,605,0.017089844,-1.2737427,-0.054748535
1602328913848,606,-0.1616211,-1.079895,-0.17193604
1602328913848,607,-0.0949707,-0.9663696,-0.023498535
1602328913850,608,-0.1105957,-0.9883423,-0.01763916
1602328913852,609,-0.2770996,-1.0454712,0.030456543
1602328913853,610,-0.13061523,-1.0835571,-0.01739502
1602328913855,611,-0.15893555,-0.9968872,-0.07940674
1602328913857,612,0.017089844,-1.2737427,-0.054748535
1602328913859,613,-0.31420898,-0.94854736,0.1317749
1602328913861,614,-0.1616211,-1.079895,-0.17193604
1602328913863,615,-0.2770996,-1.0454712,0.030456543
1602328913865,616,-0.28198242,-0.89068604,0.16229248
1602328913869,617,-0.2524414,-0.97540283,0.21502686
1602328913869,618,-0.15893555,-0.9968872,-0.07940674
1602328913873,619,-0.31420898,-0.94854736,0.1317749
1602328913871,620,-0.22851562,-0.8596802,0.24822998
1602328913877,621,-0.30297852,-0.986145,0.11395264
1602328913877,622,-0.28198242,-0.89068604,0.16229248
1602328913879,623,-0.24804688,-1.196106,0.04144287
1602328913881,624,-0.2524414,-0.97540283,0.21502686
1602328913883,625,-0.08276367,-0.9414673,-0.06329346
1602328913885,626,-0.22851562,-0.8596802,0.24822998
1602328913889,627,-0.30297852,-0.986145,0.11395264
1602328913887,628,-0.09106445,-1.0339966,-0.1609497
1602328913893,629,-0.24804688,-1.196106,0.04144287
1602328913893,630,-0.16552734,-1.0247192,-0.15386963
1602328913897,631,-0.11621094,-1.0352173,-0.1716919
1602328913895,632,-0.08276367,-0.9414673,-0.06329346
1602328913899,633,-0.1899414,-1.02594,-0.14434814
1602328913901,634,-0.09106445,-1.0339966,-0.1609497
1602328913903,635,-0.16552734,-1.0247192,-0.15386963
1602328913907,636,-0.11621094,-1.0352173,-0.1716919
1602328913905,637,-0.14672852,-1.0315552,-0.15753174
1602328913909,638,-0.1899414,-1.02594,-0.14434814
1602328913913,639,-0.14672852,-1.0315552,-0.15753174
1602328913852,640,-7.324219E-4,-1.0432739,-0.07989502
1602328916372,641,-7.324219E-4,-1.0432739,-0.07989502
1602328916376,642,-0.056884766,-1.0628052,-0.12750244
1602328916378,643,-0.17138672,-1.0630493,-0.19781494
1602328916380,644,-0.41430664,-0.9636841,-0.17974854
1602328916374,645,-0.056884766,-1.0628052,-0.12750244
1602328916382,646,-0.3996582,-1.1038208,-0.14508057
1602328916386,647,-0.42700195,-1.0442505,-0.07525635
1602328916386,648,-0.17138672,-1.0630493,-0.19781494
1602328916388,649,-0.32177734,-0.7822876,0.13031006
1602328916390,650,-0.41430664,-0.9636841,-0.17974854
1602328916392,651,-0.37353516,-0.76885986,0.20599365
1602328916396,652,-0.4255371,-0.96051025,0.31072998
1602328916396,653,-0.3996582,-1.1038208,-0.14508057
1602328916398,654,-0.5163574,-1.0535278,0.34344482
1602328916400,655,-0.42700195,-1.0442505,-0.07525635
1602328916402,656,-0.4440918,-1.076477,0.18011475
1602328916404,657,-0.32177734,-0.7822876,0.13031006
1602328916408,658,-0.37353516,-0.76885986,0.20599365
1602328916406,659,-0.068603516,-0.8665161,-0.11407471
1602328916412,660,-0.30395508,-0.960022,-0.085510254
1602328916412,661,-0.4255371,-0.96051025,0.31072998
1602328916416,662,-0.5163574,-1.0535278,0.34344482
1602328916416,663,-0.15112305,-0.97052,-0.13482666
1602328916418,664,-0.4440918,-1.076477,0.18011475
1602328916420,665,-0.06518555,-0.9968872,-0.04522705
1602328916422,666,-0.068603516,-0.8665161,-0.11407471
1602328916424,667,-0.1809082,-0.9365845,0.0026245117
1602328916426,668,-0.30395508,-0.960022,-0.085510254
1602328916428,669,-0.18652344,-1.0669556,-0.015197754
1602328916432,670,0.013671875,-1.2857056,-0.03375244
1602328916432,671,-0.15112305,-0.97052,-0.13482666
1602328916436,672,-0.06518555,-0.9968872,-0.04522705
1602328916434,673,-0.10449219,-1.1314087,-0.15093994
1602328916438,674,-0.1809082,-0.9365845,0.0026245117
1602328916440,675,-0.26391602,-1.020813,0.035095215
1602328916442,676,-0.18652344,-1.0669556,-0.015197754
1602328916444,677,-0.17480469,-1.0703735,-0.023254395
1602328916446,678,0.013671875,-1.2857056,-0.03375244
1602328916448,679,-0.10449219,-1.1314087,-0.15093994
1602328916452,680,-0.26391602,-1.020813,0.035095215
1602328916450,681,-0.3112793,-0.81207275,0.21697998
1602328916456,682,-0.17480469,-1.0703735,-0.023254395
1602328916456,683,-0.23242188,-0.65216064,0.24920654
1602328916460,684,-0.3112793,-0.81207275,0.21697998
1602328916460,685,-0.30249023,-0.9631958,0.28875732
1602328916464,686,-0.38867188,-1.2468872,0.39422607
1602328916462,687,-0.23242188,-0.65216064,0.24920654
1602328916468,688,-0.3959961,-1.0474243,0.086120605
1602328916466,689,-0.30249023,-0.9631958,0.28875732
1602328916470,690,-0.13476562,-0.8008423,-0.117248535
1602328916472,691,-0.38867188,-1.2468872,0.39422607
1602328916474,692,-0.28979492,-1.0462036,0.10394287
1602328916476,693,-0.3959961,-1.0474243,0.086120605
1602328916478,694,-0.045166016,-0.92755127,-0.06036377
1602328916480,695,-0.13476562,-0.8008423,-0.117248535
1602328916482,696,-0.08959961,-0.93878174,0.0026245117
1602328916484,697,-0.28979492,-1.0462036,0.10394287
1602328916486,698,-0.1394043,-0.9819946,-0.0017700195
1602328916488,699,-0.045166016,-0.92755127,-0.06036377
1602328916490,700,0.041748047,-1.1812134,-0.004699707
1602328916492,701,-0.08959961,-0.93878174,0.0026245117
1602328916496,702,-0.1394043,-0.9819946,-0.0017700195
1602328916498,703,0.041748047,-1.1812134,-0.004699707
1602328916436,704,-0.0126953125,-1.2522583,-0.124572754
1602328918956,705,-0.0126953125,-1.2522583,-0.124572754
1602328918964,706,-0.32714844,-1.0567017,-0.04498291
1602328918972,707,-0.32714844,-1.0567017,-0.04498291
1602328918980,708,-0.17529297,-1.1362915,-0.20025635
1602328918988,709,-0.17529297,-1.1362915,-0.20025635
1602328918996,710,-0.20800781,-0.88165283,0.06121826
1602328919004,711,-0.20800781,-0.88165283,0.06121826
1602328919013,712,-0.30078125,-0.8735962,0.17669678
1602328919021,713,-0.30078125,-0.8735962,0.17669678
1602328919029,714,-0.23510742,-0.75006104,0.19891357
1602328919045,715,-0.34521484,-1.0713501,0.26434326
1602328919037,716,-0.23510742,-0.75006104,0.19891357
1602328919053,717,-0.3239746,-1.1775513,0.14105225
1602328919062,718,-0.34521484,-1.0713501,0.26434326
1602328919070,719,-0.11352539,-0.97491455,0.06903076
1602328919078,720,-0.3239746,-1.1775513,0.14105225
1602328919086,721,-0.1015625,-0.98272705,-0.09674072
1602328919102,722,-0.14941406,-0.9883423,-0.04840088
1602328919102,723,-0.11352539,-0.97491455,0.06903076
1602328919119,724,-0.12207031,-1.0110474,-0.13067627
1602328919119,725,-0.1015625,-0.98272705,-0.09674072
1602328919127,726,-0.14941406,-0.9883423,-0.04840088
1602328919135,727,-0.12207031,-1.0110474,-0.13067627
1602328919143,728,-0.2199707,-1.0352173,-0.09039307
1602328919151,729,-0.2199707,-1.0352173,-0.09039307
1602328919159,730,-0.16577148,-0.9951782,-0.11773682
1602328919168,731,-0.16577148,-0.9951782,-0.11773682
1602328919176,732,-0.17895508,-1.0059204,-0.090148926
1602328919184,733,-0.17895508,-1.0059204,-0.090148926
1602328919192,734,0.036132812,-1.1748657,-0.08428955
1602328919200,735,0.036132812,-1.1748657,-0.08428955
1602328919208,736,-0.014160156,-1.2063599,-0.11651611
1602328919217,737,-0.014160156,-1.2063599,-0.11651611
1602328919225,738,-0.15576172,-0.89263916,-0.062805176
1602328919233,739,-0.15576172,-0.89263916,-0.062805176
1602328919241,740,-0.107666016,-1.1245728,-0.13092041
1602328919249,741,-0.107666016,-1.1245728,-0.13092041
1602328919257,742,-0.16381836,-1.0650024,-0.0569458
1602328919265,743,-0.16381836,-1.0650024,-0.0569458
1602328919274,744,-0.2578125,-1.0264282,0.093444824
1602328919290,745,-0.31201172,-0.8633423,0.10223389
1602328919290,746,-0.2578125,-1.0264282,0.093444824
1602328919298,747,-0.31201172,-0.8633423,0.10223389
1602328919306,748,-0.38964844,-0.80352783,0.2699585
1602328919314,749,-0.38964844,-0.80352783,0.2699585
1602328919323,750,-0.20263672,-0.9690552,0.39666748
1602328919331,751,-0.20263672,-0.9690552,0.39666748
1602328919339,752,-0.08251953,-0.96661377,0.40570068
1602328919355,753,-0.40161133,-1.1807251,0.15106201
1602328919355,754,-0.08251953,-0.96661377,0.40570068
1602328919371,755,-0.008544922,-0.86383057,-0.11505127
1602328919371,756,-0.40161133,-1.1807251,0.15106201
1602328919388,757,-0.008544922,-0.86383057,-0.11505127
1602328919388,758,-0.25878906,-1.0786743,0.054138184
1602328919404,759,-0.25878906,-1.0786743,0.054138184
1602328919404,760,-0.17089844,-0.94659424,-0.012268066
1602328919420,761,-0.18139648,-0.97076416,-0.035705566
1602328919412,762,-0.17089844,-0.94659424,-0.012268066
1602328919437,763,-0.18139648,-0.97076416,-0.035705566
1602328919437,764,-0.1628418,-0.9475708,0.005065918
1602328919453,765,-0.03881836,-1.0254517,-0.01373291
1602328919453,766,-0.1628418,-0.9475708,0.005065918
1602328919469,767,-0.03881836,-1.0254517,-0.01373291
1602328921737,768,0.03149414,-1.1558228,0.013122559
1602328921737,769,0.03149414,-1.1558228,0.013122559
1602328921738,770,-0.0021972656,-1.2940063,-0.17706299
1602328921740,771,-0.2861328,-1.0003052,-0.24786377
1602328921742,772,-0.0021972656,-1.2940063,-0.17706299
1602328921744,773,-0.2841797,-1.0930786,-0.13360596
1602328921746,774,-0.2861328,-1.0003052,-0.24786377
1602328921748,775,-0.18188477,-0.9380493,-0.12213135
1602328921750,776,-0.2841797,-1.0930786,-0.13360596
1602328921754,777,-0.35058594,-0.9343872,0.16888428
1602328921754,778,-0.18188477,-0.9380493,-0.12213135
1602328921758,779,-0.35058594,-0.9343872,0.16888428
1602328921756,780,-0.26293945,-0.7022095,0.19940186
1602328921762,781,-0.27978516,-0.909729,0.28656006
1602328921760,782,-0.26293945,-0.7022095,0.19940186
1602328921764,783,-0.3684082,-1.0606079,0.32611084
1602328921766,784,-0.27978516,-0.909729,0.28656006
1602328921768,785,-0.37963867,-1.2749634,0.17376709
1602328921770,786,-0.3684082,-1.0606079,0.32611084
1602328921772,787,-0.059326172,-0.7737427,-0.019104004
1602328921774,788,-0.37963867,-1.2749634,0.17376709
1602328921776,789,-0.12866211,-1.0615845,-0.031799316
1602328921778,790,-0.059326172,-0.7737427,-0.019104004
1602328921780,791,-0.1875,-0.9692993,-0.0134887695
1602328921782,792,-0.12866211,-1.0615845,-0.031799316
1602328921784,793,-0.041503906,-0.94732666,-0.12896729
1602328921786,794,-0.1875,-0.9692993,-0.0134887695
1602328921788,795,-0.0925293,-0.9951782,-0.023498535
1602328921790,796,-0.041503906,-0.94732666,-0.12896729
1602328921792,797,-0.15551758,-1.055481,-0.0032348633
1602328921794,798,-0.0925293,-0.9951782,-0.023498535
1602328921796,799,-0.016113281,-1.147522,-0.019348145
1602328921800,800,-0.10839844,-1.1716919,-0.21636963
1602328921800,801,-0.15551758,-1.055481,-0.0032348633
1602328921803,802,-0.37695312,-1.0115356,0.030456543
1602328921803,803,-0.016113281,-1.147522,-0.019348145
1602328921805,804,-0.099853516,-1.1187134,-0.15924072
1602328921807,805,-0.10839844,-1.1716919,-0.21636963
1602328921809,806,-0.2578125,-0.89385986,0.12347412
1602328921811,807,-0.37695312,-1.0115356,0.030456543
1602328921813,808,-0.30981445,-0.8335571,0.17913818
1602328921815,809,-0.099853516,-1.1187134,-0.15924072
1602328921817,810,-0.22460938,-0.82281494,0.17376709
1602328921821,811,-0.2578125,-0.89385986,0.12347412
1602328921821,812,-0.32104492,-1.0762329,0.2579956
1602328921823,813,-0.30981445,-0.8335571,0.17913818
1602328921825,814,-0.28833008,-1.1101685,0.23724365
1602328921829,815,-0.26293945,-1.010315,0.15765381
1602328921827,816,-0.22460938,-0.82281494,0.17376709
1602328921831,817,-0.09814453,-0.95440674,0.15350342
1602328921833,818,-0.32104492,-1.0762329,0.2579956
1602328921835,819,-0.11694336,-1.0610962,-0.011047363
1602328921837,820,-0.28833008,-1.1101685,0.23724365
1602328921839,821,-0.08544922,-1.0730591,-0.0947876
1602328921841,822,-0.26293945,-1.010315,0.15765381
1602328921845,823,-0.09814453,-0.95440674,0.15350342
1602328921843,824,-0.014160156,-1.046936,-0.14459229
1602328921849,825,0.047851562,-0.9871216,-0.21807861
1602328921847,826,-0.11694336,-1.0610962,-0.011047363
1602328921851,827,-0.03466797,-0.9451294,-0.30255127
1602328921853,828,-0.08544922,-1.0730591,-0.0947876
1602328921857,829,-0.014160156,-1.046936,-0.14459229
1602328921859,830,0.047851562,-0.9871216,-0.21807861
1602328921861,831,-0.03466797,-0.9451294,-0.30255127
