# Sensor position: Wrist
# Sensor side: Left
# Activity type: Movement
# Activity code: 9
# Subject id: s1642301
timestamp,seq,accel_x,accel_y,accel_z
1602330339188,0,1.126709,-0.33721924,-0.19073486
1602330339054,1,1.126709,-0.33721924,-0.19073486
1602330339054,2,1.0437012,-0.364563,-0.13653564
1602330336668,3,1.126709,-0.33721924,-0.19073486
1602330339054,4,1.0437012,-0.364563,-0.13653564
1602330339054,5,1.0437012,-0.364563,-0.13653564
1602330339054,6,0.95336914,-0.46270752,-0.19561768
1602330339054,7,0.95336914,-0.46270752,-0.19561768
1602330339054,8,0.80566406,-0.4649048,-0.25787354
1602330339054,9,0.80566406,-0.4649048,-0.25787354
1602330339054,10,0.7583008,-0.36724854,-0.13726807
1602330339054,11,0.95336914,-0.46270752,-0.19561768
1602330339054,12,0.7583008,-0.36724854,-0.13726807
1602330339054,13,0.83618164,-0.68927,-0.12237549
1602330339054,14,0.80566406,-0.4649048,-0.25787354
1602330339054,15,0.83618164,-0.68927,-0.12237549
1602330339054,16,0.7583008,-0.36724854,-0.13726807
1602330339054,17,0.8391113,-0.64678955,-0.12799072
1602330339054,18,0.8391113,-0.64678955,-0.12799072
1602330339054,19,0.83618164,-0.68927,-0.12237549
1602330339054,20,0.83203125,-0.45318604,-0.09454346
1602330339054,21,0.83203125,-0.45318604,-0.09454346
1602330339054,22,0.8391113,-0.64678955,-0.12799072
1602330339054,23,0.8171387,-0.39971924,-0.10040283
1602330339054,24,0.83203125,-0.45318604,-0.09454346
1602330339054,25,0.8171387,-0.39971924,-0.10040283
1602330339054,26,0.8171387,-0.39971924,-0.10040283
1602330339054,27,0.9033203,-0.36187744,-0.07232666
1602330339054,28,0.9033203,-0.36187744,-0.07232666
1602330339054,29,1.0324707,-0.16241455,0.07977295
1602330339054,30,0.9033203,-0.36187744,-0.07232666
1602330339054,31,1.0324707,-0.16241455,0.07977295
1602330339054,32,1.0324707,-0.16241455,0.07977295
1602330339054,33,1.0,-0.2559204,0.062194824
1602330339055,34,1.0,-0.2559204,0.062194824
1602330339055,35,1.0,-0.2559204,0.062194824
1602330339055,36,1.0192871,-0.26470947,-0.023498535
1602330339055,37,1.0192871,-0.26470947,-0.023498535
1602330339055,38,1.0192871,-0.26470947,-0.023498535
1602330339055,39,0.9489746,-0.32330322,-0.02935791
1602330339055,40,0.9489746,-0.32330322,-0.02935791
1602330339055,41,0.84155273,-0.15826416,-0.02178955
1602330339055,42,0.84155273,-0.15826416,-0.02178955
1602330339055,43,0.9489746,-0.32330322,-0.02935791
1602330339055,44,0.8527832,-0.12310791,-0.03765869
1602330339055,45,0.84155273,-0.15826416,-0.02178955
1602330339055,46,0.9008789,-0.18463135,-0.04522705
1602330339055,47,0.8527832,-0.12310791,-0.03765869
1602330339055,48,0.8527832,-0.12310791,-0.03765869
1602330339055,49,0.9008789,-0.18463135,-0.04522705
1602330339055,50,0.9436035,-0.24761963,0.017028809
1602330339055,51,0.9008789,-0.18463135,-0.04522705
1602330339055,52,0.9436035,-0.24761963,0.017028809
1602330339055,53,0.9812012,-0.34820557,-0.003967285
1602330339055,54,0.9436035,-0.24761963,0.017028809
1602330339055,55,1.2944336,-0.19537354,0.0099487305
1602330339055,56,0.9812012,-0.34820557,-0.003967285
1602330339055,57,0.9812012,-0.34820557,-0.003967285
1602330339055,58,1.0134277,-0.18585205,-0.0064086914
1602330339055,59,1.2944336,-0.19537354,0.0099487305
1602330339055,60,0.7866211,-0.10479736,0.011657715
1602330339055,61,1.0134277,-0.18585205,-0.0064086914
1602330339055,62,1.2944336,-0.19537354,0.0099487305
1602330339055,63,0.7866211,-0.10479736,0.011657715
1602330339055,64,1.0334473,-0.13238525,-0.089660645
1602330339055,65,1.0134277,-0.18585205,-0.0064086914
1602330339056,66,0.7866211,-0.10479736,0.011657715
1602330339056,67,0.9394531,-0.07720947,-0.1338501
1602330339056,68,1.0334473,-0.13238525,-0.089660645
1602330339056,69,1.0334473,-0.13238525,-0.089660645
1602330339056,70,0.9394531,-0.07720947,-0.1338501
1602330339056,71,0.9394531,-0.07720947,-0.1338501
1602330339056,72,0.828125,-0.109680176,-0.11407471
1602330339056,73,0.828125,-0.109680176,-0.11407471
1602330339056,74,0.828125,-0.109680176,-0.11407471
1602330339056,75,0.85302734,-0.16119385,-0.12994385
1602330339056,76,0.85302734,-0.16119385,-0.12994385
1602330339056,77,0.94873047,-0.023742676,-0.12945557
1602330339056,78,0.85302734,-0.16119385,-0.12994385
1602330339056,79,0.94873047,-0.023742676,-0.12945557
1602330339056,80,1.1633301,0.042175293,-0.17974854
1602330339056,81,1.1115723,-0.101135254,-0.04864502
1602330339056,82,1.1633301,0.042175293,-0.17974854
1602330339056,83,0.94873047,-0.023742676,-0.12945557
1602330339056,84,1.1115723,-0.101135254,-0.04864502
1602330339056,85,0.8918457,-0.011779785,-0.07647705
1602330339056,86,1.1633301,0.042175293,-0.17974854
1602330339056,87,1.1115723,-0.101135254,-0.04864502
1602330339056,88,0.8918457,-0.011779785,-0.07647705
1602330339056,89,1.0012207,-0.009094238,-0.17193604
1602330339056,90,1.0012207,-0.009094238,-0.17193604
1602330339056,91,0.8918457,-0.011779785,-0.07647705
1602330339056,92,0.80493164,-0.20245361,-0.17877197
1602330339056,93,0.80493164,-0.20245361,-0.17877197
1602330339056,94,1.0012207,-0.009094238,-0.17193604
1602330339056,95,0.80493164,-0.20245361,-0.17877197
1602330339055,96,0.8232422,-0.23052979,-0.11383057
1602330341638,97,0.8232422,-0.23052979,-0.11383057
1602330341575,98,0.8232422,-0.23052979,-0.11383057
1602330341638,99,0.9094238,-0.2156372,-0.019348145
1602330341638,100,0.9094238,-0.2156372,-0.019348145
1602330341638,101,1.1335449,-0.34210205,0.11224365
1602330341638,102,1.1335449,-0.34210205,0.11224365
1602330341638,103,0.9094238,-0.2156372,-0.019348145
1602330341638,104,1.326416,-0.24078369,0.18939209
1602330341638,105,1.326416,-0.24078369,0.18939209
1602330341638,106,1.0083008,-0.12237549,0.11199951
1602330341638,107,1.1335449,-0.34210205,0.11224365
1602330341638,108,1.0083008,-0.12237549,0.11199951
1602330341638,109,1.326416,-0.24078369,0.18939209
1602330341638,110,1.2487793,-0.051574707,-0.09185791
1602330341638,111,1.2487793,-0.051574707,-0.09185791
1602330341638,112,1.0068359,-0.034729004,-0.1651001
1602330341638,113,1.0083008,-0.12237549,0.11199951
1602330341638,114,1.0068359,-0.034729004,-0.1651001
1602330341638,115,0.80493164,-0.07550049,-0.17901611
1602330341638,116,0.7602539,-0.042541504,-0.18756104
1602330341638,117,1.2487793,-0.051574707,-0.09185791
1602330341638,118,0.80493164,-0.07550049,-0.17901611
1602330341638,119,0.8417969,0.0060424805,-0.20050049
1602330341638,120,1.0068359,-0.034729004,-0.1651001
1602330341638,121,0.7602539,-0.042541504,-0.18756104
1602330341638,122,0.8417969,0.0060424805,-0.20050049
1602330341638,123,1.0349121,-0.012023926,-0.21807861
1602330341638,124,0.80493164,-0.07550049,-0.17901611
1602330341638,125,1.2226562,-0.09259033,0.018493652
1602330341638,126,1.0349121,-0.012023926,-0.21807861
1602330341638,127,0.7602539,-0.042541504,-0.18756104
1602330341638,128,0.8417969,0.0060424805,-0.20050049
1602330341638,129,1.2226562,-0.09259033,0.018493652
1602330341639,130,0.9567871,0.14105225,0.17352295
1602330341639,131,1.0349121,-0.012023926,-0.21807861
1602330341639,132,1.2004395,0.054382324,-0.08282471
1602330341639,133,1.2226562,-0.09259033,0.018493652
1602330341639,134,0.9567871,0.14105225,0.17352295
1602330341639,135,0.9567871,0.14105225,0.17352295
1602330341639,136,0.93530273,-0.29083252,-0.19439697
1602330341639,137,1.2004395,0.054382324,-0.08282471
1602330341639,138,0.93530273,-0.29083252,-0.19439697
1602330341639,139,0.84594727,-0.30181885,-0.14801025
1602330341639,140,0.84594727,-0.30181885,-0.14801025
1602330341639,141,0.8581543,-0.20513916,-0.06427002
1602330341639,142,0.8581543,-0.20513916,-0.06427002
1602330341639,143,0.9555664,-0.3279419,0.034851074
1602330341639,144,1.2004395,0.054382324,-0.08282471
1602330341639,145,0.9555664,-0.3279419,0.034851074
1602330341639,146,1.2658691,-0.30059814,0.13787842
1602330341639,147,1.2658691,-0.30059814,0.13787842
1602330341639,148,1.125,-0.16143799,0.18841553
1602330341639,149,1.125,-0.16143799,0.18841553
1602330341639,150,0.93530273,-0.29083252,-0.19439697
1602330341639,151,1.2277832,-0.018859863,0.030700684
1602330341639,152,1.2277832,-0.018859863,0.030700684
1602330341639,153,0.84594727,-0.30181885,-0.14801025
1602330341639,154,0.8581543,-0.20513916,-0.06427002
1602330341639,155,1.267334,0.06048584,-0.16558838
1602330341639,156,0.9555664,-0.3279419,0.034851074
1602330341639,157,1.267334,0.06048584,-0.16558838
1602330341639,158,0.98950195,-0.024475098,-0.21051025
1602330341639,159,1.2658691,-0.30059814,0.13787842
1602330341639,160,0.98950195,-0.024475098,-0.21051025
1602330341640,161,1.125,-0.16143799,0.18841553
1602330341639,162,0.8664551,-0.06866455,-0.19805908
1602330341640,163,0.8664551,-0.06866455,-0.19805908
1602330341640,164,0.7495117,0.010925293,-0.11505127
1602330341640,165,0.7495117,0.010925293,-0.11505127
1602330341640,166,1.2277832,-0.018859863,0.030700684
1602330341640,167,0.6694336,0.06561279,-0.06500244
1602330341640,168,0.6694336,0.06561279,-0.06500244
1602330341640,169,1.267334,0.06048584,-0.16558838
1602330341640,170,0.8935547,0.062438965,-0.08331299
1602330341640,171,0.98950195,-0.024475098,-0.21051025
1602330341640,172,1.6635742,0.07342529,-0.15142822
1602330341640,173,0.8935547,0.062438965,-0.08331299
1602330341640,174,0.8664551,-0.06866455,-0.19805908
1602330341640,175,1.4904785,-0.07745361,-0.10064697
1602330341640,176,1.6635742,0.07342529,-0.15142822
1602330341640,177,0.7495117,0.010925293,-0.11505127
1602330341640,178,1.1828613,-0.13995361,-0.30645752
1602330341640,179,0.6694336,0.06561279,-0.06500244
1602330341640,180,1.0236816,-0.0725708,-0.55963135
1602330341640,181,0.8935547,0.062438965,-0.08331299
1602330341640,182,1.4904785,-0.07745361,-0.10064697
1602330341640,183,0.8137207,-0.06060791,-0.53302
1602330341640,184,1.1828613,-0.13995361,-0.30645752
1602330341640,185,1.6635742,0.07342529,-0.15142822
1602330341640,186,1.0236816,-0.0725708,-0.55963135
1602330341640,187,1.4904785,-0.07745361,-0.10064697
1602330341640,188,0.8137207,-0.06060791,-0.53302
1602330341640,189,1.1828613,-0.13995361,-0.30645752
1602330341640,190,1.0236816,-0.0725708,-0.55963135
1602330341640,191,0.8137207,-0.06060791,-0.53302
1602330341639,192,0.77441406,-0.19146729,-0.31402588
1602330344159,193,0.77441406,-0.19146729,-0.31402588
1602330344222,194,0.77441406,-0.19146729,-0.31402588
1602330344222,195,0.7714844,-0.08868408,-0.09210205
1602330344222,196,0.7714844,-0.08868408,-0.09210205
1602330344222,197,0.9169922,0.059265137,-0.008117676
1602330344222,198,0.7714844,-0.08868408,-0.09210205
1602330344222,199,1.1640625,-0.059387207,-0.03277588
1602330344222,200,0.9169922,0.059265137,-0.008117676
1602330344222,201,0.9169922,0.059265137,-0.008117676
1602330344222,202,1.1760254,-0.2053833,-0.04473877
1602330344222,203,1.1640625,-0.059387207,-0.03277588
1602330344222,204,1.1640625,-0.059387207,-0.03277588
1602330344222,205,1.3078613,-0.29986572,-0.031799316
1602330344222,206,1.1760254,-0.2053833,-0.04473877
1602330344222,207,0.86816406,-0.33258057,0.04827881
1602330344222,208,1.3078613,-0.29986572,-0.031799316
1602330344222,209,1.1760254,-0.2053833,-0.04473877
1602330344222,210,0.86816406,-0.33258057,0.04827881
1602330344222,211,1.3078613,-0.29986572,-0.031799316
1602330344222,212,0.9692383,-0.270813,0.026550293
1602330344222,213,0.9692383,-0.270813,0.026550293
1602330344222,214,0.86816406,-0.33258057,0.04827881
1602330344222,215,1.1501465,-0.1026001,-0.061584473
1602330344222,216,0.9692383,-0.270813,0.026550293
1602330344222,217,1.1201172,-0.10308838,-0.11773682
1602330344222,218,1.1501465,-0.1026001,-0.061584473
1602330344222,219,1.1501465,-0.1026001,-0.061584473
1602330344222,220,1.0378418,-0.04425049,-0.12237549
1602330344222,221,1.1201172,-0.10308838,-0.11773682
1602330344222,222,1.1201172,-0.10308838,-0.11773682
1602330344222,223,0.9309082,0.020935059,-0.07940674
1602330344222,224,1.0378418,-0.04425049,-0.12237549
1602330344222,225,1.0378418,-0.04425049,-0.12237549
1602330344222,226,0.8405762,0.05633545,-0.042297363
1602330344222,227,0.85839844,0.025817871,-0.016174316
1602330344222,228,0.9309082,0.020935059,-0.07940674
1602330344222,229,0.9309082,0.020935059,-0.07940674
1602330344222,230,1.095459,0.029724121,-0.078186035
1602330344222,231,0.8405762,0.05633545,-0.042297363
1602330344222,232,1.2468262,-0.06866455,-0.06500244
1602330344222,233,0.85839844,0.025817871,-0.016174316
1602330344222,234,0.8405762,0.05633545,-0.042297363
1602330344222,235,1.0136719,-0.18560791,-0.074279785
1602330344222,236,1.0344238,-0.10308838,-0.19927979
1602330344222,237,0.85839844,0.025817871,-0.016174316
1602330344222,238,1.095459,0.029724121,-0.078186035
1602330344222,239,0.86499023,-0.14898682,-0.20196533
1602330344222,240,1.095459,0.029724121,-0.078186035
1602330344222,241,0.7636719,-0.14508057,-0.117248535
1602330344222,242,1.2468262,-0.06866455,-0.06500244
1602330344222,243,1.2468262,-0.06866455,-0.06500244
1602330344222,244,1.0136719,-0.18560791,-0.074279785
1602330344222,245,0.8078613,-0.046203613,0.07366943
1602330344222,246,1.0136719,-0.18560791,-0.074279785
1602330344222,247,1.0344238,-0.10308838,-0.19927979
1602330344222,248,1.0344238,-0.10308838,-0.19927979
1602330344222,249,0.8913574,0.03363037,0.3463745
1602330344222,250,0.86499023,-0.14898682,-0.20196533
1602330344222,251,0.86499023,-0.14898682,-0.20196533
1602330344222,252,0.98657227,0.0014038086,0.31243896
1602330344222,253,0.7636719,-0.14508057,-0.117248535
1602330344222,254,0.8078613,-0.046203613,0.07366943
1602330344222,255,1.394043,-0.053527832,0.12005615
1602330344222,256,0.8913574,0.03363037,0.3463745
1602330344222,257,0.7636719,-0.14508057,-0.117248535
1602330344222,258,1.0620117,-0.22467041,0.031188965
1602330344222,259,0.8078613,-0.046203613,0.07366943
1602330344222,260,0.9387207,-0.16851807,-0.09112549
1602330344222,261,0.98657227,0.0014038086,0.31243896
1602330344222,262,1.0749512,-0.06695557,-0.22076416
1602330344222,263,0.8913574,0.03363037,0.3463745
1602330344222,264,1.394043,-0.053527832,0.12005615
1602330344222,265,0.8564453,-0.08868408,-0.23175049
1602330344222,266,0.98657227,0.0014038086,0.31243896
1602330344222,267,1.0620117,-0.22467041,0.031188965
1602330344222,268,1.394043,-0.053527832,0.12005615
1602330344222,269,0.8154297,-0.08013916,-0.20440674
1602330344222,270,1.0620117,-0.22467041,0.031188965
1602330344222,271,0.9387207,-0.16851807,-0.09112549
1602330344222,272,0.8474121,-0.0115356445,-0.17755127
1602330344222,273,1.0749512,-0.06695557,-0.22076416
1602330344222,274,0.92944336,0.005065918,-0.09649658
1602330344222,275,0.9387207,-0.16851807,-0.09112549
1602330344222,276,0.8564453,-0.08868408,-0.23175049
1602330344222,277,1.0749512,-0.06695557,-0.22076416
1602330344222,278,1.1044922,0.02142334,0.1461792
1602330344222,279,0.8564453,-0.08868408,-0.23175049
1602330344222,280,0.8154297,-0.08013916,-0.20440674
1602330344222,281,0.8474121,-0.0115356445,-0.17755127
1602330344222,282,0.8154297,-0.08013916,-0.20440674
1602330344222,283,0.92944336,0.005065918,-0.09649658
1602330344222,284,0.8474121,-0.0115356445,-0.17755127
1602330344222,285,1.1044922,0.02142334,0.1461792
1602330344222,286,0.92944336,0.005065918,-0.09649658
1602330344222,287,1.1044922,0.02142334,0.1461792
1602330346742,288,1.2819824,0.19085693,0.33685303
1602330344222,289,1.2819824,0.19085693,0.33685303
1602330346806,290,1.2819824,0.19085693,0.33685303
1602330346806,291,0.97753906,-0.019836426,0.082214355
1602330346806,292,0.97753906,-0.019836426,0.082214355
1602330346806,293,1.0361328,-0.06939697,-0.10723877
1602330346806,294,0.97753906,-0.019836426,0.082214355
1602330346806,295,1.0361328,-0.06939697,-0.10723877
1602330346806,296,1.0361328,-0.06939697,-0.10723877
1602330346806,297,0.94018555,-0.12164307,-0.21490479
1602330346806,298,0.94018555,-0.12164307,-0.21490479
1602330346806,299,0.7800293,-0.22589111,-0.18707275
1602330346806,300,0.94018555,-0.12164307,-0.21490479
1602330346806,301,0.84375,-0.14263916,-0.11407471
1602330346806,302,0.7800293,-0.22589111,-0.18707275
1602330346806,303,0.7800293,-0.22589111,-0.18707275
1602330346806,304,0.84375,-0.14263916,-0.11407471
1602330346806,305,0.9160156,-0.11236572,0.08856201
1602330346806,306,0.84375,-0.14263916,-0.11407471
1602330346806,307,0.9160156,-0.11236572,0.08856201
1602330346806,308,0.9160156,-0.11236572,0.08856201
1602330346806,309,1.0358887,-0.10479736,0.24603271
1602330346806,310,1.0358887,-0.10479736,0.24603271
1602330346806,311,1.0358887,-0.10479736,0.24603271
1602330346806,312,1.2492676,0.05340576,0.25506592
1602330346806,313,1.2492676,0.05340576,0.25506592
1602330346806,314,1.098877,-0.06817627,0.12689209
1602330346806,315,1.098877,-0.06817627,0.12689209
1602330346806,316,0.798584,-0.12799072,0.001159668
1602330346806,317,1.2492676,0.05340576,0.25506592
1602330346806,318,1.098877,-0.06817627,0.12689209
1602330346806,319,1.1174316,-0.038879395,-0.16290283
1602330346806,320,0.798584,-0.12799072,0.001159668
1602330346807,321,0.89697266,-0.0869751,-0.28009033
1602330346807,322,0.798584,-0.12799072,0.001159668
1602330346807,323,0.796875,-0.17706299,-0.25201416
1602330346807,324,1.1174316,-0.038879395,-0.16290283
1602330346807,325,1.1174316,-0.038879395,-0.16290283
1602330346807,326,0.8745117,-0.10845947,-0.23980713
1602330346807,327,0.89697266,-0.0869751,-0.28009033
1602330346807,328,0.89697266,-0.0869751,-0.28009033
1602330346807,329,0.796875,-0.17706299,-0.25201416
1602330346807,330,0.94311523,0.0079956055,-0.14654541
1602330346807,331,0.796875,-0.17706299,-0.25201416
1602330346807,332,1.0339355,-0.011779785,-0.03302002
1602330346807,333,0.8745117,-0.10845947,-0.23980713
1602330346807,334,0.8745117,-0.10845947,-0.23980713
1602330346807,335,0.94311523,0.0079956055,-0.14654541
1602330346807,336,0.94311523,0.0079956055,-0.14654541
1602330346807,337,1.0339355,-0.011779785,-0.03302002
1602330346807,338,1.0339355,-0.011779785,-0.03302002
1602330346807,339,1.1320801,0.034118652,0.137146
1602330346807,340,1.1320801,0.034118652,0.137146
1602330346807,341,1.1320801,0.034118652,0.137146
1602330346807,342,0.96313477,0.16644287,0.10662842
1602330346807,343,0.96313477,0.16644287,0.10662842
1602330346807,344,0.9968262,0.042419434,-0.109436035
1602330346807,345,0.9968262,0.042419434,-0.109436035
1602330346807,346,0.96313477,0.16644287,0.10662842
1602330346807,347,1.043457,-0.10406494,-0.30499268
1602330346807,348,1.043457,-0.10406494,-0.30499268
1602330346807,349,0.9968262,0.042419434,-0.109436035
1602330346807,350,0.9243164,-0.16143799,-0.28790283
1602330346807,351,1.043457,-0.10406494,-0.30499268
1602330346807,352,0.9243164,-0.16143799,-0.28790283
1602330346808,353,0.9243164,-0.16143799,-0.28790283
1602330346807,354,0.8833008,-0.10455322,-0.21173096
1602330346808,355,0.8833008,-0.10455322,-0.21173096
1602330346808,356,0.9016113,-0.038879395,-0.13897705
1602330346808,357,0.8833008,-0.10455322,-0.21173096
1602330346808,358,0.9016113,-0.038879395,-0.13897705
1602330346808,359,0.9626465,-0.06085205,-0.12017822
1602330346808,360,0.9016113,-0.038879395,-0.13897705
1602330346808,361,0.9626465,-0.06085205,-0.12017822
1602330346808,362,0.97143555,-0.09552002,-0.08770752
1602330346808,363,1.0031738,-0.08258057,-0.09259033
1602330346808,364,0.97143555,-0.09552002,-0.08770752
1602330346808,365,1.0251465,-0.13165283,-0.09210205
1602330346808,366,0.9626465,-0.06085205,-0.12017822
1602330346808,367,0.92626953,-0.16485596,-0.014465332
1602330346808,368,1.0031738,-0.08258057,-0.09259033
1602330346808,369,0.97143555,-0.09552002,-0.08770752
1602330346808,370,1.0031738,-0.08258057,-0.09259033
1602330346808,371,0.9577637,-0.11773682,-0.005432129
1602330346808,372,1.0251465,-0.13165283,-0.09210205
1602330346808,373,1.0251465,-0.13165283,-0.09210205
1602330346808,374,1.0266113,-0.13800049,0.031677246
1602330346808,375,0.92626953,-0.16485596,-0.014465332
1602330346808,376,0.92626953,-0.16485596,-0.014465332
1602330346808,377,0.9577637,-0.11773682,-0.005432129
1602330346808,378,0.9577637,-0.11773682,-0.005432129
1602330346808,379,1.0266113,-0.13800049,0.031677246
1602330346808,380,0.9863281,-0.09625244,0.1251831
1602330346808,381,1.0266113,-0.13800049,0.031677246
1602330346808,382,0.9863281,-0.09625244,0.1251831
1602330346808,383,0.9863281,-0.09625244,0.1251831
1602330346807,384,0.9284668,-0.039611816,0.12298584
1602330349327,385,0.9284668,-0.039611816,0.12298584
1602330349389,386,0.9284668,-0.039611816,0.12298584
1602330349389,387,0.92041016,-0.015686035,0.002380371
1602330349389,388,0.92041016,-0.015686035,0.002380371
1602330349389,389,0.92041016,-0.015686035,0.002380371
1602330349389,390,0.9550781,-0.022521973,-0.14654541
1602330349389,391,0.9550781,-0.022521973,-0.14654541
1602330349389,392,0.9550781,-0.022521973,-0.14654541
1602330349389,393,0.9111328,-0.066711426,-0.19049072
1602330349389,394,0.9111328,-0.066711426,-0.19049072
1602330349389,395,0.9111328,-0.066711426,-0.19049072
1602330349389,396,0.84765625,-0.09625244,-0.13116455
1602330349389,397,0.84765625,-0.09625244,-0.13116455
1602330349389,398,0.90356445,-0.09942627,-0.06768799
1602330349389,399,0.90356445,-0.09942627,-0.06768799
1602330349389,400,1.0092773,-0.10333252,1.8310547E-4
1602330349389,401,0.84765625,-0.09625244,-0.13116455
1602330349389,402,1.0092773,-0.10333252,1.8310547E-4
1602330349389,403,1.026123,-0.12432861,0.050720215
1602330349389,404,1.0112305,-0.1116333,0.02947998
1602330349389,405,0.90356445,-0.09942627,-0.06768799
1602330349389,406,1.026123,-0.12432861,0.050720215
1602330349389,407,0.9638672,-0.116760254,-0.0178833
1602330349389,408,1.0112305,-0.1116333,0.02947998
1602330349389,409,1.0092773,-0.10333252,1.8310547E-4
1602330349389,410,0.9638672,-0.116760254,-0.0178833
1602330349389,411,0.9902344,-0.1338501,-0.05328369
1602330349389,412,0.9902344,-0.1338501,-0.05328369
1602330349389,413,1.026123,-0.12432861,0.050720215
1602330349389,414,0.90844727,-0.08795166,-0.042541504
1602330349389,415,0.90844727,-0.08795166,-0.042541504
1602330349389,416,0.99194336,-0.051086426,-0.047912598
1602330349390,417,0.99194336,-0.051086426,-0.047912598
1602330349390,418,0.9992676,-0.023010254,0.03314209
1602330349389,419,1.0112305,-0.1116333,0.02947998
1602330349390,420,0.8256836,0.049987793,0.11175537
1602330349390,421,0.9992676,-0.023010254,0.03314209
1602330349390,422,0.9638672,-0.116760254,-0.0178833
1602330349390,423,0.8256836,0.049987793,0.11175537
1602330349390,424,0.8388672,0.012145996,0.06854248
1602330349390,425,0.9902344,-0.1338501,-0.05328369
1602330349390,426,0.8388672,0.012145996,0.06854248
1602330349390,427,0.9338379,-0.10040283,0.057800293
1602330349390,428,0.9338379,-0.10040283,0.057800293
1602330349390,429,1.013916,-0.13311768,0.08270264
1602330349390,430,1.013916,-0.13311768,0.08270264
1602330349390,431,0.90844727,-0.08795166,-0.042541504
1602330349390,432,1.0888672,-0.14605713,0.054138184
1602330349390,433,1.0888672,-0.14605713,0.054138184
1602330349390,434,1.1340332,-0.1638794,-0.03668213
1602330349390,435,0.99194336,-0.051086426,-0.047912598
1602330349390,436,1.1340332,-0.1638794,-0.03668213
1602330349390,437,0.9992676,-0.023010254,0.03314209
1602330349390,438,0.9506836,-0.1416626,-0.07867432
1602330349390,439,0.9506836,-0.1416626,-0.07867432
1602330349390,440,0.8256836,0.049987793,0.11175537
1602330349390,441,0.9951172,-0.05255127,-0.121154785
1602330349390,442,0.9951172,-0.05255127,-0.121154785
1602330349390,443,0.8388672,0.012145996,0.06854248
1602330349390,444,0.9394531,0.012145996,-0.17340088
1602330349390,445,0.9338379,-0.10040283,0.057800293
1602330349390,446,0.9394531,0.012145996,-0.17340088
1602330349390,447,0.80444336,-0.03375244,-0.16119385
1602330349390,448,0.80444336,-0.03375244,-0.16119385
1602330349390,449,1.013916,-0.13311768,0.08270264
1602330349391,450,0.82177734,-0.050598145,-0.089416504
1602330349391,451,1.0888672,-0.14605713,0.054138184
1602330349391,452,0.82177734,-0.050598145,-0.089416504
1602330349391,453,0.88720703,-0.047424316,-0.036193848
1602330349391,454,1.1340332,-0.1638794,-0.03668213
1602330349391,455,0.9658203,-0.12384033,-0.025939941
1602330349391,456,0.9506836,-0.1416626,-0.07867432
1602330349391,457,1.0390625,-0.1326294,-0.020080566
1602330349391,458,0.9951172,-0.05255127,-0.121154785
1602330349391,459,0.88720703,-0.047424316,-0.036193848
1602330349391,460,1.2614746,-0.109191895,-0.0713501
1602330349391,461,0.9658203,-0.12384033,-0.025939941
1602330349391,462,0.9394531,0.012145996,-0.17340088
1602330349391,463,1.0390625,-0.1326294,-0.020080566
1602330349391,464,1.0256348,-0.15435791,-0.035949707
1602330349391,465,1.2614746,-0.109191895,-0.0713501
1602330349391,466,0.80444336,-0.03375244,-0.16119385
1602330349391,467,1.0256348,-0.15435791,-0.035949707
1602330349391,468,0.82177734,-0.050598145,-0.089416504
1602330349391,469,0.88720703,-0.047424316,-0.036193848
1602330349391,470,0.89086914,-0.09991455,-0.12310791
1602330349391,471,0.89086914,-0.09991455,-0.12310791
1602330349391,472,0.9658203,-0.12384033,-0.025939941
1602330349391,473,0.93896484,-0.025939941,-0.22467041
1602330349391,474,1.0390625,-0.1326294,-0.020080566
1602330349391,475,1.2614746,-0.109191895,-0.0713501
1602330349391,476,0.93896484,-0.025939941,-0.22467041
1602330349391,477,1.0256348,-0.15435791,-0.035949707
1602330349391,478,0.89086914,-0.09991455,-0.12310791
1602330349391,479,0.93896484,-0.025939941,-0.22467041
1602330351910,480,0.8605957,-0.16729736,-0.0803833
1602330351973,481,0.8605957,-0.16729736,-0.0803833
1602330349390,482,0.8605957,-0.16729736,-0.0803833
1602330351973,483,0.79296875,-0.049865723,0.070007324
1602330351973,484,0.79296875,-0.049865723,0.070007324
1602330351973,485,0.79296875,-0.049865723,0.070007324
1602330351973,486,0.8378906,0.10443115,0.17596436
1602330351973,487,0.8378906,0.10443115,0.17596436
1602330351973,488,0.9838867,-0.17486572,0.085632324
1602330351973,489,0.8378906,0.10443115,0.17596436
1602330351973,490,0.9838867,-0.17486572,0.085632324
1602330351973,491,0.9838867,-0.17486572,0.085632324
1602330351973,492,1.0786133,-0.15411377,0.09075928
1602330351973,493,1.0786133,-0.15411377,0.09075928
1602330351973,494,1.0786133,-0.15411377,0.09075928
1602330351973,495,1.2990723,-0.1572876,0.07489014
1602330351973,496,1.2990723,-0.1572876,0.07489014
1602330351973,497,1.2990723,-0.1572876,0.07489014
1602330351973,498,0.99560547,-0.20855713,0.07293701
1602330351973,499,0.99560547,-0.20855713,0.07293701
1602330351973,500,0.99560547,-0.20855713,0.07293701
1602330351973,501,0.89160156,-0.1482544,-0.05279541
1602330351973,502,0.89160156,-0.1482544,-0.05279541
1602330351973,503,0.89160156,-0.1482544,-0.05279541
1602330351973,504,1.0388184,-0.031799316,-0.19976807
1602330351973,505,1.0388184,-0.031799316,-0.19976807
1602330351973,506,0.82006836,-0.08746338,-0.22418213
1602330351973,507,1.0388184,-0.031799316,-0.19976807
1602330351973,508,0.83618164,-0.13360596,-0.17926025
1602330351973,509,0.82006836,-0.08746338,-0.22418213
1602330351973,510,0.8798828,-0.01373291,-0.14898682
1602330351973,511,0.83618164,-0.13360596,-0.17926025
1602330351973,512,0.82006836,-0.08746338,-0.22418213
1602330351973,513,0.83618164,-0.13360596,-0.17926025
1602330351973,514,0.8798828,-0.01373291,-0.14898682
1602330351973,515,0.9350586,0.02166748,-0.117248535
1602330351973,516,1.1425781,-0.018127441,-0.08111572
1602330351973,517,0.9350586,0.02166748,-0.117248535
1602330351973,518,1.0480957,-0.049865723,0.11541748
1602330351973,519,1.1425781,-0.018127441,-0.08111572
1602330351973,520,0.8798828,-0.01373291,-0.14898682
1602330351973,521,1.0480957,-0.049865723,0.11541748
1602330351973,522,0.9160156,0.051940918,0.050231934
1602330351973,523,0.9350586,0.02166748,-0.117248535
1602330351973,524,0.9160156,0.051940918,0.050231934
1602330351973,525,1.0649414,-0.038879395,-0.11553955
1602330351973,526,1.1425781,-0.018127441,-0.08111572
1602330351973,527,1.0649414,-0.038879395,-0.11553955
1602330351973,528,0.8334961,-0.20733643,-0.10479736
1602330351973,529,1.0480957,-0.049865723,0.11541748
1602330351973,530,0.9160156,0.051940918,0.050231934
1602330351973,531,0.8330078,-0.105529785,-0.055725098
1602330351973,532,0.8334961,-0.20733643,-0.10479736
1602330351973,533,1.0649414,-0.038879395,-0.11553955
1602330351973,534,0.89990234,-0.12213135,0.003112793
1602330351973,535,0.8330078,-0.105529785,-0.055725098
1602330351973,536,0.8334961,-0.20733643,-0.10479736
1602330351973,537,1.0249023,-0.18609619,0.06536865
1602330351973,538,0.89990234,-0.12213135,0.003112793
1602330351973,539,1.2580566,-0.09576416,0.050231934
1602330351973,540,0.8330078,-0.105529785,-0.055725098
1602330351973,541,1.0249023,-0.18609619,0.06536865
1602330351973,542,0.95581055,-0.1350708,0.048034668
1602330351973,543,1.2580566,-0.09576416,0.050231934
1602330351973,544,0.99658203,-0.04058838,-0.09552002
1602330351973,545,0.95581055,-0.1350708,0.048034668
1602330351973,546,1.0305176,0.0048217773,-0.270813
1602330351973,547,0.99658203,-0.04058838,-0.09552002
1602330351973,548,0.8601074,-0.06549072,-0.29205322
1602330351973,549,1.0305176,0.0048217773,-0.270813
1602330351973,550,0.89990234,-0.12213135,0.003112793
1602330351973,551,0.8623047,-0.04937744,-0.2263794
1602330351973,552,1.0249023,-0.18609619,0.06536865
1602330351973,553,0.8601074,-0.06549072,-0.29205322
1602330351973,554,1.2580566,-0.09576416,0.050231934
1602330351973,555,0.8417969,0.012878418,-0.14312744
1602330351973,556,0.95581055,-0.1350708,0.048034668
1602330351973,557,0.8640137,-0.011047363,-0.06524658
1602330351973,558,0.8623047,-0.04937744,-0.2263794
1602330351973,559,0.99658203,-0.04058838,-0.09552002
1602330351973,560,0.8417969,0.012878418,-0.14312744
1602330351973,561,1.0061035,0.0028686523,-0.050109863
1602330351973,562,1.0305176,0.0048217773,-0.270813
1602330351973,563,0.8640137,-0.011047363,-0.06524658
1602330351973,564,1.090332,-0.04547119,-0.08087158
1602330351973,565,0.8601074,-0.06549072,-0.29205322
1602330351973,566,1.0061035,0.0028686523,-0.050109863
1602330351973,567,1.0888672,-0.12750244,-0.10821533
1602330351973,568,1.090332,-0.04547119,-0.08087158
1602330351973,569,0.8623047,-0.04937744,-0.2263794
1602330351973,570,1.0888672,-0.12750244,-0.10821533
1602330351973,571,0.8417969,0.012878418,-0.14312744
1602330351973,572,0.8640137,-0.011047363,-0.06524658
1602330351973,573,1.0061035,0.0028686523,-0.050109863
1602330351973,574,1.090332,-0.04547119,-0.08087158
1602330351973,575,1.0888672,-0.12750244,-0.10821533
1602330351973,576,0.9838867,-0.089416504,-0.16558838
1602330354493,577,0.9838867,-0.089416504,-0.16558838
1602330354556,578,0.9838867,-0.089416504,-0.16558838
1602330354556,579,0.8898926,-0.07672119,-0.20806885
1602330354556,580,0.8898926,-0.07672119,-0.20806885
1602330354556,581,0.8811035,-0.09942627,-0.15142822
1602330354556,582,0.8811035,-0.09942627,-0.15142822
1602330354556,583,0.8898926,-0.07672119,-0.20806885
1602330354556,584,0.9411621,-0.06060791,-0.05279541
1602330354556,585,0.8811035,-0.09942627,-0.15142822
1602330354556,586,0.9411621,-0.06060791,-0.05279541
1602330354556,587,1.0029297,-0.007873535,0.020446777
1602330354556,588,0.9411621,-0.06060791,-0.05279541
1602330354556,589,1.0029297,-0.007873535,0.020446777
1602330354556,590,1.0029297,-0.007873535,0.020446777
1602330354556,591,0.96972656,-0.031799316,0.018005371
1602330354556,592,0.96972656,-0.031799316,0.018005371
1602330354556,593,0.96972656,-0.031799316,0.018005371
1602330354556,594,0.94555664,-0.04840088,-0.07623291
1602330354556,595,0.94555664,-0.04840088,-0.07623291
1602330354556,596,0.94555664,-0.04840088,-0.07623291
1602330354556,597,0.96435547,-0.0713501,-0.16851807
1602330354556,598,0.96435547,-0.0713501,-0.16851807
1602330354556,599,0.96435547,-0.0713501,-0.16851807
1602330354556,600,0.9519043,-0.10406494,-0.16461182
1602330354556,601,0.9519043,-0.10406494,-0.16461182
1602330354556,602,0.9519043,-0.10406494,-0.16461182
1602330354556,603,0.87646484,-0.08380127,-0.09869385
1602330354556,604,0.87646484,-0.08380127,-0.09869385
1602330354556,605,0.87646484,-0.08380127,-0.09869385
1602330354556,606,0.9645996,-0.062316895,-0.11602783
1602330354556,607,0.9645996,-0.062316895,-0.11602783
1602330354557,608,0.9458008,-0.12237549,-0.12310791
1602330354557,609,0.9458008,-0.12237549,-0.12310791
1602330354556,610,0.9645996,-0.062316895,-0.11602783
1602330354557,611,0.9123535,-0.12701416,-0.07550049
1602330354557,612,0.9123535,-0.12701416,-0.07550049
1602330354557,613,0.9458008,-0.12237549,-0.12310791
1602330354557,614,0.97143555,-0.09820557,-0.12799072
1602330354557,615,0.97143555,-0.09820557,-0.12799072
1602330354557,616,0.92578125,-0.16265869,-0.12945557
1602330354557,617,0.92578125,-0.16265869,-0.12945557
1602330354557,618,0.9123535,-0.12701416,-0.07550049
1602330354557,619,0.9511719,-0.1975708,-0.059387207
1602330354557,620,0.97143555,-0.09820557,-0.12799072
1602330354557,621,0.9511719,-0.1975708,-0.059387207
1602330354557,622,0.96972656,-0.14971924,0.015319824
1602330354557,623,0.96972656,-0.14971924,0.015319824
1602330354557,624,0.9506836,-0.08868408,0.059265137
1602330354557,625,0.92578125,-0.16265869,-0.12945557
1602330354557,626,0.9506836,-0.08868408,0.059265137
1602330354557,627,1.059082,-0.058166504,-0.0154418945
1602330354557,628,1.059082,-0.058166504,-0.0154418945
1602330354557,629,1.0998535,-0.06549072,-0.08502197
1602330354557,630,0.9511719,-0.1975708,-0.059387207
1602330354557,631,1.0998535,-0.06549072,-0.08502197
1602330354557,632,0.96972656,-0.14971924,0.015319824
1602330354557,633,0.95166016,-0.051086426,-0.062072754
1602330354557,634,0.9506836,-0.08868408,0.059265137
1602330354557,635,0.95166016,-0.051086426,-0.062072754
1602330354557,636,1.059082,-0.058166504,-0.0154418945
1602330354557,637,0.91625977,0.03729248,-0.057922363
1602330354557,638,1.0998535,-0.06549072,-0.08502197
1602330354557,639,0.8249512,0.0040893555,0.0036010742
1602330354557,640,0.91625977,0.03729248,-0.057922363
1602330354557,641,0.95166016,-0.051086426,-0.062072754
1602330354558,642,0.8249512,0.0040893555,0.0036010742
1602330354558,643,0.8222656,-0.016418457,0.050476074
1602330354558,644,0.91625977,0.03729248,-0.057922363
1602330354558,645,0.8249512,0.0040893555,0.0036010742
1602330354558,646,0.8222656,-0.016418457,0.050476074
1602330354558,647,0.9226074,-0.05718994,0.04046631
1602330354558,648,0.9226074,-0.05718994,0.04046631
1602330354558,649,0.8222656,-0.016418457,0.050476074
1602330354558,650,1.0229492,-0.12921143,0.04095459
1602330354558,651,1.0229492,-0.12921143,0.04095459
1602330354558,652,1.0646973,-0.17120361,0.046325684
1602330354558,653,0.9226074,-0.05718994,0.04046631
1602330354558,654,1.0229492,-0.12921143,0.04095459
1602330354558,655,1.0646973,-0.17120361,0.046325684
1602330354558,656,1.1833496,-0.18707275,0.0026245117
1602330354558,657,1.0646973,-0.17120361,0.046325684
1602330354558,658,1.1833496,-0.18707275,0.0026245117
1602330354558,659,1.1833496,-0.18707275,0.0026245117
1602330354558,660,1.088623,-0.18804932,0.00579834
1602330354558,661,1.088623,-0.18804932,0.00579834
1602330354558,662,1.088623,-0.18804932,0.00579834
1602330354558,663,0.8359375,-0.16900635,-0.030334473
1602330354558,664,0.8359375,-0.16900635,-0.030334473
1602330354558,665,0.8359375,-0.16900635,-0.030334473
1602330354558,666,1.1188965,0.0048217773,-0.19805908
1602330354558,667,1.1188965,0.0048217773,-0.19805908
1602330354558,668,0.9321289,9.1552734E-4,-0.28155518
1602330354558,669,0.9321289,9.1552734E-4,-0.28155518
1602330354558,670,1.1188965,0.0048217773,-0.19805908
1602330354558,671,0.9321289,9.1552734E-4,-0.28155518
1602330357141,672,0.8442383,-0.097961426,-0.25543213
1602330354557,673,0.8442383,-0.097961426,-0.25543213
1602330357077,674,0.8442383,-0.097961426,-0.25543213
1602330357141,675,0.8630371,-0.019592285,-0.1506958
1602330357141,676,0.8630371,-0.019592285,-0.1506958
1602330357141,677,0.8630371,-0.019592285,-0.1506958
1602330357141,678,0.84228516,0.08929443,-0.00982666
1602330357141,679,0.84228516,0.08929443,-0.00982666
1602330357141,680,0.9230957,0.016540527,0.1149292
1602330357141,681,0.84228516,0.08929443,-0.00982666
1602330357141,682,1.076416,-0.04888916,0.023132324
1602330357141,683,0.9230957,0.016540527,0.1149292
1602330357141,684,1.3381348,-0.03326416,-0.051574707
1602330357141,685,0.9230957,0.016540527,0.1149292
1602330357141,686,1.0068359,-0.20709229,-0.057922363
1602330357141,687,1.076416,-0.04888916,0.023132324
1602330357141,688,1.076416,-0.04888916,0.023132324
1602330357141,689,0.89208984,-0.13677979,-0.19464111
1602330357141,690,1.3381348,-0.03326416,-0.051574707
1602330357141,691,1.3381348,-0.03326416,-0.051574707
1602330357141,692,0.91259766,-0.039855957,-0.33868408
1602330357141,693,1.0068359,-0.20709229,-0.057922363
1602330357141,694,1.0068359,-0.20709229,-0.057922363
1602330357141,695,0.90478516,-0.21466064,-0.26885986
1602330357141,696,0.89208984,-0.13677979,-0.19464111
1602330357141,697,0.89208984,-0.13677979,-0.19464111
1602330357141,698,1.0412598,-0.1194458,0.02557373
1602330357141,699,0.91259766,-0.039855957,-0.33868408
1602330357141,700,0.90478516,-0.21466064,-0.26885986
1602330357141,701,0.91259766,-0.039855957,-0.33868408
1602330357141,702,0.8688965,0.6742554,0.59051514
1602330357141,703,0.90478516,-0.21466064,-0.26885986
1602330357141,704,1.0412598,-0.1194458,0.02557373
1602330357141,705,1.0412598,-0.1194458,0.02557373
1602330357141,706,0.84643555,-0.10650635,-0.06939697
1602330357141,707,0.8688965,0.6742554,0.59051514
1602330357141,708,0.8688965,0.6742554,0.59051514
1602330357141,709,0.84643555,-0.10650635,-0.06939697
1602330357141,710,0.84643555,-0.10650635,-0.06939697
1602330357141,711,0.86376953,-0.16168213,-0.15338135
1602330357141,712,0.86376953,-0.16168213,-0.15338135
1602330357141,713,0.86376953,-0.16168213,-0.15338135
1602330357141,714,0.9929199,-0.08013916,-0.039611816
1602330357141,715,0.9929199,-0.08013916,-0.039611816
1602330357141,716,1.2531738,-0.14776611,0.030212402
1602330357141,717,1.2531738,-0.14776611,0.030212402
1602330357141,718,0.9929199,-0.08013916,-0.039611816
1602330357141,719,1.0952148,-0.1026001,0.11834717
1602330357141,720,1.2531738,-0.14776611,0.030212402
1602330357141,721,1.0952148,-0.1026001,0.11834717
1602330357141,722,0.86694336,-0.08648682,0.04876709
1602330357141,723,1.0952148,-0.1026001,0.11834717
1602330357141,724,1.0759277,0.04144287,-0.1416626
1602330357141,725,0.86694336,-0.08648682,0.04876709
1602330357141,726,0.8947754,-0.04058838,-0.24835205
1602330357141,727,1.0759277,0.04144287,-0.1416626
1602330357141,728,0.86694336,-0.08648682,0.04876709
1602330357141,729,0.8166504,-0.18170166,-0.23077393
1602330357141,730,0.8947754,-0.04058838,-0.24835205
1602330357141,731,1.0759277,0.04144287,-0.1416626
1602330357141,732,0.8166504,-0.18170166,-0.23077393
1602330357141,733,0.82055664,-0.043029785,-0.14971924
1602330357141,734,0.8947754,-0.04058838,-0.24835205
1602330357141,735,0.8166504,-0.18170166,-0.23077393
1602330357141,736,0.85253906,0.066101074,-0.04498291
1602330357141,737,0.82055664,-0.043029785,-0.14971924
1602330357141,738,1.005127,-0.021057129,0.0368042
1602330357141,739,0.82055664,-0.043029785,-0.14971924
1602330357141,740,0.85253906,0.066101074,-0.04498291
1602330357141,741,0.85253906,0.066101074,-0.04498291
1602330357141,742,1.005127,-0.021057129,0.0368042
1602330357141,743,1.3071289,-0.042297363,0.0038452148
1602330357141,744,1.005127,-0.021057129,0.0368042
1602330357141,745,1.0422363,-0.057678223,0.061950684
1602330357141,746,1.3071289,-0.042297363,0.0038452148
1602330357141,747,1.3071289,-0.042297363,0.0038452148
1602330357141,748,0.86816406,-0.07940674,-0.070129395
1602330357141,749,1.0422363,-0.057678223,0.061950684
1602330357141,750,1.001709,-0.074035645,-0.27618408
1602330357141,751,0.86816406,-0.07940674,-0.070129395
1602330357141,752,1.0422363,-0.057678223,0.061950684
1602330357141,753,0.8256836,-0.21295166,-0.2000122
1602330357141,754,1.001709,-0.074035645,-0.27618408
1602330357141,755,0.8234863,-0.15216064,-0.12188721
1602330357141,756,0.8256836,-0.21295166,-0.2000122
1602330357141,757,0.90966797,0.38275146,0.38690186
1602330357141,758,0.8234863,-0.15216064,-0.12188721
1602330357141,759,0.86816406,-0.07940674,-0.070129395
1602330357141,760,0.90966797,0.38275146,0.38690186
1602330357141,761,1.001709,-0.074035645,-0.27618408
1602330357141,762,0.9428711,-0.2539673,0.105895996
1602330357141,763,0.9428711,-0.2539673,0.105895996
1602330357141,764,0.8256836,-0.21295166,-0.2000122
1602330357141,765,0.8234863,-0.15216064,-0.12188721
1602330357141,766,0.90966797,0.38275146,0.38690186
1602330357141,767,0.9428711,-0.2539673,0.105895996
1602330357141,768,1.0605469,-0.19464111,-0.11260986
1602330359525,769,1.0605469,-0.19464111,-0.11260986
1602330359525,770,1.1633301,0.081726074,-0.028869629
1602330359525,771,1.0605469,-0.19464111,-0.11260986
1602330359525,772,1.1633301,0.081726074,-0.028869629
1602330359525,773,0.9873047,-0.17510986,-0.04864502
1602330359525,774,1.1633301,0.081726074,-0.028869629
1602330359525,775,0.9873047,-0.17510986,-0.04864502
1602330359525,776,0.9873047,-0.17510986,-0.04864502
1602330359525,777,0.9958496,-0.054992676,-0.12701416
1602330359525,778,0.9958496,-0.054992676,-0.12701416
1602330359525,779,0.9958496,-0.054992676,-0.12701416
1602330359525,780,0.97509766,0.04437256,-0.22613525
1602330359525,781,0.97509766,0.04437256,-0.22613525
1602330359525,782,0.8647461,-0.031799316,-0.24395752
1602330359525,783,0.97509766,0.04437256,-0.22613525
1602330359525,784,0.88061523,-0.066467285,-0.17193604
1602330359525,785,0.8647461,-0.031799316,-0.24395752
1602330359525,786,0.8647461,-0.031799316,-0.24395752
1602330359525,787,0.8720703,0.005065918,-0.09234619
1602330359525,788,0.88061523,-0.066467285,-0.17193604
1602330359525,789,0.88061523,-0.066467285,-0.17193604
1602330359525,790,0.93530273,-0.023742676,-0.045959473
1602330359525,791,0.8720703,0.005065918,-0.09234619
1602330359525,792,0.8720703,0.005065918,-0.09234619
1602330359525,793,0.9848633,-0.11016846,-0.093322754
1602330359525,794,0.93530273,-0.023742676,-0.045959473
1602330359525,795,1.0324707,-0.17144775,-0.1951294
1602330359525,796,0.9848633,-0.11016846,-0.093322754
1602330359525,797,0.93530273,-0.023742676,-0.045959473
1602330359525,798,0.99487305,-0.21929932,-0.27667236
1602330359525,799,0.9848633,-0.11016846,-0.093322754
1602330359525,800,1.0324707,-0.17144775,-0.1951294
1602330359525,801,0.9316406,-0.29962158,-0.26983643
1602330359525,802,1.0324707,-0.17144775,-0.1951294
1602330359525,803,0.99487305,-0.21929932,-0.27667236
1602330359525,804,0.99487305,-0.21929932,-0.27667236
1602330359525,805,0.9765625,-0.2703247,-0.15142822
1602330359525,806,0.9316406,-0.29962158,-0.26983643
1602330359525,807,0.9316406,-0.29962158,-0.26983643
1602330359525,808,1.0639648,-0.16729736,-0.057922363
1602330359525,809,0.9765625,-0.2703247,-0.15142822
1602330359525,810,0.9765625,-0.2703247,-0.15142822
1602330359525,811,1.1064453,-0.07940674,0.0138549805
1602330359525,812,1.0639648,-0.16729736,-0.057922363
1602330359525,813,1.0639648,-0.16729736,-0.057922363
1602330359525,814,1.0500488,-0.046203613,0.11248779
1602330359525,815,1.1064453,-0.07940674,0.0138549805
1602330359525,816,0.99316406,0.17279053,0.1852417
1602330359525,817,1.1064453,-0.07940674,0.0138549805
1602330359525,818,0.87939453,0.1605835,0.08538818
1602330359525,819,1.0500488,-0.046203613,0.11248779
1602330359525,820,1.0500488,-0.046203613,0.11248779
1602330359525,821,0.8083496,0.018249512,-0.04547119
1602330359525,822,0.99316406,0.17279053,0.1852417
1602330359525,823,0.99316406,0.17279053,0.1852417
1602330359525,824,0.8635254,-0.05645752,-0.120666504
1602330359525,825,0.87939453,0.1605835,0.08538818
1602330359525,826,1.0109863,-0.16070557,-0.081604004
1602330359525,827,0.8083496,0.018249512,-0.04547119
1602330359525,828,1.076416,-0.19073486,0.014099121
1602330359525,829,0.87939453,0.1605835,0.08538818
1602330359525,830,0.967041,-0.11846924,0.045837402
1602330359525,831,0.8635254,-0.05645752,-0.120666504
1602330359525,832,0.8083496,0.018249512,-0.04547119
1602330359525,833,0.9304199,-0.12530518,-0.019836426
1602330359525,834,0.8635254,-0.05645752,-0.120666504
1602330359525,835,1.0109863,-0.16070557,-0.081604004
1602330359525,836,1.0236816,-0.07965088,-0.101135254
1602330359525,837,1.0109863,-0.16070557,-0.081604004
1602330359525,838,1.076416,-0.19073486,0.014099121
1602330359525,839,0.986084,-0.07501221,-0.12017822
1602330359525,840,1.076416,-0.19073486,0.014099121
1602330359525,841,0.90405273,-0.028625488,-0.105529785
1602330359525,842,0.967041,-0.11846924,0.045837402
1602330359525,843,0.967041,-0.11846924,0.045837402
1602330359525,844,0.8269043,-0.016906738,-0.093322754
1602330359525,845,0.9304199,-0.12530518,-0.019836426
1602330359525,846,0.9304199,-0.12530518,-0.019836426
1602330359525,847,0.9436035,-0.11090088,-0.08062744
1602330359525,848,1.0236816,-0.07965088,-0.101135254
1602330359525,849,1.0236816,-0.07965088,-0.101135254
1602330359525,850,0.9753418,-0.17926025,-0.024963379
1602330359525,851,0.986084,-0.07501221,-0.12017822
1602330359525,852,0.986084,-0.07501221,-0.12017822
1602330359525,853,0.95336914,-0.14727783,0.03729248
1602330359525,854,0.90405273,-0.028625488,-0.105529785
1602330359525,855,0.90405273,-0.028625488,-0.105529785
1602330359525,856,0.8269043,-0.016906738,-0.093322754
1602330359525,857,0.8269043,-0.016906738,-0.093322754
1602330359525,858,0.9436035,-0.11090088,-0.08062744
1602330359525,859,0.9436035,-0.11090088,-0.08062744
1602330359525,860,0.9753418,-0.17926025,-0.024963379
1602330359525,861,0.9753418,-0.17926025,-0.024963379
1602330359525,862,0.95336914,-0.14727783,0.03729248
1602330359525,863,0.95336914,-0.14727783,0.03729248
1602330362045,864,0.91503906,-0.15997314,0.0021362305
1602330362045,865,0.91503906,-0.15997314,0.0021362305
1602330362109,866,0.91503906,-0.15997314,0.0021362305
1602330362109,867,1.0231934,-0.1843872,-0.051818848
1602330362109,868,1.0231934,-0.1843872,-0.051818848
1602330362109,869,1.0629883,-0.21124268,-0.07501221
1602330362109,870,1.0231934,-0.1843872,-0.051818848
1602330362109,871,1.0629883,-0.21124268,-0.07501221
1602330362109,872,1.0449219,-0.13043213,-0.07354736
1602330362109,873,1.0629883,-0.21124268,-0.07501221
1602330362109,874,1.0449219,-0.13043213,-0.07354736
1602330362109,875,0.9411621,-0.039123535,-0.105041504
1602330362109,876,1.0449219,-0.13043213,-0.07354736
1602330362109,877,0.98461914,-0.06573486,-0.050598145
1602330362109,878,0.8815918,0.027282715,0.1227417
1602330362109,879,0.9411621,-0.039123535,-0.105041504
1602330362109,880,0.9411621,-0.039123535,-0.105041504
1602330362109,881,0.7631836,0.08001709,0.18450928
1602330362110,882,0.98461914,-0.06573486,-0.050598145
1602330362110,883,0.98461914,-0.06573486,-0.050598145
1602330362110,884,0.82470703,-0.12750244,0.019226074
1602330362110,885,0.8815918,0.027282715,0.1227417
1602330362110,886,0.8815918,0.027282715,0.1227417
1602330362110,887,0.99365234,-0.101867676,0.042907715
1602330362110,888,0.7631836,0.08001709,0.18450928
1602330362110,889,0.7631836,0.08001709,0.18450928
1602330362110,890,0.82470703,-0.12750244,0.019226074
1602330362110,891,0.99365234,-0.101867676,0.042907715
1602330362110,892,1.2478027,-0.13604736,0.030456543
1602330362110,893,0.82470703,-0.12750244,0.019226074
1602330362110,894,1.2478027,-0.13604736,0.030456543
1602330362110,895,1.2421875,-0.15557861,-0.019592285
1602330362110,896,0.99365234,-0.101867676,0.042907715
1602330362111,897,1.2478027,-0.13604736,0.030456543
1602330362111,898,0.8664551,-0.14971924,-0.034973145
1602330362110,899,1.2421875,-0.15557861,-0.019592285
1602330362111,900,1.2421875,-0.15557861,-0.019592285
1602330362111,901,0.8664551,-0.14971924,-0.034973145
1602330362111,902,1.0102539,-0.016662598,-0.14752197
1602330362111,903,0.8664551,-0.14971924,-0.034973145
1602330362111,904,1.0102539,-0.016662598,-0.14752197
1602330362111,905,0.9133301,0.009460449,-0.22076416
1602330362111,906,1.0102539,-0.016662598,-0.14752197
1602330362111,907,0.9133301,0.009460449,-0.22076416
1602330362111,908,0.8063965,-0.09210205,-0.2000122
1602330362111,909,0.9133301,0.009460449,-0.22076416
1602330362111,910,0.8063965,-0.09210205,-0.2000122
1602330362111,911,0.8366699,-0.08453369,-0.12359619
1602330362111,912,0.8063965,-0.09210205,-0.2000122
1602330362111,913,0.8366699,-0.08453369,-0.12359619
1602330362112,914,0.8366699,-0.08453369,-0.12359619
1602330362112,915,0.8745117,0.0038452148,-0.03302002
1602330362112,916,0.8745117,0.0038452148,-0.03302002
1602330362112,917,0.8745117,0.0038452148,-0.03302002
1602330362112,918,0.9655762,-0.010070801,-0.014465332
1602330362112,919,0.9655762,-0.010070801,-0.014465332
1602330362112,920,0.9655762,-0.010070801,-0.014465332
1602330362112,921,1.1984863,-0.042541504,-0.0869751
1602330362112,922,1.1984863,-0.042541504,-0.0869751
1602330362112,923,1.1984863,-0.042541504,-0.0869751
1602330362112,924,1.0756836,-0.13287354,-0.024475098
1602330362112,925,1.0756836,-0.13287354,-0.024475098
1602330362112,926,0.92163086,-0.13214111,-0.028625488
1602330362112,927,1.0756836,-0.13287354,-0.024475098
1602330362112,928,0.92163086,-0.13214111,-0.028625488
1602330362112,929,1.0131836,-0.0881958,-0.121398926
1602330362113,930,1.0131836,-0.0881958,-0.121398926
1602330362113,931,0.93066406,-0.1585083,-0.06524658
1602330362113,932,0.92163086,-0.13214111,-0.028625488
1602330362113,933,0.93066406,-0.1585083,-0.06524658
1602330362113,934,1.0131836,-0.0881958,-0.121398926
1602330362113,935,0.86035156,-0.057922363,0.0053100586
1602330362113,936,0.93066406,-0.1585083,-0.06524658
1602330362113,937,0.86035156,-0.057922363,0.0053100586
1602330362113,938,0.8210449,0.04949951,0.06732178
1602330362113,939,0.86035156,-0.057922363,0.0053100586
1602330362113,940,0.8210449,0.04949951,0.06732178
1602330362113,941,0.8366699,-0.024475098,0.124694824
1602330362113,942,0.8210449,0.04949951,0.06732178
1602330362113,943,0.92578125,-0.03741455,0.1071167
1602330362113,944,0.8366699,-0.024475098,0.124694824
1602330362113,945,0.8366699,-0.024475098,0.124694824
1602330362114,946,1.1503906,-0.08721924,0.039733887
1602330362114,947,0.92578125,-0.03741455,0.1071167
1602330362114,948,1.2902832,-0.20831299,0.08660889
1602330362114,949,0.92944336,-0.14361572,0.06512451
1602330362114,950,1.1503906,-0.08721924,0.039733887
1602330362114,951,0.92578125,-0.03741455,0.1071167
1602330362114,952,1.0600586,-0.034240723,-0.13458252
1602330362114,953,1.2902832,-0.20831299,0.08660889
1602330362114,954,1.1503906,-0.08721924,0.039733887
1602330362114,955,1.2902832,-0.20831299,0.08660889
1602330362114,956,0.92944336,-0.14361572,0.06512451
1602330362114,957,1.0600586,-0.034240723,-0.13458252
1602330362114,958,0.92944336,-0.14361572,0.06512451
1602330362114,959,1.0600586,-0.034240723,-0.13458252
1602330362111,960,0.97387695,-0.028625488,-0.31622314
1602330364631,961,0.97387695,-0.028625488,-0.31622314
1602330364695,962,0.8647461,-0.10284424,-0.33135986
1602330364695,963,0.97387695,-0.028625488,-0.31622314
1602330364695,964,0.8647461,-0.10284424,-0.33135986
1602330364695,965,0.91259766,-0.05255127,-0.27349854
1602330364695,966,0.8647461,-0.10284424,-0.33135986
1602330364695,967,0.86328125,0.02557373,-0.14239502
1602330364695,968,0.91259766,-0.05255127,-0.27349854
1602330364695,969,0.91259766,-0.05255127,-0.27349854
1602330364695,970,0.861084,0.050964355,-0.0032348633
1602330364695,971,0.86328125,0.02557373,-0.14239502
1602330364695,972,0.86328125,0.02557373,-0.14239502
1602330364695,973,0.92578125,0.101257324,0.029968262
1602330364695,974,1.0632324,0.02142334,-0.062805176
1602330364695,975,0.861084,0.050964355,-0.0032348633
1602330364695,976,0.861084,0.050964355,-0.0032348633
1602330364695,977,0.92578125,0.101257324,0.029968262
1602330364695,978,1.2744141,-0.11456299,-0.25006104
1602330364695,979,0.92578125,0.101257324,0.029968262
1602330364695,980,1.0632324,0.02142334,-0.062805176
1602330364695,981,1.1630859,-0.29449463,-0.28424072
1602330364695,982,1.2744141,-0.11456299,-0.25006104
1602330364695,983,1.0632324,0.02142334,-0.062805176
1602330364695,984,1.2744141,-0.11456299,-0.25006104
1602330364695,985,1.1630859,-0.29449463,-0.28424072
1602330364695,986,0.9387207,-0.29156494,-0.21759033
1602330364695,987,1.1630859,-0.29449463,-0.28424072
1602330364695,988,0.9387207,-0.29156494,-0.21759033
1602330364695,989,0.8664551,-0.18267822,-0.22979736
1602330364695,990,0.8664551,-0.18267822,-0.22979736
1602330364695,991,0.9387207,-0.29156494,-0.21759033
1602330364695,992,0.98291016,-0.20758057,-0.07745361
1602330364695,993,0.98291016,-0.20758057,-0.07745361
1602330364696,994,0.8664551,-0.18267822,-0.22979736
1602330364696,995,0.97216797,-0.117248535,0.2255249
1602330364696,996,0.97216797,-0.117248535,0.2255249
1602330364696,997,0.86987305,0.32489014,0.29022217
1602330364696,998,0.98291016,-0.20758057,-0.07745361
1602330364696,999,0.9616699,0.13201904,0.14056396
1602330364696,1000,0.86987305,0.32489014,0.29022217
1602330364696,1001,0.9616699,0.13201904,0.14056396
1602330364696,1002,0.97216797,-0.117248535,0.2255249
1602330364696,1003,1.1015625,-0.1453247,-0.07110596
1602330364696,1004,1.1015625,-0.1453247,-0.07110596
1602330364696,1005,0.99658203,-0.1104126,-0.12652588
1602330364696,1006,0.99658203,-0.1104126,-0.12652588
1602330364696,1007,0.86987305,0.32489014,0.29022217
1602330364696,1008,1.0258789,-0.019104004,-0.17999268
1602330364696,1009,1.0258789,-0.019104004,-0.17999268
1602330364696,1010,0.9616699,0.13201904,0.14056396
1602330364696,1011,0.9145508,0.0040893555,-0.23101807
1602330364696,1012,0.9145508,0.0040893555,-0.23101807
1602330364696,1013,1.1015625,-0.1453247,-0.07110596
1602330364696,1014,0.85375977,-0.0095825195,-0.22662354
1602330364696,1015,0.85375977,-0.0095825195,-0.22662354
1602330364696,1016,0.99658203,-0.1104126,-0.12652588
1602330364696,1017,0.84155273,-0.055480957,-0.16363525
1602330364696,1018,0.84155273,-0.055480957,-0.16363525
1602330364696,1019,1.0258789,-0.019104004,-0.17999268
1602330364696,1020,0.9440918,-0.077941895,-0.062072754
1602330364696,1021,0.9440918,-0.077941895,-0.062072754
1602330364696,1022,0.9145508,0.0040893555,-0.23101807
1602330364696,1023,1.0617676,0.019714355,-0.054992676
1602330364696,1024,0.85375977,-0.0095825195,-0.22662354
1602330364696,1025,1.0617676,0.019714355,-0.054992676
1602330364697,1026,1.1030273,-0.0017700195,-0.16900635
1602330364697,1027,0.84155273,-0.055480957,-0.16363525
1602330364697,1028,0.96362305,-0.11090088,-0.23345947
1602330364697,1029,0.9440918,-0.077941895,-0.062072754
1602330364697,1030,0.91015625,-0.07525635,-0.22711182
1602330364697,1031,1.1030273,-0.0017700195,-0.16900635
1602330364697,1032,0.8239746,-0.05279541,-0.18145752
1602330364697,1033,1.0617676,0.019714355,-0.054992676
1602330364697,1034,0.96362305,-0.11090088,-0.23345947
1602330364697,1035,0.84765625,-0.08404541,-0.09454346
1602330364697,1036,1.1030273,-0.0017700195,-0.16900635
1602330364697,1037,0.91015625,-0.07525635,-0.22711182
1602330364697,1038,0.96362305,-0.11090088,-0.23345947
1602330364697,1039,0.8239746,-0.05279541,-0.18145752
1602330364697,1040,0.9272461,-0.09967041,-0.004211426
1602330364697,1041,0.91015625,-0.07525635,-0.22711182
1602330364697,1042,1.0046387,-0.14361572,0.08758545
1602330364697,1043,0.8239746,-0.05279541,-0.18145752
1602330364697,1044,0.84765625,-0.08404541,-0.09454346
1602330364697,1045,0.84765625,-0.08404541,-0.09454346
1602330364697,1046,0.9272461,-0.09967041,-0.004211426
1602330364697,1047,0.99975586,-0.1609497,0.16815186
1602330364697,1048,1.0046387,-0.14361572,0.08758545
1602330364697,1049,1.0153809,-0.109191895,0.14154053
1602330364697,1050,0.9272461,-0.09967041,-0.004211426
1602330364697,1051,0.99975586,-0.1609497,0.16815186
1602330364697,1052,1.0046387,-0.14361572,0.08758545
1602330364697,1053,1.0153809,-0.109191895,0.14154053
1602330364697,1054,0.99975586,-0.1609497,0.16815186
1602330364697,1055,1.0153809,-0.109191895,0.14154053
1602330364696,1056,1.0847168,-0.07989502,0.04876709
1602330367473,1057,1.0847168,-0.07989502,0.04876709
1602330367473,1058,1.1166992,-0.042785645,-0.016174316
1602330367216,1059,1.0847168,-0.07989502,0.04876709
1602330367473,1060,1.1166992,-0.042785645,-0.016174316
1602330367473,1061,0.9921875,0.0138549805,-0.0569458
1602330367473,1062,1.1166992,-0.042785645,-0.016174316
1602330367473,1063,0.9921875,0.0138549805,-0.0569458
1602330367473,1064,0.9921875,0.0138549805,-0.0569458
1602330367473,1065,0.87939453,0.08709717,-0.12042236
1602330367473,1066,0.87939453,0.08709717,-0.12042236
1602330367473,1067,0.87939453,0.08709717,-0.12042236
1602330367473,1068,0.83081055,0.024597168,-0.16778564
1602330367473,1069,0.83081055,0.024597168,-0.16778564
1602330367473,1070,0.83081055,0.024597168,-0.16778564
1602330367473,1071,0.83032227,-0.07940674,-0.1921997
1602330367473,1072,0.83032227,-0.07940674,-0.1921997
1602330367473,1073,0.83032227,-0.07940674,-0.1921997
1602330367473,1074,0.9321289,-0.18414307,-0.16705322
1602330367473,1075,0.9321289,-0.18414307,-0.16705322
1602330367473,1076,0.9321289,-0.18414307,-0.16705322
1602330367473,1077,1.0212402,-0.23028564,-0.12188721
1602330367473,1078,1.0212402,-0.23028564,-0.12188721
1602330367473,1079,1.0212402,-0.23028564,-0.12188721
1602330367473,1080,0.970459,-0.22857666,-0.077697754
1602330367473,1081,0.970459,-0.22857666,-0.077697754
1602330367473,1082,0.970459,-0.22857666,-0.077697754
1602330367473,1083,0.9226074,-0.2539673,-0.013977051
1602330367473,1084,0.9226074,-0.2539673,-0.013977051
1602330367473,1085,0.9226074,-0.2539673,-0.013977051
1602330367473,1086,0.9577637,-0.20928955,0.007751465
1602330367473,1087,0.9577637,-0.20928955,0.007751465
1602330367473,1088,0.9577637,-0.20928955,0.007751465
1602330367474,1089,0.9926758,-0.16241455,0.015563965
1602330367474,1090,0.9926758,-0.16241455,0.015563965
1602330367473,1091,0.9926758,-0.16241455,0.015563965
1602330367474,1092,1.1247559,-0.14923096,-0.05279541
1602330367474,1093,1.1247559,-0.14923096,-0.05279541
1602330367474,1094,1.1247559,-0.14923096,-0.05279541
1602330367474,1095,1.0515137,-0.14752197,-0.085510254
1602330367474,1096,1.0515137,-0.14752197,-0.085510254
1602330367474,1097,0.99194336,-0.10845947,-0.12432861
1602330367474,1098,0.99194336,-0.10845947,-0.12432861
1602330367474,1099,0.95166016,-0.022033691,-0.19488525
1602330367474,1100,1.0515137,-0.14752197,-0.085510254
1602330367474,1101,0.95166016,-0.022033691,-0.19488525
1602330367474,1102,0.99194336,-0.10845947,-0.12432861
1602330367474,1103,0.9628906,-0.047668457,-0.16680908
1602330367474,1104,0.95166016,-0.022033691,-0.19488525
1602330367474,1105,0.9628906,-0.047668457,-0.16680908
1602330367474,1106,0.88183594,-0.034484863,-0.057434082
1602330367474,1107,0.88183594,-0.034484863,-0.057434082
1602330367474,1108,0.9628906,-0.047668457,-0.16680908
1602330367474,1109,0.7751465,0.08929443,0.03387451
1602330367474,1110,0.7751465,0.08929443,0.03387451
1602330367474,1111,0.8845215,-0.02935791,0.08026123
1602330367474,1112,0.88183594,-0.034484863,-0.057434082
1602330367474,1113,0.8845215,-0.02935791,0.08026123
1602330367474,1114,0.90844727,-0.17877197,0.022644043
1602330367474,1115,0.90844727,-0.17877197,0.022644043
1602330367474,1116,0.9926758,-0.09844971,0.028259277
1602330367474,1117,0.7751465,0.08929443,0.03387451
1602330367474,1118,1.050293,-0.15924072,0.02508545
1602330367474,1119,0.8845215,-0.02935791,0.08026123
1602330367474,1120,0.9926758,-0.09844971,0.028259277
1602330367474,1121,1.2414551,-0.14093018,-6.1035156E-5
1602330367475,1122,0.90844727,-0.17877197,0.022644043
1602330367475,1123,1.123291,-0.097229004,-0.0029907227
1602330367475,1124,1.050293,-0.15924072,0.02508545
1602330367475,1125,0.9926758,-0.09844971,0.028259277
1602330367475,1126,1.2414551,-0.14093018,-6.1035156E-5
1602330367475,1127,1.050293,-0.15924072,0.02508545
1602330367475,1128,0.8574219,-0.08062744,-0.040100098
1602330367475,1129,1.123291,-0.097229004,-0.0029907227
1602330367475,1130,0.9707031,0.023132324,-0.15533447
1602330367475,1131,0.8574219,-0.08062744,-0.040100098
1602330367475,1132,1.2414551,-0.14093018,-6.1035156E-5
1602330367475,1133,0.9707031,0.023132324,-0.15533447
1602330367475,1134,0.8833008,0.0099487305,-0.23223877
1602330367475,1135,0.8833008,0.0099487305,-0.23223877
1602330367475,1136,1.123291,-0.097229004,-0.0029907227
1602330367475,1137,0.7993164,-0.12921143,-0.17999268
1602330367475,1138,0.7993164,-0.12921143,-0.17999268
1602330367475,1139,0.8574219,-0.08062744,-0.040100098
1602330367475,1140,0.8317871,-0.117492676,-0.07208252
1602330367475,1141,0.9707031,0.023132324,-0.15533447
1602330367475,1142,0.8317871,-0.117492676,-0.07208252
1602330367475,1143,0.8833008,-0.020812988,0.008483887
1602330367475,1144,0.8833008,0.0099487305,-0.23223877
1602330367475,1145,0.97924805,-0.051330566,-0.018615723
1602330367475,1146,0.8833008,-0.020812988,0.008483887
1602330367475,1147,0.7993164,-0.12921143,-0.17999268
1602330367475,1148,0.97924805,-0.051330566,-0.018615723
1602330367475,1149,0.8317871,-0.117492676,-0.07208252
1602330367475,1150,0.8833008,-0.020812988,0.008483887
1602330367475,1151,0.97924805,-0.051330566,-0.018615723
1602330367474,1152,1.1223145,-0.12872314,-0.043029785
1602330369860,1153,1.1223145,-0.12872314,-0.043029785
1602330369860,1154,1.2651367,-0.07647705,-0.059387207
1602330369994,1155,1.1223145,-0.12872314,-0.043029785
1602330369860,1156,1.2651367,-0.07647705,-0.059387207
1602330369860,1157,0.9782715,-0.12701416,0.020202637
1602330369860,1158,0.9782715,-0.12701416,0.020202637
1602330369860,1159,1.2651367,-0.07647705,-0.059387207
1602330369860,1160,0.83496094,-0.07696533,-0.07940674
1602330369860,1161,0.83496094,-0.07696533,-0.07940674
1602330369860,1162,0.9782715,-0.12701416,0.020202637
1602330369860,1163,0.83496094,-0.07696533,-0.07940674
1602330369860,1164,0.9001465,-0.040100098,-0.20367432
1602330369860,1165,0.9001465,-0.040100098,-0.20367432
1602330369860,1166,0.9001465,-0.040100098,-0.20367432
1602330369860,1167,0.79467773,-0.19659424,-0.15557861
1602330369860,1168,0.79467773,-0.19659424,-0.15557861
1602330369860,1169,0.8852539,-0.058166504,-0.030822754
1602330369860,1170,0.79467773,-0.19659424,-0.15557861
1602330369860,1171,0.95947266,0.022888184,0.22772217
1602330369860,1172,0.8852539,-0.058166504,-0.030822754
1602330369860,1173,0.8852539,-0.058166504,-0.030822754
1602330369860,1174,0.97216797,-0.2390747,0.04168701
1602330369860,1175,0.95947266,0.022888184,0.22772217
1602330369860,1176,1.0715332,-0.031311035,-0.07867432
1602330369860,1177,0.97216797,-0.2390747,0.04168701
1602330369860,1178,1.1640625,-0.051574707,-0.055725098
1602330369860,1179,1.0715332,-0.031311035,-0.07867432
1602330369860,1180,0.95947266,0.022888184,0.22772217
1602330369860,1181,1.1640625,-0.051574707,-0.055725098
1602330369860,1182,0.91552734,-0.15045166,-0.09991455
1602330369860,1183,0.9489746,-0.028381348,-0.14093018
1602330369860,1184,0.91552734,-0.15045166,-0.09991455
1602330369860,1185,0.97216797,-0.2390747,0.04168701
1602330369860,1186,0.9489746,-0.028381348,-0.14093018
1602330369860,1187,1.0715332,-0.031311035,-0.07867432
1602330369860,1188,0.890625,0.0040893555,-0.24932861
1602330369860,1189,0.890625,0.0040893555,-0.24932861
1602330369860,1190,0.81689453,-0.08013916,-0.28277588
1602330369860,1191,1.1640625,-0.051574707,-0.055725098
1602330369860,1192,0.81689453,-0.08013916,-0.28277588
1602330369860,1193,0.91552734,-0.15045166,-0.09991455
1602330369860,1194,0.888916,-0.15386963,-0.22442627
1602330369860,1195,0.888916,-0.15386963,-0.22442627
1602330369860,1196,0.9489746,-0.028381348,-0.14093018
1602330369860,1197,0.8967285,-0.039611816,-0.10455322
1602330369860,1198,0.9536133,0.049743652,-0.010803223
1602330369860,1199,0.8967285,-0.039611816,-0.10455322
1602330369860,1200,1.0327148,-0.01763916,-0.006164551
1602330369860,1201,0.9536133,0.049743652,-0.010803223
1602330369860,1202,0.890625,0.0040893555,-0.24932861
1602330369860,1203,1.0327148,-0.01763916,-0.006164551
1602330369860,1204,0.81689453,-0.08013916,-0.28277588
1602330369860,1205,1.1057129,-0.039855957,-0.050109863
1602330369860,1206,0.888916,-0.15386963,-0.22442627
1602330369860,1207,1.0793457,-0.07501221,-0.12774658
1602330369860,1208,1.1057129,-0.039855957,-0.050109863
1602330369860,1209,0.904541,-0.097229004,-0.19732666
1602330369860,1210,1.0793457,-0.07501221,-0.12774658
1602330369860,1211,0.888916,-0.04937744,-0.20489502
1602330369860,1212,0.8967285,-0.039611816,-0.10455322
1602330369860,1213,0.904541,-0.097229004,-0.19732666
1602330369860,1214,0.9411621,-0.07720947,-0.08013916
1602330369860,1215,0.9536133,0.049743652,-0.010803223
1602330369860,1216,0.888916,-0.04937744,-0.20489502
1602330369860,1217,0.9267578,0.0053100586,0.08538818
1602330369860,1218,1.0327148,-0.01763916,-0.006164551
1602330369860,1219,0.9411621,-0.07720947,-0.08013916
1602330369860,1220,0.82788086,0.097351074,0.18450928
1602330369860,1221,0.9267578,0.0053100586,0.08538818
1602330369860,1222,0.82788086,0.097351074,0.18450928
1602330369860,1223,1.1057129,-0.039855957,-0.050109863
1602330369860,1224,0.9152832,-0.081848145,0.005065918
1602330369860,1225,1.0793457,-0.07501221,-0.12774658
1602330369860,1226,1.0744629,-0.11260986,-0.094055176
1602330369860,1227,1.0673828,-0.18121338,-0.113342285
1602330369860,1228,0.9152832,-0.081848145,0.005065918
1602330369860,1229,1.078125,-0.10675049,-0.08087158
1602330369860,1230,0.904541,-0.097229004,-0.19732666
1602330369860,1231,1.0351562,0.0048217773,-0.08453369
1602330369860,1232,0.888916,-0.04937744,-0.20489502
1602330369860,1233,0.9536133,0.06365967,-0.13653564
1602330369860,1234,1.0744629,-0.11260986,-0.094055176
1602330369860,1235,0.9411621,-0.07720947,-0.08013916
1602330369860,1236,1.0673828,-0.18121338,-0.113342285
1602330369860,1237,0.9267578,0.0053100586,0.08538818
1602330369860,1238,1.078125,-0.10675049,-0.08087158
1602330369860,1239,0.82788086,0.097351074,0.18450928
1602330369860,1240,1.0351562,0.0048217773,-0.08453369
1602330369860,1241,0.9152832,-0.081848145,0.005065918
1602330369860,1242,0.9536133,0.06365967,-0.13653564
1602330369860,1243,1.0744629,-0.11260986,-0.094055176
1602330369860,1244,1.0673828,-0.18121338,-0.113342285
1602330369860,1245,1.078125,-0.10675049,-0.08087158
1602330369860,1246,1.0351562,0.0048217773,-0.08453369
1602330369860,1247,0.9536133,0.06365967,-0.13653564
