# Sensor position: Wrist
# Sensor side: Right
# Activity type: Movement
# Activity code: 9
# Subject id: s1642301
timestamp,seq,accel_x,accel_y,accel_z
1602329813574,0,0.9243164,0.17694092,0.046325684
1602329816353,1,0.92529297,0.17572021,0.035827637
1602329816353,2,0.9243164,0.17694092,0.046325684
1602329816094,3,0.9243164,0.17694092,0.046325684
1602329816353,4,0.92529297,0.17572021,0.035827637
1602329816353,5,0.92041016,0.184021,0.038024902
1602329816353,6,0.92041016,0.184021,0.038024902
1602329816353,7,0.92529297,0.17572021,0.035827637
1602329816353,8,0.92041016,0.184021,0.038024902
1602329816353,9,0.91748047,0.20257568,0.034362793
1602329816353,10,0.91748047,0.20257568,0.034362793
1602329816353,11,0.91748047,0.20257568,0.034362793
1602329816353,12,0.92041016,0.21063232,0.04046631
1602329816353,13,0.92041016,0.21063232,0.04046631
1602329816353,14,0.92041016,0.21063232,0.04046631
1602329816353,15,0.91748047,0.20526123,0.038269043
1602329816353,16,0.91748047,0.20526123,0.038269043
1602329816353,17,0.91748047,0.20526123,0.038269043
1602329816353,18,0.9165039,0.19085693,0.028747559
1602329816353,19,0.9165039,0.19085693,0.028747559
1602329816353,20,0.9165039,0.19085693,0.028747559
1602329816353,21,0.91918945,0.20233154,0.028503418
1602329816353,22,0.91918945,0.20233154,0.028503418
1602329816353,23,0.91918945,0.20233154,0.028503418
1602329816353,24,0.91845703,0.15863037,0.05267334
1602329816353,25,0.91845703,0.15863037,0.05267334
1602329816353,26,0.91845703,0.15863037,0.05267334
1602329816353,27,0.92944336,0.109313965,0.04071045
1602329816353,28,0.92944336,0.109313965,0.04071045
1602329816353,29,1.0100098,0.08416748,0.061950684
1602329816353,30,0.92944336,0.109313965,0.04071045
1602329816353,31,1.0100098,0.08416748,0.061950684
1602329816353,32,0.95996094,0.08001709,0.07904053
1602329816353,33,0.95996094,0.08001709,0.07904053
1602329816353,34,0.8630371,0.17840576,0.035095215
1602329816353,35,0.8630371,0.17840576,0.035095215
1602329816353,36,0.8574219,0.16204834,0.08782959
1602329816353,37,0.8574219,0.16204834,0.08782959
1602329816353,38,1.0100098,0.08416748,0.061950684
1602329816353,39,0.91918945,0.18597412,0.19525146
1602329816353,40,0.95996094,0.08001709,0.07904053
1602329816353,41,0.91918945,0.18597412,0.19525146
1602329816353,42,0.8630371,0.17840576,0.035095215
1602329816353,43,0.8823242,0.20941162,0.17669678
1602329816353,44,0.8823242,0.20941162,0.17669678
1602329816353,45,0.94750977,0.20574951,0.14324951
1602329816353,46,0.8574219,0.16204834,0.08782959
1602329816353,47,0.94750977,0.20574951,0.14324951
1602329816353,48,1.0388184,0.23309326,0.13739014
1602329816353,49,0.91918945,0.18597412,0.19525146
1602329816353,50,1.0388184,0.23309326,0.13739014
1602329816353,51,1.0935059,0.2399292,0.048034668
1602329816353,52,0.8823242,0.20941162,0.17669678
1602329816353,53,1.0935059,0.2399292,0.048034668
1602329816353,54,0.80615234,0.20062256,-0.0010375977
1602329816353,55,0.80615234,0.20062256,-0.0010375977
1602329816353,56,0.94750977,0.20574951,0.14324951
1602329816353,57,0.78515625,0.20697021,-0.047180176
1602329816353,58,0.78515625,0.20697021,-0.047180176
1602329816353,59,0.8937988,0.18817139,-0.07745361
1602329816353,60,0.8937988,0.18817139,-0.07745361
1602329816353,61,1.0388184,0.23309326,0.13739014
1602329816353,62,0.88549805,0.23699951,-0.042541504
1602329816353,63,1.0935059,0.2399292,0.048034668
1602329816353,64,0.91503906,0.1798706,-0.035461426
1602329816353,65,0.88549805,0.23699951,-0.042541504
1602329816353,66,0.80615234,0.20062256,-0.0010375977
1602329816353,67,0.9968262,0.061950684,-0.0413208
1602329816353,68,0.91503906,0.1798706,-0.035461426
1602329816353,69,0.78515625,0.20697021,-0.047180176
1602329816353,70,1.1337891,0.06707764,-0.069885254
1602329816353,71,0.9968262,0.061950684,-0.0413208
1602329816353,72,0.8937988,0.18817139,-0.07745361
1602329816353,73,1.1025391,0.17352295,-0.05987549
1602329816353,74,0.67626953,0.09906006,-0.035949707
1602329816353,75,0.88549805,0.23699951,-0.042541504
1602329816353,76,1.1337891,0.06707764,-0.069885254
1602329816353,77,0.9772949,0.097351074,-0.14337158
1602329816353,78,0.91503906,0.1798706,-0.035461426
1602329816353,79,0.9367676,0.24993896,-0.097717285
1602329816353,80,0.9968262,0.061950684,-0.0413208
1602329816353,81,1.1025391,0.17352295,-0.05987549
1602329816353,82,0.87109375,0.07244873,0.08782959
1602329816353,83,0.67626953,0.09906006,-0.035949707
1602329816353,84,0.86157227,0.058776855,0.18426514
1602329816353,85,1.1337891,0.06707764,-0.069885254
1602329816353,86,0.9772949,0.097351074,-0.14337158
1602329816353,87,1.1025391,0.17352295,-0.05987549
1602329816353,88,0.9367676,0.24993896,-0.097717285
1602329816353,89,0.67626953,0.09906006,-0.035949707
1602329816353,90,0.87109375,0.07244873,0.08782959
1602329816353,91,0.9772949,0.097351074,-0.14337158
1602329816353,92,0.86157227,0.058776855,0.18426514
1602329816353,93,0.9367676,0.24993896,-0.097717285
1602329816353,94,0.87109375,0.07244873,0.08782959
1602329816353,95,0.86157227,0.058776855,0.18426514
1602329816353,96,0.89746094,0.32391357,0.08465576
1602329818741,97,0.89746094,0.32391357,0.08465576
1602329818873,98,0.89746094,0.32391357,0.08465576
1602329818741,99,1.1152344,0.16619873,0.058532715
1602329818741,100,1.1152344,0.16619873,0.058532715
1602329818741,101,1.2368164,0.12713623,0.019958496
1602329818741,102,1.2368164,0.12713623,0.019958496
1602329818741,103,1.1152344,0.16619873,0.058532715
1602329818741,104,0.8330078,0.21575928,-0.06793213
1602329818741,105,1.2368164,0.12713623,0.019958496
1602329818741,106,0.8330078,0.21575928,-0.06793213
1602329818741,107,0.8330078,0.21575928,-0.06793213
1602329818741,108,0.7883301,0.4491577,-0.2000122
1602329818741,109,0.7883301,0.4491577,-0.2000122
1602329818741,110,0.7883301,0.4491577,-0.2000122
1602329818741,111,0.8342285,0.35638428,-0.21783447
1602329818741,112,0.8342285,0.35638428,-0.21783447
1602329818741,113,0.8342285,0.35638428,-0.21783447
1602329818741,114,0.8105469,0.27435303,-0.16290283
1602329818741,115,0.8105469,0.27435303,-0.16290283
1602329818741,116,0.8105469,0.27435303,-0.16290283
1602329818741,117,0.861084,0.17645264,-0.15484619
1602329818741,118,0.861084,0.17645264,-0.15484619
1602329818741,119,0.861084,0.17645264,-0.15484619
1602329818741,120,0.9147949,0.07244873,-0.07696533
1602329818741,121,0.9147949,0.07244873,-0.07696533
1602329818741,122,0.9147949,0.07244873,-0.07696533
1602329818741,123,1.184082,0.20697021,-0.024475098
1602329818741,124,1.184082,0.20697021,-0.024475098
1602329818741,125,1.184082,0.20697021,-0.024475098
1602329818741,126,0.9279785,0.2699585,0.17840576
1602329818741,127,0.9279785,0.2699585,0.17840576
1602329818741,128,0.9279785,0.2699585,0.17840576
1602329818741,129,0.95581055,0.06390381,0.0758667
1602329818742,130,0.95581055,0.06390381,0.0758667
1602329818742,131,0.95581055,0.06390381,0.0758667
1602329818742,132,0.90112305,0.08294678,0.058288574
1602329818742,133,0.90112305,0.08294678,0.058288574
1602329818742,134,0.7805176,0.39007568,0.058532715
1602329818742,135,0.87060547,0.44573975,0.07196045
1602329818742,136,0.7805176,0.39007568,0.058532715
1602329818742,137,0.90112305,0.08294678,0.058288574
1602329818742,138,0.7805176,0.39007568,0.058532715
1602329818742,139,0.87060547,0.44573975,0.07196045
1602329818742,140,0.9501953,0.20062256,0.09295654
1602329818742,141,0.87060547,0.44573975,0.07196045
1602329818742,142,0.9501953,0.20062256,0.09295654
1602329818742,143,1.0146484,0.1762085,0.04144287
1602329818742,144,0.9501953,0.20062256,0.09295654
1602329818742,145,1.0146484,0.1762085,0.04144287
1602329818742,146,0.9343262,0.13909912,-0.11895752
1602329818742,147,1.0146484,0.1762085,0.04144287
1602329818742,148,0.8059082,0.16644287,-0.2468872
1602329818742,149,0.9343262,0.13909912,-0.11895752
1602329818742,150,0.9343262,0.13909912,-0.11895752
1602329818742,151,0.8754883,0.16741943,-0.27520752
1602329818742,152,0.8059082,0.16644287,-0.2468872
1602329818742,153,0.8059082,0.16644287,-0.2468872
1602329818742,154,0.9345703,0.27020264,-0.1765747
1602329818742,155,0.8754883,0.16741943,-0.27520752
1602329818742,156,0.923584,0.35638428,-0.055236816
1602329818742,157,0.9345703,0.27020264,-0.1765747
1602329818742,158,0.8754883,0.16741943,-0.27520752
1602329818742,159,0.9345703,0.27020264,-0.1765747
1602329818742,160,0.923584,0.35638428,-0.055236816
1602329818743,161,0.923584,0.35638428,-0.055236816
1602329818742,162,1.0024414,0.2333374,0.024353027
1602329818743,163,1.0024414,0.2333374,0.024353027
1602329818743,164,1.0065918,0.16815186,0.02532959
1602329818743,165,1.0024414,0.2333374,0.024353027
1602329818743,166,1.0065918,0.16815186,0.02532959
1602329818743,167,0.8737793,0.18841553,-0.024963379
1602329818743,168,1.0065918,0.16815186,0.02532959
1602329818743,169,0.8737793,0.18841553,-0.024963379
1602329818743,170,0.98535156,0.24798584,-0.12335205
1602329818743,171,0.8737793,0.18841553,-0.024963379
1602329818743,172,0.98535156,0.24798584,-0.12335205
1602329818743,173,0.99560547,0.17352295,-0.1362915
1602329818743,174,0.99560547,0.17352295,-0.1362915
1602329818743,175,0.98535156,0.24798584,-0.12335205
1602329818743,176,1.032959,0.16400146,-0.061340332
1602329818743,177,1.032959,0.16400146,-0.061340332
1602329818743,178,0.99560547,0.17352295,-0.1362915
1602329818743,179,0.939209,0.07342529,0.038513184
1602329818743,180,0.939209,0.07342529,0.038513184
1602329818743,181,1.032959,0.16400146,-0.061340332
1602329818743,182,0.8815918,-0.07281494,0.11053467
1602329818743,183,0.84033203,-0.0032348633,0.12176514
1602329818743,184,0.939209,0.07342529,0.038513184
1602329818743,185,0.8688965,0.14715576,0.089782715
1602329818743,186,0.8815918,-0.07281494,0.11053467
1602329818743,187,0.84033203,-0.0032348633,0.12176514
1602329818743,188,0.8815918,-0.07281494,0.11053467
1602329818743,189,0.84033203,-0.0032348633,0.12176514
1602329818743,190,0.8688965,0.14715576,0.089782715
1602329818743,191,0.8688965,0.14715576,0.089782715
1602329821262,192,0.9790039,0.22454834,0.09832764
1602329821262,193,0.9790039,0.22454834,0.09832764
1602329821324,194,0.9790039,0.22454834,0.09832764
1602329821324,195,1.2416992,0.3727417,0.19256592
1602329821324,196,1.0605469,0.34954834,0.29388428
1602329821324,197,1.2416992,0.3727417,0.19256592
1602329821324,198,1.2416992,0.3727417,0.19256592
1602329821324,199,1.0605469,0.34954834,0.29388428
1602329821324,200,0.7404785,0.24041748,0.20111084
1602329821324,201,0.7404785,0.24041748,0.20111084
1602329821324,202,0.93359375,0.2880249,0.0770874
1602329821324,203,1.0605469,0.34954834,0.29388428
1602329821324,204,1.0314941,0.22161865,-0.011047363
1602329821324,205,0.7404785,0.24041748,0.20111084
1602329821324,206,0.93359375,0.2880249,0.0770874
1602329821324,207,0.98095703,0.22503662,-0.07745361
1602329821324,208,1.0314941,0.22161865,-0.011047363
1602329821324,209,0.93359375,0.2880249,0.0770874
1602329821324,210,0.9189453,0.28289795,-0.11431885
1602329821324,211,1.0314941,0.22161865,-0.011047363
1602329821324,212,0.98095703,0.22503662,-0.07745361
1602329821324,213,0.9592285,0.21502686,-0.11553955
1602329821324,214,0.98095703,0.22503662,-0.07745361
1602329821324,215,0.9189453,0.28289795,-0.11431885
1602329821324,216,1.0087891,0.14349365,-0.013977051
1602329821324,217,0.9189453,0.28289795,-0.11431885
1602329821324,218,0.9592285,0.21502686,-0.11553955
1602329821324,219,1.1025391,-0.01739502,0.070007324
1602329821324,220,0.9592285,0.21502686,-0.11553955
1602329821324,221,1.0087891,0.14349365,-0.013977051
1602329821324,222,0.79907227,-0.053527832,0.22845459
1602329821324,223,1.1025391,-0.01739502,0.070007324
1602329821324,224,0.8334961,0.086364746,0.18621826
1602329821325,225,1.1765137,0.1708374,0.061462402
1602329821325,226,0.79907227,-0.053527832,0.22845459
1602329821325,227,1.0087891,0.14349365,-0.013977051
1602329821325,228,0.9313965,0.37591553,0.070739746
1602329821325,229,0.8334961,0.086364746,0.18621826
1602329821325,230,1.1765137,0.1708374,0.061462402
1602329821325,231,1.1025391,-0.01739502,0.070007324
1602329821325,232,0.85839844,0.3427124,0.07220459
1602329821325,233,0.9313965,0.37591553,0.070739746
1602329821325,234,0.79907227,-0.053527832,0.22845459
1602329821325,235,0.8820801,0.2694702,0.1408081
1602329821325,236,0.85839844,0.3427124,0.07220459
1602329821325,237,0.8334961,0.086364746,0.18621826
1602329821325,238,0.9279785,0.34100342,0.30560303
1602329821325,239,0.8820801,0.2694702,0.1408081
1602329821325,240,0.9279785,0.34100342,0.30560303
1602329821325,241,1.1738281,0.28948975,0.28582764
1602329821325,242,1.1765137,0.1708374,0.061462402
1602329821325,243,1.1738281,0.28948975,0.28582764
1602329821325,244,1.1398926,0.3366089,0.11444092
1602329821325,245,0.9313965,0.37591553,0.070739746
1602329821325,246,0.81640625,0.2814331,-0.09454346
1602329821325,247,0.85839844,0.3427124,0.07220459
1602329821325,248,0.93066406,0.3727417,-0.17388916
1602329821325,249,1.1398926,0.3366089,0.11444092
1602329821325,250,0.8820801,0.2694702,0.1408081
1602329821325,251,0.8811035,0.26800537,-0.18707275
1602329821325,252,0.81640625,0.2814331,-0.09454346
1602329821325,253,0.8520508,0.25604248,-0.16192627
1602329821325,254,0.93066406,0.3727417,-0.17388916
1602329821325,255,0.9279785,0.34100342,0.30560303
1602329821325,256,0.8967285,0.18792725,-0.13238525
1602329821325,257,0.8811035,0.26800537,-0.18707275
1602329821326,258,1.1738281,0.28948975,0.28582764
1602329821326,259,0.9807129,0.09100342,-0.08795166
1602329821326,260,1.2216797,0.04925537,-0.023010254
1602329821326,261,1.1398926,0.3366089,0.11444092
1602329821326,262,0.8520508,0.25604248,-0.16192627
1602329821326,263,0.81274414,0.078308105,0.2074585
1602329821326,264,0.81640625,0.2814331,-0.09454346
1602329821326,265,0.8967285,0.18792725,-0.13238525
1602329821326,266,0.92089844,0.024841309,0.10028076
1602329821326,267,0.93066406,0.3727417,-0.17388916
1602329821326,268,0.9807129,0.09100342,-0.08795166
1602329821326,269,1.1464844,0.17279053,0.0692749
1602329821326,270,0.8811035,0.26800537,-0.18707275
1602329821326,271,1.2216797,0.04925537,-0.023010254
1602329821326,272,0.8520508,0.25604248,-0.16192627
1602329821326,273,0.81274414,0.078308105,0.2074585
1602329821326,274,0.8967285,0.18792725,-0.13238525
1602329821326,275,0.92089844,0.024841309,0.10028076
1602329821326,276,0.9807129,0.09100342,-0.08795166
1602329821326,277,1.1464844,0.17279053,0.0692749
1602329821326,278,0.8444824,0.31781006,0.11199951
1602329821326,279,1.2216797,0.04925537,-0.023010254
1602329821326,280,0.81274414,0.15911865,0.0836792
1602329821326,281,0.81274414,0.078308105,0.2074585
1602329821326,282,0.8444824,0.31781006,0.11199951
1602329821326,283,0.81274414,0.15911865,0.0836792
1602329821326,284,0.92089844,0.024841309,0.10028076
1602329821326,285,1.1464844,0.17279053,0.0692749
1602329821326,286,0.8444824,0.31781006,0.11199951
1602329821326,287,0.81274414,0.15911865,0.0836792
1602329821325,288,0.85668945,0.25506592,0.11224365
1602329823907,289,0.85668945,0.25506592,0.11224365
1602329823907,290,0.85668945,0.25506592,0.11224365
1602329823907,291,0.93530273,0.307312,0.22601318
1602329823907,292,0.93530273,0.307312,0.22601318
1602329823907,293,0.93530273,0.307312,0.22601318
1602329823907,294,1.1359863,0.29681396,0.291687
1602329823907,295,1.1359863,0.29681396,0.291687
1602329823907,296,1.1359863,0.29681396,0.291687
1602329823907,297,1.072998,0.25775146,0.2826538
1602329823907,298,1.072998,0.25775146,0.2826538
1602329823907,299,1.072998,0.25775146,0.2826538
1602329823907,300,0.7651367,0.22332764,0.124694824
1602329823907,301,0.7651367,0.22332764,0.124694824
1602329823907,302,0.7651367,0.22332764,0.124694824
1602329823907,303,1.0471191,0.24920654,-0.085754395
1602329823907,304,1.0471191,0.24920654,-0.085754395
1602329823907,305,1.0471191,0.24920654,-0.085754395
1602329823907,306,0.9765625,0.21942139,-0.20684814
1602329823907,307,0.9765625,0.21942139,-0.20684814
1602329823907,308,0.91308594,0.22650146,-0.19390869
1602329823907,309,0.9765625,0.21942139,-0.20684814
1602329823907,310,0.91308594,0.22650146,-0.19390869
1602329823907,311,0.9428711,0.2489624,-0.19366455
1602329823907,312,0.91308594,0.22650146,-0.19390869
1602329823907,313,0.9428711,0.2489624,-0.19366455
1602329823907,314,0.9526367,0.21429443,-0.10870361
1602329823907,315,0.9428711,0.2489624,-0.19366455
1602329823907,316,0.9526367,0.21429443,-0.10870361
1602329823907,317,0.9663086,0.109802246,0.007751465
1602329823907,318,0.9526367,0.21429443,-0.10870361
1602329823907,319,1.1196289,-0.019592285,0.07928467
1602329823907,320,0.9663086,0.109802246,0.007751465
1602329823907,321,0.9663086,0.109802246,0.007751465
1602329823907,322,0.90771484,0.050231934,0.26556396
1602329823907,323,1.1196289,-0.019592285,0.07928467
1602329823907,324,0.90771484,0.050231934,0.26556396
1602329823907,325,1.1196289,-0.019592285,0.07928467
1602329823907,326,0.73657227,0.08709717,0.21234131
1602329823907,327,0.73657227,0.08709717,0.21234131
1602329823907,328,0.90771484,0.050231934,0.26556396
1602329823907,329,0.73657227,0.08709717,0.21234131
1602329823907,330,1.1276855,0.21600342,0.17572021
1602329823907,331,1.1276855,0.21600342,0.17572021
1602329823907,332,1.1276855,0.21600342,0.17572021
1602329823907,333,0.9675293,0.43695068,0.22039795
1602329823907,334,0.9675293,0.43695068,0.22039795
1602329823907,335,0.9675293,0.43695068,0.22039795
1602329823907,336,0.8479004,0.2987671,0.116882324
1602329823907,337,0.8479004,0.2987671,0.116882324
1602329823907,338,0.8479004,0.2987671,0.116882324
1602329823907,339,0.90063477,0.22015381,0.10784912
1602329823907,340,0.90063477,0.22015381,0.10784912
1602329823907,341,0.90063477,0.22015381,0.10784912
1602329823907,342,0.9411621,0.3151245,0.12249756
1602329823907,343,0.9411621,0.3151245,0.12249756
1602329823907,344,1.0007324,0.29364014,0.09906006
1602329823907,345,0.9411621,0.3151245,0.12249756
1602329823907,346,1.0007324,0.29364014,0.09906006
1602329823907,347,1.0007324,0.29364014,0.09906006
1602329823907,348,1.0944824,0.21234131,0.032409668
1602329823907,349,1.0944824,0.21234131,0.032409668
1602329823907,350,0.9580078,0.12786865,-0.015686035
1602329823907,351,0.9580078,0.12786865,-0.015686035
1602329823907,352,1.0944824,0.21234131,0.032409668
1602329823907,353,0.78125,0.16107178,-0.04522705
1602329823907,354,0.78125,0.16107178,-0.04522705
1602329823907,355,0.81030273,0.21795654,-0.08892822
1602329823907,356,0.81030273,0.21795654,-0.08892822
1602329823907,357,0.91137695,0.27996826,-0.08673096
1602329823907,358,0.9580078,0.12786865,-0.015686035
1602329823907,359,0.98583984,0.32635498,-0.051574707
1602329823907,360,0.78125,0.16107178,-0.04522705
1602329823907,361,0.91137695,0.27996826,-0.08673096
1602329823907,362,1.0144043,0.2538452,-0.02154541
1602329823907,363,0.98583984,0.32635498,-0.051574707
1602329823907,364,0.81030273,0.21795654,-0.08892822
1602329823907,365,1.0144043,0.2538452,-0.02154541
1602329823907,366,0.91137695,0.27996826,-0.08673096
1602329823907,367,1.0817871,0.2164917,-0.043762207
1602329823907,368,1.0817871,0.2164917,-0.043762207
1602329823907,369,0.98583984,0.32635498,-0.051574707
1602329823907,370,0.95751953,0.17669678,-0.051086426
1602329823907,371,0.95751953,0.17669678,-0.051086426
1602329823907,372,1.0144043,0.2538452,-0.02154541
1602329823907,373,1.0817871,0.2164917,-0.043762207
1602329823907,374,0.9333496,0.16741943,-0.035949707
1602329823907,375,0.9333496,0.16741943,-0.035949707
1602329823907,376,0.95751953,0.17669678,-0.051086426
1602329823907,377,0.8898926,0.04852295,-0.010803223
1602329823907,378,0.9333496,0.16741943,-0.035949707
1602329823907,379,0.8898926,0.04852295,-0.010803223
1602329823907,380,0.83984375,0.046813965,1.8310547E-4
1602329823907,381,0.8898926,0.04852295,-0.010803223
1602329823907,382,0.83984375,0.046813965,1.8310547E-4
1602329823907,383,0.83984375,0.046813965,1.8310547E-4
1602329826490,384,0.89868164,0.14324951,0.035095215
1602329823907,385,0.89868164,0.14324951,0.035095215
1602329826490,386,0.89868164,0.14324951,0.035095215
1602329826490,387,0.9326172,0.2501831,0.15350342
1602329826490,388,0.9326172,0.2501831,0.15350342
1602329826490,389,0.9326172,0.2501831,0.15350342
1602329826490,390,1.0568848,0.18304443,0.14056396
1602329826490,391,1.0568848,0.18304443,0.14056396
1602329826490,392,1.0568848,0.18304443,0.14056396
1602329826490,393,1.0998535,0.21868896,0.13446045
1602329826490,394,1.0998535,0.21868896,0.13446045
1602329826490,395,1.0998535,0.21868896,0.13446045
1602329826490,396,0.9020996,0.27752686,0.18841553
1602329826490,397,0.84814453,0.12786865,0.1828003
1602329826490,398,0.9020996,0.27752686,0.18841553
1602329826490,399,0.9020996,0.27752686,0.18841553
1602329826490,400,0.842041,0.13665771,0.17425537
1602329826490,401,0.84814453,0.12786865,0.1828003
1602329826490,402,0.84814453,0.12786865,0.1828003
1602329826490,403,0.8137207,0.1918335,0.16278076
1602329826490,404,0.842041,0.13665771,0.17425537
1602329826490,405,0.8864746,0.22259521,0.1552124
1602329826490,406,0.842041,0.13665771,0.17425537
1602329826490,407,0.8137207,0.1918335,0.16278076
1602329826490,408,1.0041504,0.24261475,0.17840576
1602329826490,409,0.8137207,0.1918335,0.16278076
1602329826490,410,0.8864746,0.22259521,0.1552124
1602329826490,411,1.2133789,0.28778076,0.16497803
1602329826490,412,0.8864746,0.22259521,0.1552124
1602329826490,413,1.0041504,0.24261475,0.17840576
1602329826490,414,0.9914551,0.23016357,0.124938965
1602329826490,415,1.2133789,0.28778076,0.16497803
1602329826490,416,1.0041504,0.24261475,0.17840576
1602329826490,417,1.2133789,0.28778076,0.16497803
1602329826490,418,0.9914551,0.23016357,0.124938965
1602329826490,419,0.9187012,0.168396,0.034118652
1602329826490,420,0.98413086,0.1329956,-0.08428955
1602329826490,421,0.9914551,0.23016357,0.124938965
1602329826490,422,0.89331055,0.1515503,-0.13873291
1602329826490,423,0.9187012,0.168396,0.034118652
1602329826490,424,0.8432617,0.18157959,-0.066223145
1602329826490,425,0.9187012,0.168396,0.034118652
1602329826490,426,0.85058594,0.10784912,0.07733154
1602329826490,427,0.98413086,0.1329956,-0.08428955
1602329826490,428,0.98413086,0.1329956,-0.08428955
1602329826490,429,0.89331055,0.1515503,-0.13873291
1602329826490,430,0.89331055,0.1515503,-0.13873291
1602329826490,431,0.8364258,0.04949951,0.18109131
1602329826490,432,0.8432617,0.18157959,-0.066223145
1602329826490,433,0.8432617,0.18157959,-0.066223145
1602329826490,434,0.93408203,0.07562256,0.14837646
1602329826490,435,0.85058594,0.10784912,0.07733154
1602329826490,436,1.276123,0.13983154,0.07904053
1602329826490,437,0.85058594,0.10784912,0.07733154
1602329826490,438,0.8364258,0.04949951,0.18109131
1602329826490,439,1.0622559,0.20770264,0.066833496
1602329826490,440,0.8364258,0.04949951,0.18109131
1602329826490,441,0.93408203,0.07562256,0.14837646
1602329826490,442,0.97436523,0.32122803,-0.058898926
1602329826490,443,0.93408203,0.07562256,0.14837646
1602329826490,444,1.276123,0.13983154,0.07904053
1602329826490,445,0.9091797,0.31658936,-0.105285645
1602329826490,446,1.0622559,0.20770264,0.066833496
1602329826490,447,1.276123,0.13983154,0.07904053
1602329826490,448,0.7216797,0.3204956,-0.053771973
1602329826490,449,0.97436523,0.32122803,-0.058898926
1602329826490,450,1.0622559,0.20770264,0.066833496
1602329826490,451,0.8117676,0.2723999,0.03753662
1602329826490,452,0.9091797,0.31658936,-0.105285645
1602329826490,453,0.97436523,0.32122803,-0.058898926
1602329826490,454,0.9604492,0.27874756,0.32391357
1602329826490,455,0.7216797,0.3204956,-0.053771973
1602329826490,456,0.9091797,0.31658936,-0.105285645
1602329826490,457,0.8117676,0.2723999,0.03753662
1602329826490,458,1.0856934,-0.10430908,0.61883545
1602329826490,459,0.7216797,0.3204956,-0.053771973
1602329826490,460,0.9604492,0.27874756,0.32391357
1602329826490,461,0.8117676,0.2723999,0.03753662
1602329826490,462,1.0856934,-0.10430908,0.61883545
1602329826490,463,1.2062988,0.36468506,0.22528076
1602329826490,464,1.2062988,0.36468506,0.22528076
1602329826490,465,1.0634766,0.15301514,0.059265137
1602329826490,466,0.9604492,0.27874756,0.32391357
1602329826490,467,1.0856934,-0.10430908,0.61883545
1602329826490,468,1.0634766,0.15301514,0.059265137
1602329826490,469,1.2062988,0.36468506,0.22528076
1602329826490,470,0.80078125,0.2140503,-0.0010375977
1602329826490,471,0.80078125,0.2140503,-0.0010375977
1602329826490,472,1.0634766,0.15301514,0.059265137
1602329826490,473,0.96875,0.21966553,-0.1375122
1602329826490,474,0.80078125,0.2140503,-0.0010375977
1602329826490,475,0.96875,0.21966553,-0.1375122
1602329826490,476,0.8444824,0.18548584,-0.19146729
1602329826490,477,0.8444824,0.18548584,-0.19146729
1602329826490,478,0.96875,0.21966553,-0.1375122
1602329826490,479,0.8444824,0.18548584,-0.19146729
1602329829010,480,0.8364258,0.246521,-0.14678955
1602329829074,481,0.8364258,0.246521,-0.14678955
1602329826490,482,0.8364258,0.246521,-0.14678955
1602329829074,483,0.88671875,0.16864014,-0.08526611
1602329829074,484,0.88671875,0.16864014,-0.08526611
1602329829074,485,0.9489746,0.11639404,0.018249512
1602329829074,486,0.9489746,0.11639404,0.018249512
1602329829074,487,0.88671875,0.16864014,-0.08526611
1602329829074,488,1.0102539,0.062438965,0.24139404
1602329829074,489,1.0102539,0.062438965,0.24139404
1602329829074,490,1.1784668,0.11663818,0.2584839
1602329829074,491,1.1784668,0.11663818,0.2584839
1602329829074,492,0.9489746,0.11639404,0.018249512
1602329829074,493,0.8881836,0.25408936,0.08416748
1602329829074,494,0.8881836,0.25408936,0.08416748
1602329829074,495,1.0102539,0.062438965,0.24139404
1602329829074,496,0.7895508,0.15228271,0.05706787
1602329829074,497,0.7895508,0.15228271,0.05706787
1602329829074,498,1.048584,0.291687,-0.024963379
1602329829074,499,1.1784668,0.11663818,0.2584839
1602329829074,500,0.8881836,0.25408936,0.08416748
1602329829074,501,1.048584,0.291687,-0.024963379
1602329829074,502,0.81933594,0.2723999,0.018493652
1602329829074,503,0.81933594,0.2723999,0.018493652
1602329829074,504,0.78125,0.30389404,0.11663818
1602329829074,505,0.7895508,0.15228271,0.05706787
1602329829074,506,0.78125,0.30389404,0.11663818
1602329829074,507,1.048584,0.291687,-0.024963379
1602329829074,508,0.87841797,0.024353027,0.31365967
1602329829074,509,0.87841797,0.024353027,0.31365967
1602329829074,510,0.81933594,0.2723999,0.018493652
1602329829074,511,0.95458984,0.10638428,0.5043335
1602329829074,512,0.95458984,0.10638428,0.5043335
1602329829074,513,1.1037598,0.49700928,0.14324951
1602329829074,514,1.1037598,0.49700928,0.14324951
1602329829074,515,0.78125,0.30389404,0.11663818
1602329829074,516,1.1123047,0.23406982,0.049987793
1602329829074,517,0.87841797,0.024353027,0.31365967
1602329829074,518,1.1123047,0.23406982,0.049987793
1602329829074,519,0.8276367,0.22650146,0.06903076
1602329829074,520,0.95458984,0.10638428,0.5043335
1602329829074,521,0.8725586,0.22796631,0.007507324
1602329829074,522,0.8276367,0.22650146,0.06903076
1602329829074,523,1.1037598,0.49700928,0.14324951
1602329829074,524,0.8930664,0.23968506,-0.06109619
1602329829074,525,0.8725586,0.22796631,0.007507324
1602329829074,526,1.1123047,0.23406982,0.049987793
1602329829074,527,0.92993164,0.2843628,-0.09552002
1602329829074,528,0.8276367,0.22650146,0.06903076
1602329829074,529,0.8930664,0.23968506,-0.06109619
1602329829074,530,0.8725586,0.22796631,0.007507324
1602329829074,531,0.92993164,0.2843628,-0.09552002
1602329829074,532,0.8930664,0.23968506,-0.06109619
1602329829074,533,0.9094238,0.2892456,-0.12042236
1602329829074,534,0.9094238,0.2892456,-0.12042236
1602329829074,535,0.90893555,0.28875732,-0.13433838
1602329829074,536,0.90893555,0.28875732,-0.13433838
1602329829074,537,0.92578125,0.2741089,-0.120666504
1602329829074,538,0.92993164,0.2843628,-0.09552002
1602329829074,539,0.98706055,0.24920654,-0.09234619
1602329829074,540,0.9094238,0.2892456,-0.12042236
1602329829074,541,0.98657227,0.1762085,-0.07598877
1602329829074,542,0.90893555,0.28875732,-0.13433838
1602329829074,543,0.8979492,0.14691162,-0.045715332
1602329829074,544,0.92578125,0.2741089,-0.120666504
1602329829074,545,0.86816406,0.15911865,-0.04449463
1602329829074,546,0.92578125,0.2741089,-0.120666504
1602329829074,547,0.98706055,0.24920654,-0.09234619
1602329829074,548,1.0058594,0.19500732,-0.062316895
1602329829074,549,0.98706055,0.24920654,-0.09234619
1602329829074,550,0.98657227,0.1762085,-0.07598877
1602329829074,551,0.93603516,0.25604248,0.00579834
1602329829074,552,0.98657227,0.1762085,-0.07598877
1602329829074,553,0.8979492,0.14691162,-0.045715332
1602329829074,554,0.9785156,0.19622803,-0.012268066
1602329829074,555,0.8979492,0.14691162,-0.045715332
1602329829074,556,0.86816406,0.15911865,-0.04449463
1602329829074,557,1.0727539,0.109069824,-0.026184082
1602329829074,558,1.0058594,0.19500732,-0.062316895
1602329829074,559,0.86816406,0.15911865,-0.04449463
1602329829074,560,0.94921875,0.09466553,0.1473999
1602329829074,561,0.93603516,0.25604248,0.00579834
1602329829074,562,0.8222656,0.12347412,0.07952881
1602329829074,563,0.8334961,0.18011475,0.105895996
1602329829074,564,1.0058594,0.19500732,-0.062316895
1602329829074,565,0.9785156,0.19622803,-0.012268066
1602329829074,566,0.93603516,0.25604248,0.00579834
1602329829074,567,1.0727539,0.109069824,-0.026184082
1602329829074,568,0.9785156,0.19622803,-0.012268066
1602329829074,569,0.94921875,0.09466553,0.1473999
1602329829074,570,1.0727539,0.109069824,-0.026184082
1602329829074,571,0.94921875,0.09466553,0.1473999
1602329829074,572,0.8222656,0.12347412,0.07952881
1602329829074,573,0.8222656,0.12347412,0.07952881
1602329829074,574,0.8334961,0.18011475,0.105895996
1602329829074,575,0.8334961,0.18011475,0.105895996
1602329829074,576,0.84765625,0.23846436,0.0993042
1602329831658,577,0.84765625,0.23846436,0.0993042
1602329831658,578,0.9567871,0.21942139,0.11395264
1602329831594,579,0.84765625,0.23846436,0.0993042
1602329831658,580,1.0056152,0.21234131,0.13568115
1602329831658,581,0.9567871,0.21942139,0.11395264
1602329831658,582,0.9567871,0.21942139,0.11395264
1602329831658,583,1.079834,0.24505615,0.17645264
1602329831658,584,1.0056152,0.21234131,0.13568115
1602329831658,585,1.0056152,0.21234131,0.13568115
1602329831658,586,0.90185547,0.23187256,0.19866943
1602329831658,587,1.079834,0.24505615,0.17645264
1602329831658,588,1.079834,0.24505615,0.17645264
1602329831658,589,0.7832031,0.25726318,0.11541748
1602329831658,590,0.90185547,0.23187256,0.19866943
1602329831658,591,0.90185547,0.23187256,0.19866943
1602329831658,592,0.9580078,0.25897217,0.028747559
1602329831658,593,0.7832031,0.25726318,0.11541748
1602329831659,594,0.95751953,0.2711792,-0.026184082
1602329831659,595,0.7832031,0.25726318,0.11541748
1602329831659,596,0.9580078,0.25897217,0.028747559
1602329831659,597,0.9580078,0.25897217,0.028747559
1602329831659,598,0.95751953,0.2711792,-0.026184082
1602329831659,599,0.8840332,0.27679443,-0.04425049
1602329831659,600,0.95751953,0.2711792,-0.026184082
1602329831659,601,0.8840332,0.27679443,-0.04425049
1602329831659,602,0.9108887,0.20965576,-0.074279785
1602329831659,603,0.8840332,0.27679443,-0.04425049
1602329831659,604,0.8925781,0.1461792,-0.07086182
1602329831659,605,0.9108887,0.20965576,-0.074279785
1602329831659,606,0.9108887,0.20965576,-0.074279785
1602329831659,607,0.8925781,0.1461792,-0.07086182
1602329831659,608,0.951416,0.17327881,-0.04937744
1602329831659,609,0.951416,0.17327881,-0.04937744
1602329831660,610,0.8925781,0.1461792,-0.07086182
1602329831660,611,1.1386719,0.16571045,0.015808105
1602329831660,612,1.1386719,0.16571045,0.015808105
1602329831660,613,0.951416,0.17327881,-0.04937744
1602329831660,614,0.98095703,0.10321045,0.15228271
1602329831660,615,1.1386719,0.16571045,0.015808105
1602329831660,616,0.98095703,0.10321045,0.15228271
1602329831660,617,0.7697754,0.026794434,0.121032715
1602329831660,618,0.98095703,0.10321045,0.15228271
1602329831660,619,0.7697754,0.026794434,0.121032715
1602329831660,620,0.9838867,0.14666748,0.042663574
1602329831660,621,0.7697754,0.026794434,0.121032715
1602329831660,622,0.8967285,0.23602295,0.058776855
1602329831660,623,0.9838867,0.14666748,0.042663574
1602329831660,624,0.9838867,0.14666748,0.042663574
1602329831660,625,0.8581543,0.21356201,0.074645996
1602329831661,626,0.8967285,0.23602295,0.058776855
1602329831661,627,0.8967285,0.23602295,0.058776855
1602329831661,628,0.8581543,0.21356201,0.074645996
1602329831661,629,0.8947754,0.18817139,0.11590576
1602329831661,630,0.8581543,0.21356201,0.074645996
1602329831661,631,0.8947754,0.18817139,0.11590576
1602329831661,632,0.8947754,0.18817139,0.11590576
1602329831661,633,0.88842773,0.2230835,0.19256592
1602329831661,634,0.88842773,0.2230835,0.19256592
1602329831661,635,0.88842773,0.2230835,0.19256592
1602329831661,636,0.88964844,0.18963623,0.23699951
1602329831661,637,0.88964844,0.18963623,0.23699951
1602329831661,638,0.9536133,0.19329834,0.2296753
1602329831661,639,0.88964844,0.18963623,0.23699951
1602329831661,640,0.9536133,0.19329834,0.2296753
1602329831662,641,1.1862793,0.27435303,0.18743896
1602329831662,642,1.1862793,0.27435303,0.18743896
1602329831662,643,0.9536133,0.19329834,0.2296753
1602329831662,644,0.9526367,0.26141357,0.13348389
1602329831662,645,0.9526367,0.26141357,0.13348389
1602329831662,646,1.1862793,0.27435303,0.18743896
1602329831662,647,0.8786621,0.20843506,0.038513184
1602329831662,648,0.8786621,0.20843506,0.038513184
1602329831662,649,0.9526367,0.26141357,0.13348389
1602329831662,650,0.982666,0.15545654,-0.04840088
1602329831662,651,0.982666,0.15545654,-0.04840088
1602329831662,652,0.9082031,0.16571045,-0.11505127
1602329831662,653,0.8786621,0.20843506,0.038513184
1602329831662,654,0.9082031,0.16571045,-0.11505127
1602329831662,655,0.88671875,0.215271,-0.097473145
1602329831662,656,0.982666,0.15545654,-0.04840088
1602329831663,657,0.9099121,0.16375732,-0.031066895
1602329831663,658,0.9082031,0.16571045,-0.11505127
1602329831662,659,0.88671875,0.215271,-0.097473145
1602329831663,660,0.89404297,0.012878418,0.03704834
1602329831663,661,0.88671875,0.215271,-0.097473145
1602329831663,662,0.9099121,0.16375732,-0.031066895
1602329831663,663,1.0095215,0.010192871,0.11541748
1602329831663,664,0.9099121,0.16375732,-0.031066895
1602329831663,665,0.89404297,0.012878418,0.03704834
1602329831663,666,1.1904297,0.090270996,0.21331787
1602329831663,667,0.89404297,0.012878418,0.03704834
1602329831663,668,1.0095215,0.010192871,0.11541748
1602329831663,669,1.0095215,0.010192871,0.11541748
1602329831663,670,1.1904297,0.090270996,0.21331787
1602329831663,671,1.1904297,0.090270996,0.21331787
1602329831660,672,0.84350586,0.089782715,0.15081787
1602329834438,673,0.84350586,0.089782715,0.15081787
1602329834180,674,0.84350586,0.089782715,0.15081787
1602329834438,675,1.1630859,0.22894287,-0.047180176
1602329834438,676,1.1630859,0.22894287,-0.047180176
1602329834438,677,0.92529297,0.2999878,-0.101379395
1602329834438,678,1.1630859,0.22894287,-0.047180176
1602329834438,679,0.720459,0.3678589,-0.023986816
1602329834438,680,0.92529297,0.2999878,-0.101379395
1602329834438,681,0.92529297,0.2999878,-0.101379395
1602329834438,682,0.720459,0.3678589,-0.023986816
1602329834438,683,0.720459,0.3678589,-0.023986816
1602329834438,684,0.8041992,0.20404053,0.0138549805
1602329834438,685,0.8041992,0.20404053,0.0138549805
1602329834438,686,0.8041992,0.20404053,0.0138549805
1602329834438,687,0.8833008,0.29901123,0.1852417
1602329834438,688,0.8833008,0.29901123,0.1852417
1602329834438,689,0.8833008,0.29901123,0.1852417
1602329834438,690,1.045166,0.27825928,0.2670288
1602329834438,691,1.045166,0.27825928,0.2670288
1602329834438,692,1.045166,0.27825928,0.2670288
1602329834438,693,1.3115234,-0.1104126,0.35321045
1602329834438,694,1.3115234,-0.1104126,0.35321045
1602329834438,695,1.3115234,-0.1104126,0.35321045
1602329834438,696,0.94555664,-0.13189697,0.15203857
1602329834438,697,0.94555664,-0.13189697,0.15203857
1602329834438,698,0.94555664,-0.13189697,0.15203857
1602329834438,699,0.78466797,0.1486206,0.109313965
1602329834438,700,0.78466797,0.1486206,0.109313965
1602329834438,701,0.78466797,0.1486206,0.109313965
1602329834438,702,1.032959,0.3895874,-0.028869629
1602329834438,703,1.032959,0.3895874,-0.028869629
1602329834438,704,1.032959,0.3895874,-0.028869629
1602329834439,705,0.94873047,0.184021,-0.14581299
1602329834438,706,0.94873047,0.184021,-0.14581299
1602329834439,707,0.86816406,0.31903076,-0.15118408
1602329834439,708,0.94873047,0.184021,-0.14581299
1602329834439,709,0.86816406,0.31903076,-0.15118408
1602329834439,710,0.91430664,0.25335693,-0.16680908
1602329834439,711,0.86816406,0.31903076,-0.15118408
1602329834439,712,0.91430664,0.25335693,-0.16680908
1602329834439,713,0.86621094,0.12689209,-0.11212158
1602329834439,714,0.91430664,0.25335693,-0.16680908
1602329834439,715,0.86621094,0.12689209,-0.11212158
1602329834439,716,1.0979004,0.18450928,-0.07159424
1602329834439,717,0.86621094,0.12689209,-0.11212158
1602329834439,718,1.0979004,0.18450928,-0.07159424
1602329834439,719,1.0761719,0.19671631,0.18865967
1602329834439,720,1.0761719,0.19671631,0.18865967
1602329834439,721,1.0979004,0.18450928,-0.07159424
1602329834439,722,1.0761719,0.19671631,0.18865967
1602329834439,723,0.69140625,0.015563965,0.2243042
1602329834439,724,0.69140625,0.015563965,0.2243042
1602329834439,725,0.69140625,0.015563965,0.2243042
1602329834439,726,0.9511719,0.054626465,0.20184326
1602329834439,727,0.9511719,0.054626465,0.20184326
1602329834439,728,1.0004883,0.30999756,0.21356201
1602329834439,729,1.0004883,0.30999756,0.21356201
1602329834439,730,0.9511719,0.054626465,0.20184326
1602329834439,731,1.0004883,0.30999756,0.21356201
1602329834439,732,0.81762695,0.46868896,0.105163574
1602329834439,733,0.81762695,0.46868896,0.105163574
1602329834439,734,0.81762695,0.46868896,0.105163574
1602329834439,735,0.8198242,0.33587646,0.06365967
1602329834439,736,0.8198242,0.33587646,0.06365967
1602329834439,737,0.8198242,0.33587646,0.06365967
1602329834440,738,0.8605957,0.4196167,0.036071777
1602329834440,739,0.8605957,0.4196167,0.036071777
1602329834440,740,0.89575195,0.39056396,0.02947998
1602329834440,741,0.8605957,0.4196167,0.036071777
1602329834440,742,0.89575195,0.39056396,0.02947998
1602329834440,743,1.0009766,0.27972412,0.042419434
1602329834440,744,1.0009766,0.27972412,0.042419434
1602329834440,745,0.9765625,0.15447998,0.05340576
1602329834440,746,0.89575195,0.39056396,0.02947998
1602329834440,747,0.9094238,0.2526245,0.022155762
1602329834440,748,1.0009766,0.27972412,0.042419434
1602329834440,749,0.9765625,0.15447998,0.05340576
1602329834440,750,0.92578125,0.2164917,-0.021057129
1602329834440,751,0.9765625,0.15447998,0.05340576
1602329834440,752,0.9404297,0.22625732,-0.061584473
1602329834440,753,0.9094238,0.2526245,0.022155762
1602329834440,754,0.9094238,0.2526245,0.022155762
1602329834440,755,0.8952637,0.30438232,-0.08770752
1602329834440,756,0.92578125,0.2164917,-0.021057129
1602329834440,757,0.8935547,0.35003662,-0.11895752
1602329834440,758,0.92578125,0.2164917,-0.021057129
1602329834440,759,0.9404297,0.22625732,-0.061584473
1602329834440,760,0.9223633,0.2897339,-0.11871338
1602329834440,761,0.9404297,0.22625732,-0.061584473
1602329834440,762,0.8952637,0.30438232,-0.08770752
1602329834440,763,0.8952637,0.30438232,-0.08770752
1602329834440,764,0.8935547,0.35003662,-0.11895752
1602329834440,765,0.8935547,0.35003662,-0.11895752
1602329834440,766,0.9223633,0.2897339,-0.11871338
1602329834440,767,0.9223633,0.2897339,-0.11871338
1602329836959,768,0.9387207,0.230896,-0.11065674
1602329836626,769,0.9387207,0.230896,-0.11065674
1602329834439,770,0.9387207,0.230896,-0.11065674
1602329836626,771,0.99658203,0.18572998,-0.109191895
1602329836626,772,0.99658203,0.18572998,-0.109191895
1602329836626,773,0.99658203,0.18572998,-0.109191895
1602329836626,774,0.9892578,0.1618042,-0.09967041
1602329836626,775,0.9892578,0.1618042,-0.09967041
1602329836626,776,0.95092773,0.17181396,-0.07623291
1602329836626,777,0.9892578,0.1618042,-0.09967041
1602329836626,778,0.95092773,0.17181396,-0.07623291
1602329836626,779,0.90649414,0.15667725,-0.06719971
1602329836626,780,0.95092773,0.17181396,-0.07623291
1602329836626,781,0.90649414,0.15667725,-0.06719971
1602329836626,782,0.8532715,0.16448975,-0.023254395
1602329836626,783,0.90649414,0.15667725,-0.06719971
1602329836626,784,0.8532715,0.16448975,-0.023254395
1602329836626,785,0.8417969,0.18328857,0.03778076
1602329836626,786,0.8532715,0.16448975,-0.023254395
1602329836626,787,0.8417969,0.18328857,0.03778076
1602329836626,788,0.8417969,0.18328857,0.03778076
1602329836626,789,1.0073242,0.1876831,0.06903076
1602329836626,790,1.0073242,0.1876831,0.06903076
1602329836626,791,1.0073242,0.1876831,0.06903076
1602329836626,792,1.0415039,0.18621826,0.089538574
1602329836626,793,1.0415039,0.18621826,0.089538574
1602329836626,794,1.0273438,0.12860107,0.13934326
1602329836626,795,1.0273438,0.12860107,0.13934326
1602329836626,796,1.0415039,0.18621826,0.089538574
1602329836626,797,0.80249023,0.12664795,0.12982178
1602329836626,798,0.80249023,0.12664795,0.12982178
1602329836626,799,1.0273438,0.12860107,0.13934326
1602329836626,800,0.83325195,0.18914795,0.0770874
1602329836626,801,0.83325195,0.18914795,0.0770874
1602329836627,802,0.80249023,0.12664795,0.12982178
1602329836627,803,0.86450195,0.22332764,0.09442139
1602329836627,804,0.86450195,0.22332764,0.09442139
1602329836627,805,0.83325195,0.18914795,0.0770874
1602329836627,806,0.8847656,0.18109131,0.12420654
1602329836627,807,0.86450195,0.22332764,0.09442139
1602329836627,808,0.8847656,0.18109131,0.12420654
1602329836627,809,0.8847656,0.18109131,0.12420654
1602329836627,810,0.9394531,0.137146,0.17694092
1602329836627,811,0.9394531,0.137146,0.17694092
1602329836627,812,0.9394531,0.137146,0.17694092
1602329836627,813,1.1108398,0.10614014,0.17791748
1602329836627,814,1.1108398,0.10614014,0.17791748
1602329836627,815,1.1108398,0.10614014,0.17791748
1602329836627,816,1.1174316,0.1630249,0.055603027
1602329836627,817,1.1174316,0.1630249,0.055603027
1602329836627,818,0.9255371,0.15325928,0.026306152
1602329836627,819,1.1174316,0.1630249,0.055603027
1602329836627,820,0.9255371,0.15325928,0.026306152
1602329836627,821,0.7871094,0.15325928,-0.012023926
1602329836627,822,0.9255371,0.15325928,0.026306152
1602329836627,823,0.86083984,0.2062378,-0.08526611
1602329836627,824,0.7871094,0.15325928,-0.012023926
1602329836627,825,0.9523926,0.1942749,-0.11480713
1602329836627,826,0.86083984,0.2062378,-0.08526611
1602329836627,827,0.7871094,0.15325928,-0.012023926
1602329836627,828,0.8996582,0.21478271,-0.058166504
1602329836627,829,0.9523926,0.1942749,-0.11480713
1602329836627,830,0.86083984,0.2062378,-0.08526611
1602329836627,831,0.9050293,0.18597412,0.012390137
1602329836627,832,0.9523926,0.1942749,-0.11480713
1602329836628,833,0.86376953,0.034606934,0.11663818
1602329836627,834,0.8996582,0.21478271,-0.058166504
1602329836628,835,0.9050293,0.18597412,0.012390137
1602329836628,836,0.9260254,0.105651855,0.21820068
1602329836628,837,0.8996582,0.21478271,-0.058166504
1602329836628,838,0.86376953,0.034606934,0.11663818
1602329836628,839,0.95996094,0.3505249,0.06536865
1602329836628,840,0.9050293,0.18597412,0.012390137
1602329836628,841,0.9260254,0.105651855,0.21820068
1602329836628,842,0.86376953,0.034606934,0.11663818
1602329836628,843,1.0437012,0.22723389,-0.0115356445
1602329836628,844,0.95996094,0.3505249,0.06536865
1602329836628,845,1.104248,0.27191162,-0.046203613
1602329836628,846,1.0437012,0.22723389,-0.0115356445
1602329836628,847,0.9260254,0.105651855,0.21820068
1602329836628,848,0.80810547,0.30169678,-0.007385254
1602329836628,849,1.104248,0.27191162,-0.046203613
1602329836628,850,0.95996094,0.3505249,0.06536865
1602329836628,851,0.8742676,0.22137451,-0.04473877
1602329836628,852,0.9423828,0.18426514,-0.03302002
1602329836628,853,0.9785156,0.08856201,0.2501831
1602329836628,854,1.0437012,0.22723389,-0.0115356445
1602329836628,855,1.104248,0.27191162,-0.046203613
1602329836628,856,0.80810547,0.30169678,-0.007385254
1602329836628,857,0.80810547,0.30169678,-0.007385254
1602329836628,858,0.8742676,0.22137451,-0.04473877
1602329836628,859,0.8742676,0.22137451,-0.04473877
1602329836628,860,0.9423828,0.18426514,-0.03302002
1602329836628,861,0.9785156,0.08856201,0.2501831
1602329836628,862,0.9423828,0.18426514,-0.03302002
1602329836628,863,0.9785156,0.08856201,0.2501831
1602329836627,864,0.92700195,-0.117492676,0.3571167
1602329839147,865,0.92700195,-0.117492676,0.3571167
1602329839149,866,0.77734375,0.2789917,-0.004699707
1602329839151,867,0.77734375,0.2789917,-0.004699707
1602329839153,868,0.8117676,0.18353271,0.03289795
1602329839215,869,0.92700195,-0.117492676,0.3571167
1602329839215,870,0.8117676,0.18353271,0.03289795
1602329839215,871,0.9589844,0.23406982,0.10418701
1602329839215,872,0.77734375,0.2789917,-0.004699707
1602329839215,873,0.9589844,0.23406982,0.10418701
1602329839215,874,1.0561523,0.2789917,0.1539917
1602329839215,875,0.8117676,0.18353271,0.03289795
1602329839215,876,1.0561523,0.2789917,0.1539917
1602329839216,877,1.0620117,0.21502686,0.27850342
1602329839216,878,1.0620117,0.21502686,0.27850342
1602329839216,879,0.9589844,0.23406982,0.10418701
1602329839216,880,1.0561523,0.2789917,0.1539917
1602329839216,881,0.9682617,0.1930542,0.20281982
1602329839216,882,0.9682617,0.1930542,0.20281982
1602329839216,883,1.0620117,0.21502686,0.27850342
1602329839217,884,0.9682617,0.1930542,0.20281982
1602329839217,885,0.87719727,0.066833496,0.09613037
1602329839217,886,0.87719727,0.066833496,0.09613037
1602329839217,887,0.98217773,0.199646,-0.034973145
1602329839217,888,0.98217773,0.199646,-0.034973145
1602329839216,889,0.87719727,0.066833496,0.09613037
1602329839217,890,0.8947754,0.1906128,-0.10235596
1602329839217,891,0.8947754,0.1906128,-0.10235596
1602329839217,892,0.98217773,0.199646,-0.034973145
1602329839218,893,0.8334961,0.19940186,-0.08526611
1602329839218,894,0.8947754,0.1906128,-0.10235596
1602329839218,895,0.8432617,0.12908936,-0.044006348
1602329839218,896,0.8334961,0.19940186,-0.08526611
1602329839218,897,0.8498535,0.1005249,0.026306152
1602329839218,898,0.8334961,0.19940186,-0.08526611
1602329839218,899,0.91967773,0.12298584,0.12542725
1602329839219,900,0.8432617,0.12908936,-0.044006348
1602329839218,901,0.8432617,0.12908936,-0.044006348
1602329839219,902,0.8498535,0.1005249,0.026306152
1602329839219,903,0.8498535,0.1005249,0.026306152
1602329839219,904,1.0664062,0.17474365,0.2658081
1602329839219,905,0.91967773,0.12298584,0.12542725
1602329839219,906,0.91967773,0.12298584,0.12542725
1602329839219,907,1.2583008,0.2802124,0.093444824
1602329839220,908,1.0664062,0.17474365,0.2658081
1602329839219,909,1.0664062,0.17474365,0.2658081
1602329839220,910,0.85131836,0.08856201,0.0758667
1602329839220,911,1.2583008,0.2802124,0.093444824
1602329839220,912,1.2583008,0.2802124,0.093444824
1602329839220,913,0.8117676,0.26483154,-0.090148926
1602329839220,914,0.85131836,0.08856201,0.0758667
1602329839220,915,0.85131836,0.08856201,0.0758667
1602329839220,916,0.94506836,0.24090576,-0.15338135
1602329839221,917,0.8117676,0.26483154,-0.090148926
1602329839221,918,0.8117676,0.26483154,-0.090148926
1602329839221,919,0.7854004,0.31072998,-0.008850098
1602329839221,920,0.94506836,0.24090576,-0.15338135
1602329839221,921,0.95214844,0.19476318,0.086364746
1602329839221,922,0.94506836,0.24090576,-0.15338135
1602329839221,923,1.0390625,-0.2564087,0.49945068
1602329839222,924,0.7854004,0.31072998,-0.008850098
1602329839221,925,0.7854004,0.31072998,-0.008850098
1602329839222,926,0.95214844,0.19476318,0.086364746
1602329839222,927,0.83447266,0.34661865,0.11419678
1602329839222,928,0.8469238,0.17767334,0.059265137
1602329839222,929,1.0390625,-0.2564087,0.49945068
1602329839222,930,0.95214844,0.19476318,0.086364746
1602329839222,931,0.9621582,0.25286865,0.12298584
1602329839223,932,1.0390625,-0.2564087,0.49945068
1602329839223,933,0.83447266,0.34661865,0.11419678
1602329839223,934,1.0375977,0.28900146,0.1876831
1602329839223,935,0.83447266,0.34661865,0.11419678
1602329839223,936,0.8469238,0.17767334,0.059265137
1602329839223,937,1.1184082,0.24554443,0.2086792
1602329839223,938,0.8469238,0.17767334,0.059265137
1602329839223,939,0.9621582,0.25286865,0.12298584
1602329839223,940,0.9145508,0.05316162,0.09222412
1602329839224,941,0.9621582,0.25286865,0.12298584
1602329839224,942,1.0375977,0.28900146,0.1876831
1602329839224,943,1.0375977,0.28900146,0.1876831
1602329839224,944,0.78637695,0.12713623,0.01776123
1602329839224,945,1.1184082,0.24554443,0.2086792
1602329839224,946,0.920166,0.24334717,-0.13702393
1602329839224,947,0.9145508,0.05316162,0.09222412
1602329839225,948,0.90356445,0.1539917,-0.14752197
1602329839225,949,0.78637695,0.12713623,0.01776123
1602329839225,950,0.88427734,0.2531128,-0.066711426
1602329839224,951,1.1184082,0.24554443,0.2086792
1602329839225,952,0.920166,0.24334717,-0.13702393
1602329839225,953,0.90356445,0.1539917,-0.14752197
1602329839225,954,0.9145508,0.05316162,0.09222412
1602329839225,955,0.78637695,0.12713623,0.01776123
1602329839226,956,0.88427734,0.2531128,-0.066711426
1602329839226,957,0.920166,0.24334717,-0.13702393
1602329839226,958,0.90356445,0.1539917,-0.14752197
1602329839226,959,0.88427734,0.2531128,-0.066711426
1602329839219,960,0.892334,0.17596436,0.016784668
1602329841793,961,0.892334,0.17596436,0.016784668
1602329841739,962,0.892334,0.17596436,0.016784668
1602329841793,963,0.9082031,0.13153076,0.1564331
1602329841793,964,0.9082031,0.13153076,0.1564331
1602329841793,965,0.9082031,0.13153076,0.1564331
1602329841793,966,0.9663086,0.121276855,0.21356201
1602329841793,967,0.9663086,0.121276855,0.21356201
1602329841793,968,0.9663086,0.121276855,0.21356201
1602329841793,969,1.0725098,0.15985107,0.17694092
1602329841793,970,1.0725098,0.15985107,0.17694092
1602329841793,971,1.0478516,0.19207764,0.074157715
1602329841793,972,1.0725098,0.15985107,0.17694092
1602329841793,973,1.0478516,0.19207764,0.074157715
1602329841793,974,1.0478516,0.19207764,0.074157715
1602329841793,975,0.8552246,0.19696045,0.06121826
1602329841793,976,0.8552246,0.19696045,0.06121826
1602329841793,977,0.8552246,0.19696045,0.06121826
1602329841793,978,0.814209,0.2140503,0.04119873
1602329841793,979,0.814209,0.2140503,0.04119873
1602329841793,980,0.814209,0.2140503,0.04119873
1602329841793,981,0.92529297,0.21063232,0.043884277
1602329841793,982,0.92529297,0.21063232,0.043884277
1602329841793,983,0.99365234,0.24676514,0.093688965
1602329841793,984,0.99365234,0.24676514,0.093688965
1602329841793,985,0.92529297,0.21063232,0.043884277
1602329841793,986,0.94189453,0.1515503,0.14984131
1602329841793,987,0.99365234,0.24676514,0.093688965
1602329841793,988,0.94189453,0.1515503,0.14984131
1602329841793,989,0.82250977,0.06097412,0.15985107
1602329841793,990,0.82250977,0.06097412,0.15985107
1602329841793,991,0.94189453,0.1515503,0.14984131
1602329841793,992,0.8718262,0.10662842,0.1774292
1602329841793,993,0.8718262,0.10662842,0.1774292
1602329841794,994,0.82250977,0.06097412,0.15985107
1602329841794,995,0.89160156,0.15057373,0.18206787
1602329841794,996,0.8718262,0.10662842,0.1774292
1602329841794,997,0.89160156,0.15057373,0.18206787
1602329841794,998,0.89160156,0.15057373,0.18206787
1602329841794,999,0.89038086,0.15301514,0.1630249
1602329841794,1000,0.89038086,0.15301514,0.1630249
1602329841794,1001,0.9008789,0.21136475,0.16278076
1602329841794,1002,0.89038086,0.15301514,0.1630249
1602329841794,1003,0.9008789,0.21136475,0.16278076
1602329841794,1004,0.9243164,0.23675537,0.17669678
1602329841794,1005,0.9008789,0.21136475,0.16278076
1602329841794,1006,0.9243164,0.23675537,0.17669678
1602329841794,1007,0.97436523,0.24066162,0.1954956
1602329841794,1008,0.97436523,0.24066162,0.1954956
1602329841794,1009,0.9243164,0.23675537,0.17669678
1602329841794,1010,0.9279785,0.23309326,0.14300537
1602329841794,1011,0.9279785,0.23309326,0.14300537
1602329841794,1012,0.97436523,0.24066162,0.1954956
1602329841794,1013,0.9760742,0.2230835,0.07342529
1602329841794,1014,0.9760742,0.2230835,0.07342529
1602329841794,1015,0.9614258,0.21160889,0.0033569336
1602329841794,1016,0.9279785,0.23309326,0.14300537
1602329841794,1017,0.9614258,0.21160889,0.0033569336
1602329841794,1018,0.9433594,0.18865967,-0.06768799
1602329841794,1019,0.9760742,0.2230835,0.07342529
1602329841794,1020,0.9433594,0.18865967,-0.06768799
1602329841794,1021,0.8996582,0.18426514,-0.11920166
1602329841794,1022,0.9614258,0.21160889,0.0033569336
1602329841794,1023,0.8967285,0.2333374,-0.11602783
1602329841794,1024,0.8996582,0.18426514,-0.11920166
1602329841795,1025,0.9067383,0.20306396,-0.09429932
1602329841795,1026,0.8967285,0.2333374,-0.11602783
1602329841794,1027,0.9433594,0.18865967,-0.06768799
1602329841795,1028,0.9277344,0.18255615,-0.06451416
1602329841795,1029,0.9067383,0.20306396,-0.09429932
1602329841795,1030,0.8996582,0.18426514,-0.11920166
1602329841795,1031,0.9277344,0.18255615,-0.06451416
1602329841795,1032,0.95947266,0.19720459,-0.03326416
1602329841795,1033,0.95947266,0.19720459,-0.03326416
1602329841795,1034,0.8967285,0.2333374,-0.11602783
1602329841795,1035,0.9350586,0.19232178,-0.010559082
1602329841795,1036,0.9350586,0.19232178,-0.010559082
1602329841795,1037,0.9067383,0.20306396,-0.09429932
1602329841795,1038,0.9387207,0.1437378,-0.010070801
1602329841795,1039,0.9387207,0.1437378,-0.010070801
1602329841795,1040,0.9277344,0.18255615,-0.06451416
1602329841795,1041,0.8395996,0.2020874,-0.0022583008
1602329841795,1042,0.91308594,0.23529053,-0.010070801
1602329841795,1043,0.95947266,0.19720459,-0.03326416
1602329841795,1044,0.8395996,0.2020874,-0.0022583008
1602329841795,1045,0.9350586,0.19232178,-0.010559082
1602329841795,1046,0.9716797,0.24749756,0.021911621
1602329841795,1047,0.9387207,0.1437378,-0.010070801
1602329841795,1048,0.91308594,0.23529053,-0.010070801
1602329841795,1049,0.8395996,0.2020874,-0.0022583008
1602329841795,1050,0.97216797,0.23358154,0.05291748
1602329841795,1051,0.9716797,0.24749756,0.021911621
1602329841795,1052,0.91308594,0.23529053,-0.010070801
1602329841795,1053,0.97216797,0.23358154,0.05291748
1602329841795,1054,0.9716797,0.24749756,0.021911621
1602329841795,1055,0.97216797,0.23358154,0.05291748
1602329841794,1056,0.9909668,0.14569092,0.026306152
1602329844574,1057,0.9909668,0.14569092,0.026306152
1602329844574,1058,0.9909668,0.14569092,0.026306152
1602329844574,1059,1.0354004,0.12591553,-0.07476807
1602329844574,1060,1.0354004,0.12591553,-0.07476807
1602329844574,1061,1.0354004,0.12591553,-0.07476807
1602329844574,1062,1.0305176,0.11199951,-0.11895752
1602329844574,1063,1.0305176,0.11199951,-0.11895752
1602329844574,1064,1.0305176,0.11199951,-0.11895752
1602329844574,1065,0.8574219,0.06854248,-0.11090088
1602329844574,1066,0.8574219,0.06854248,-0.11090088
1602329844574,1067,0.8574219,0.06854248,-0.11090088
1602329844574,1068,0.920166,0.0770874,-0.062805176
1602329844574,1069,0.920166,0.0770874,-0.062805176
1602329844574,1070,0.920166,0.0770874,-0.062805176
1602329844574,1071,0.8820801,0.08148193,0.032409668
1602329844574,1072,0.8820801,0.08148193,0.032409668
1602329844574,1073,0.9128418,0.04437256,0.08343506
1602329844574,1074,0.8820801,0.08148193,0.032409668
1602329844574,1075,0.8942871,0.043395996,0.12420654
1602329844574,1076,0.9128418,0.04437256,0.08343506
1602329844574,1077,0.88916016,0.06439209,0.15374756
1602329844574,1078,0.8942871,0.043395996,0.12420654
1602329844574,1079,0.9128418,0.04437256,0.08343506
1602329844574,1080,0.97314453,0.082214355,0.14569092
1602329844574,1081,0.8942871,0.043395996,0.12420654
1602329844574,1082,1.1254883,0.116882324,0.08441162
1602329844574,1083,0.88916016,0.06439209,0.15374756
1602329844574,1084,0.88916016,0.06439209,0.15374756
1602329844574,1085,0.97314453,0.082214355,0.14569092
1602329844574,1086,0.97314453,0.082214355,0.14569092
1602329844574,1087,0.9284668,0.14520264,0.062927246
1602329844574,1088,0.82055664,0.121032715,0.03265381
1602329844574,1089,1.1254883,0.116882324,0.08441162
1602329844574,1090,1.1254883,0.116882324,0.08441162
1602329844574,1091,0.8703613,0.19378662,-0.015930176
1602329844574,1092,0.9284668,0.14520264,0.062927246
1602329844574,1093,0.9284668,0.14520264,0.062927246
1602329844574,1094,0.97216797,0.20428467,-0.043273926
1602329844574,1095,0.82055664,0.121032715,0.03265381
1602329844574,1096,0.82055664,0.121032715,0.03265381
1602329844574,1097,0.88549805,0.23187256,0.0018920898
1602329844574,1098,0.8703613,0.19378662,-0.015930176
1602329844574,1099,0.8703613,0.19378662,-0.015930176
1602329844574,1100,0.9199219,0.19915771,0.04168701
1602329844574,1101,0.97216797,0.20428467,-0.043273926
1602329844574,1102,0.97216797,0.20428467,-0.043273926
1602329844574,1103,0.90405273,0.11224365,0.0770874
1602329844574,1104,0.88549805,0.23187256,0.0018920898
1602329844574,1105,0.88549805,0.23187256,0.0018920898
1602329844574,1106,0.94555664,0.109558105,0.113220215
1602329844574,1107,0.9199219,0.19915771,0.04168701
1602329844574,1108,0.9199219,0.19915771,0.04168701
1602329844574,1109,0.90405273,0.11224365,0.0770874
1602329844574,1110,1.0791016,0.09906006,0.08343506
1602329844574,1111,0.94555664,0.109558105,0.113220215
1602329844574,1112,0.90405273,0.11224365,0.0770874
1602329844574,1113,0.9741211,0.11444092,0.06365967
1602329844574,1114,1.0791016,0.09906006,0.08343506
1602329844574,1115,0.94555664,0.109558105,0.113220215
1602329844574,1116,0.9741211,0.11444092,0.06365967
1602329844574,1117,0.87231445,0.15081787,0.051940918
1602329844574,1118,0.87231445,0.15081787,0.051940918
1602329844574,1119,1.0791016,0.09906006,0.08343506
1602329844574,1120,0.82788086,0.12713623,-0.017150879
1602329844574,1121,0.9741211,0.11444092,0.06365967
1602329844574,1122,0.9992676,0.18792725,-0.06060791
1602329844574,1123,0.82788086,0.12713623,-0.017150879
1602329844574,1124,0.9147949,0.19818115,0.07928467
1602329844574,1125,0.87231445,0.15081787,0.051940918
1602329844574,1126,0.9992676,0.18792725,-0.06060791
1602329844574,1127,0.8442383,0.11077881,0.18817139
1602329844574,1128,0.9147949,0.19818115,0.07928467
1602329844574,1129,0.82788086,0.12713623,-0.017150879
1602329844574,1130,0.8442383,0.11077881,0.18817139
1602329844574,1131,0.9350586,0.097595215,0.22576904
1602329844574,1132,0.9992676,0.18792725,-0.06060791
1602329844574,1133,0.9350586,0.097595215,0.22576904
1602329844574,1134,0.9284668,0.15765381,0.22821045
1602329844574,1135,0.9147949,0.19818115,0.07928467
1602329844574,1136,0.9284668,0.15765381,0.22821045
1602329844574,1137,0.8442383,0.11077881,0.18817139
1602329844574,1138,0.9099121,0.13787842,0.20599365
1602329844574,1139,0.9099121,0.13787842,0.20599365
1602329844574,1140,0.9350586,0.097595215,0.22576904
1602329844574,1141,0.97436523,0.13909912,0.18914795
1602329844574,1142,0.97436523,0.13909912,0.18914795
1602329844574,1143,0.9284668,0.15765381,0.22821045
1602329844574,1144,1.1237793,0.18621826,0.1642456
1602329844574,1145,0.9099121,0.13787842,0.20599365
1602329844574,1146,0.9326172,0.16278076,0.1293335
1602329844574,1147,1.1237793,0.18621826,0.1642456
1602329844574,1148,0.97436523,0.13909912,0.18914795
1602329844574,1149,0.9326172,0.16278076,0.1293335
1602329844574,1150,1.1237793,0.18621826,0.1642456
1602329844574,1151,0.9326172,0.16278076,0.1293335
1602329847094,1152,0.8730469,0.101257324,0.039733887
1602329844574,1153,0.8730469,0.101257324,0.039733887
1602329846961,1154,0.8730469,0.101257324,0.039733887
1602329846961,1155,0.94384766,0.1293335,-0.08526611
1602329846961,1156,0.94384766,0.1293335,-0.08526611
1602329846961,1157,0.94384766,0.1293335,-0.08526611
1602329846961,1158,0.92871094,0.16864014,-0.14239502
1602329846961,1159,0.92871094,0.16864014,-0.14239502
1602329846961,1160,0.92871094,0.16864014,-0.14239502
1602329846961,1161,0.89501953,0.15008545,-0.06573486
1602329846961,1162,0.89501953,0.15008545,-0.06573486
1602329846961,1163,0.89501953,0.15008545,-0.06573486
1602329846961,1164,0.8623047,0.10614014,0.03363037
1602329846961,1165,0.8623047,0.10614014,0.03363037
1602329846961,1166,0.8623047,0.10614014,0.03363037
1602329846961,1167,0.8828125,0.062438965,0.097351074
1602329846961,1168,0.8828125,0.062438965,0.097351074
1602329846961,1169,0.8828125,0.062438965,0.097351074
1602329846961,1170,0.93896484,0.08660889,0.14324951
1602329846961,1171,0.93896484,0.08660889,0.14324951
1602329846961,1172,1.0283203,0.13909912,0.124694824
1602329846961,1173,1.0283203,0.13909912,0.124694824
1602329846961,1174,0.93896484,0.08660889,0.14324951
1602329846961,1175,1.1411133,0.18792725,0.09051514
1602329846961,1176,0.9050293,0.19940186,0.11151123
1602329846961,1177,1.1411133,0.18792725,0.09051514
1602329846961,1178,1.0283203,0.13909912,0.124694824
1602329846961,1179,0.8154297,0.19793701,0.06951904
1602329846961,1180,0.9050293,0.19940186,0.11151123
1602329846961,1181,1.0095215,0.15789795,-6.1035156E-5
1602329846961,1182,1.1411133,0.18792725,0.09051514
1602329846961,1183,0.8154297,0.19793701,0.06951904
1602329846961,1184,0.9050293,0.19940186,0.11151123
1602329846961,1185,0.86816406,0.14471436,0.032409668
1602329846961,1186,1.0095215,0.15789795,-6.1035156E-5
1602329846961,1187,0.8154297,0.19793701,0.06951904
1602329846961,1188,0.84887695,0.039245605,0.050231934
1602329846961,1189,0.86816406,0.14471436,0.032409668
1602329846961,1190,1.0095215,0.15789795,-6.1035156E-5
1602329846961,1191,0.84887695,0.039245605,0.050231934
1602329846961,1192,0.86816406,0.14471436,0.032409668
1602329846961,1193,0.91137695,0.034362793,0.12835693
1602329846961,1194,0.84887695,0.039245605,0.050231934
1602329846961,1195,0.91137695,0.034362793,0.12835693
1602329846961,1196,0.93237305,0.08294678,0.19671631
1602329846961,1197,0.93237305,0.08294678,0.19671631
1602329846961,1198,0.91137695,0.034362793,0.12835693
1602329846961,1199,0.9448242,0.07196045,0.2008667
1602329846961,1200,1.0383301,0.15545654,0.15570068
1602329846961,1201,0.9448242,0.07196045,0.2008667
1602329846961,1202,0.93237305,0.08294678,0.19671631
1602329846961,1203,1.0717773,0.19207764,0.10638428
1602329846961,1204,0.89575195,0.1786499,0.08050537
1602329846961,1205,1.0383301,0.15545654,0.15570068
1602329846961,1206,0.9448242,0.07196045,0.2008667
1602329846961,1207,0.8249512,0.12689209,0.028259277
1602329846961,1208,1.0383301,0.15545654,0.15570068
1602329846961,1209,1.0717773,0.19207764,0.10638428
1602329846961,1210,0.9238281,0.15423584,-0.078186035
1602329846961,1211,1.0717773,0.19207764,0.10638428
1602329846961,1212,0.89575195,0.1786499,0.08050537
1602329846961,1213,0.89575195,0.1786499,0.08050537
1602329846961,1214,0.9680176,0.18304443,-0.15045166
1602329846961,1215,0.8898926,0.23577881,-0.120666504
1602329846961,1216,0.8249512,0.12689209,0.028259277
1602329846961,1217,0.8249512,0.12689209,0.028259277
1602329846961,1218,0.9238281,0.15423584,-0.078186035
1602329846961,1219,0.9238281,0.15423584,-0.078186035
1602329846961,1220,0.9091797,0.18426514,-0.06060791
1602329846961,1221,0.9399414,0.032165527,-0.006164551
1602329846961,1222,0.9680176,0.18304443,-0.15045166
1602329846961,1223,0.9680176,0.18304443,-0.15045166
1602329846961,1224,0.8898926,0.23577881,-0.120666504
1602329846961,1225,0.99438477,0.04949951,0.026306152
1602329846961,1226,0.8898926,0.23577881,-0.120666504
1602329846961,1227,0.9091797,0.18426514,-0.06060791
1602329846961,1228,1.0898438,0.07489014,0.010925293
1602329846961,1229,0.9267578,0.1227417,0.10736084
1602329846961,1230,0.9399414,0.032165527,-0.006164551
1602329846961,1231,0.8041992,0.18328857,0.15594482
1602329846961,1232,0.9091797,0.18426514,-0.06060791
1602329846961,1233,0.9538574,0.26263428,0.12689209
1602329846961,1234,0.9399414,0.032165527,-0.006164551
1602329846961,1235,0.99438477,0.04949951,0.026306152
1602329846961,1236,0.9848633,0.3319702,0.1329956
1602329846961,1237,1.0898438,0.07489014,0.010925293
1602329846961,1238,0.99438477,0.04949951,0.026306152
1602329846961,1239,1.0898438,0.07489014,0.010925293
1602329846961,1240,0.9267578,0.1227417,0.10736084
1602329846961,1241,0.9267578,0.1227417,0.10736084
1602329846961,1242,0.8041992,0.18328857,0.15594482
1602329846961,1243,0.8041992,0.18328857,0.15594482
1602329846961,1244,0.9538574,0.26263428,0.12689209
1602329846961,1245,0.9538574,0.26263428,0.12689209
1602329846961,1246,0.9848633,0.3319702,0.1329956
1602329846961,1247,0.9848633,0.3319702,0.1329956
1602329846961,1248,0.9350586,0.22869873,0.10736084
1602329849940,1249,0.9350586,0.22869873,0.10736084
1602329849940,1250,0.9350586,0.22869873,0.10736084
1602329849940,1251,0.90625,0.15618896,0.09100342
1602329849940,1252,0.90625,0.15618896,0.09100342
1602329849940,1253,0.89453125,0.19525146,0.055603027
1602329849940,1254,0.90625,0.15618896,0.09100342
1602329849940,1255,0.89453125,0.19525146,0.055603027
1602329849940,1256,0.89453125,0.19525146,0.055603027
1602329849940,1257,0.892334,0.21868896,0.038513184
1602329849940,1258,0.892334,0.21868896,0.038513184
1602329849940,1259,0.92578125,0.20794678,0.046325684
1602329849940,1260,0.92578125,0.20794678,0.046325684
1602329849940,1261,0.9716797,0.19720459,0.046569824
1602329849940,1262,0.892334,0.21868896,0.038513184
1602329849940,1263,0.9716797,0.19720459,0.046569824
1602329849940,1264,0.86279297,0.19036865,0.03387451
1602329849940,1265,0.92578125,0.20794678,0.046325684
1602329849940,1266,0.8666992,0.20697021,0.002380371
1602329849940,1267,0.86279297,0.19036865,0.03387451
1602329849940,1268,0.9716797,0.19720459,0.046569824
1602329849940,1269,0.87231445,0.23651123,-0.019592285
1602329849940,1270,0.86279297,0.19036865,0.03387451
1602329849940,1271,0.8666992,0.20697021,0.002380371
1602329849940,1272,0.8666992,0.20697021,0.002380371
1602329849940,1273,0.87231445,0.23651123,-0.019592285
1602329849940,1274,0.9614258,0.29486084,-0.043029785
1602329849940,1275,0.9614258,0.29486084,-0.043029785
1602329849940,1276,0.87231445,0.23651123,-0.019592285
1602329849940,1277,0.9868164,0.24822998,-0.054992676
1602329849940,1278,0.9868164,0.24822998,-0.054992676
1602329849940,1279,0.9614258,0.29486084,-0.043029785
1602329849940,1280,0.9975586,0.23797607,-0.03741455
1602329849940,1281,0.9975586,0.23797607,-0.03741455
1602329849940,1282,0.9868164,0.24822998,-0.054992676
1602329849940,1283,0.9550781,0.20281982,-0.022766113
1602329849940,1284,0.9550781,0.20281982,-0.022766113
1602329849940,1285,0.92333984,0.14324951,-0.037902832
1602329849940,1286,0.9975586,0.23797607,-0.03741455
1602329849940,1287,0.92333984,0.14324951,-0.037902832
1602329849940,1288,0.9550781,0.20281982,-0.022766113
1602329849940,1289,0.9187012,0.1317749,-0.069885254
1602329849940,1290,0.9187012,0.1317749,-0.069885254
1602329849940,1291,0.92333984,0.14324951,-0.037902832
1602329849940,1292,0.8996582,0.17401123,-0.1038208
1602329849940,1293,0.8996582,0.17401123,-0.1038208
1602329849940,1294,0.90649414,0.2296753,0.016784668
1602329849940,1295,0.90649414,0.2296753,0.016784668
1602329849940,1296,0.85913086,0.1515503,0.15008545
1602329849940,1297,0.9187012,0.1317749,-0.069885254
1602329849940,1298,0.8996582,0.17401123,-0.1038208
1602329849940,1299,0.85913086,0.1515503,0.15008545
1602329849940,1300,0.9890137,0.08807373,0.15496826
1602329849940,1301,0.90649414,0.2296753,0.016784668
1602329849940,1302,0.9890137,0.08807373,0.15496826
1602329849940,1303,1.0402832,0.24603271,0.15496826
1602329849940,1304,1.0402832,0.24603271,0.15496826
1602329849940,1305,0.85913086,0.1515503,0.15008545
1602329849940,1306,0.9277344,0.14910889,0.124938965
1602329849940,1307,0.9277344,0.14910889,0.124938965
1602329849940,1308,0.9890137,0.08807373,0.15496826
1602329849940,1309,0.8679199,0.09710693,0.098083496
1602329849940,1310,0.8679199,0.09710693,0.098083496
1602329849940,1311,0.87109375,0.11541748,0.08050537
1602329849940,1312,1.0402832,0.24603271,0.15496826
1602329849940,1313,0.8522949,0.13153076,0.09710693
1602329849940,1314,0.87109375,0.11541748,0.08050537
1602329849940,1315,0.9277344,0.14910889,0.124938965
1602329849940,1316,0.8522949,0.13153076,0.09710693
1602329849940,1317,0.8835449,0.1473999,0.12371826
1602329849940,1318,0.8679199,0.09710693,0.098083496
1602329849940,1319,0.8835449,0.1473999,0.12371826
1602329849940,1320,0.87109375,0.11541748,0.08050537
1602329849940,1321,1.0500488,0.17547607,0.12786865
1602329849940,1322,1.0500488,0.17547607,0.12786865
1602329849940,1323,0.8522949,0.13153076,0.09710693
1602329849940,1324,1.0893555,0.18572998,0.10784912
1602329849940,1325,1.0893555,0.18572998,0.10784912
1602329849940,1326,0.8835449,0.1473999,0.12371826
1602329849940,1327,0.9277344,0.16937256,0.074157715
1602329849940,1328,0.9277344,0.16937256,0.074157715
1602329849940,1329,0.81030273,0.15667725,0.0446167
1602329849940,1330,0.81030273,0.15667725,0.0446167
1602329849940,1331,0.90722656,0.19451904,-0.008361816
1602329849940,1332,1.0500488,0.17547607,0.12786865
1602329849940,1333,0.90722656,0.19451904,-0.008361816
1602329849940,1334,0.94311523,0.17694092,-0.023498535
1602329849940,1335,0.94311523,0.17694092,-0.023498535
1602329849940,1336,0.9140625,0.2074585,0.010925293
1602329849940,1337,1.0893555,0.18572998,0.10784912
1602329849940,1338,0.9140625,0.2074585,0.010925293
1602329849940,1339,0.9277344,0.16937256,0.074157715
1602329849940,1340,0.81030273,0.15667725,0.0446167
1602329849940,1341,0.90722656,0.19451904,-0.008361816
1602329849940,1342,0.94311523,0.17694092,-0.023498535
1602329849940,1343,0.9140625,0.2074585,0.010925293
1602329849940,1344,0.87890625,0.14349365,0.021911621
1602329852128,1345,0.87890625,0.14349365,0.021911621
1602329852460,1346,0.87890625,0.14349365,0.021911621
1602329852128,1347,0.8664551,0.11663818,0.039489746
1602329852128,1348,0.8664551,0.11663818,0.039489746
1602329852128,1349,0.8664551,0.11663818,0.039489746
1602329852128,1350,1.0935059,0.1593628,0.014587402
1602329852128,1351,1.0935059,0.1593628,0.014587402
1602329852128,1352,1.0935059,0.1593628,0.014587402
1602329852128,1353,1.0256348,0.19573975,0.09564209
1602329852128,1354,1.0256348,0.19573975,0.09564209
1602329852128,1355,1.0256348,0.19573975,0.09564209
1602329852128,1356,0.77734375,0.089782715,0.117370605
1602329852128,1357,0.77734375,0.089782715,0.117370605
1602329852128,1358,0.77734375,0.089782715,0.117370605
1602329852128,1359,1.0009766,0.047790527,0.021911621
1602329852128,1360,1.0009766,0.047790527,0.021911621
1602329852128,1361,0.9760742,0.1395874,0.04925537
1602329852128,1362,0.9760742,0.1395874,0.04925537
1602329852128,1363,1.0009766,0.047790527,0.021911621
1602329852128,1364,0.8618164,0.05291748,0.097351074
1602329852128,1365,0.8618164,0.05291748,0.097351074
1602329852128,1366,0.89331055,0.013366699,0.097351074
1602329852128,1367,0.89331055,0.013366699,0.097351074
1602329852128,1368,0.8937988,0.1329956,0.13421631
1602329852128,1369,0.9760742,0.1395874,0.04925537
1602329852128,1370,0.8937988,0.1329956,0.13421631
1602329852128,1371,0.8996582,0.121520996,0.16937256
1602329852128,1372,0.8618164,0.05291748,0.097351074
1602329852128,1373,0.8996582,0.121520996,0.16937256
1602329852128,1374,0.89331055,0.013366699,0.097351074
1602329852128,1375,0.95532227,0.12322998,0.17230225
1602329852128,1376,0.95532227,0.12322998,0.17230225
1602329852128,1377,0.8937988,0.1329956,0.13421631
1602329852129,1378,1.095459,0.15789795,0.15594482
1602329852129,1379,0.8996582,0.121520996,0.16937256
1602329852129,1380,1.095459,0.15789795,0.15594482
1602329852129,1381,0.95532227,0.12322998,0.17230225
1602329852129,1382,1.029541,0.16009521,0.15008545
1602329852129,1383,1.029541,0.16009521,0.15008545
1602329852129,1384,1.095459,0.15789795,0.15594482
1602329852129,1385,0.8276367,0.06072998,0.09832764
1602329852129,1386,0.8276367,0.06072998,0.09832764
1602329852129,1387,1.029541,0.16009521,0.15008545
1602329852129,1388,0.92211914,0.044128418,-0.028625488
1602329852129,1389,0.92211914,0.044128418,-0.028625488
1602329852129,1390,0.8276367,0.06072998,0.09832764
1602329852129,1391,0.98657227,0.094177246,-0.12896729
1602329852129,1392,0.98657227,0.094177246,-0.12896729
1602329852129,1393,0.92211914,0.044128418,-0.028625488
1602329852129,1394,0.88256836,0.13885498,-0.07965088
1602329852129,1395,0.88256836,0.13885498,-0.07965088
1602329852129,1396,0.8601074,0.07147217,-0.0029907227
1602329852129,1397,0.8601074,0.07147217,-0.0029907227
1602329852129,1398,0.98657227,0.094177246,-0.12896729
1602329852129,1399,0.87890625,0.05657959,0.061950684
1602329852129,1400,0.87890625,0.05657959,0.061950684
1602329852129,1401,0.88256836,0.13885498,-0.07965088
1602329852129,1402,0.9304199,0.066589355,0.10003662
1602329852129,1403,0.9304199,0.066589355,0.10003662
1602329852129,1404,0.9746094,0.15618896,0.10467529
1602329852129,1405,0.8601074,0.07147217,-0.0029907227
1602329852129,1406,0.9746094,0.15618896,0.10467529
1602329852129,1407,1.0810547,0.18841553,0.08270264
1602329852130,1408,1.0695801,0.1564331,0.0836792
1602329852129,1409,1.0810547,0.18841553,0.08270264
1602329852129,1410,0.87890625,0.05657959,0.061950684
1602329852130,1411,0.79174805,0.11859131,0.09222412
1602329852130,1412,1.0695801,0.1564331,0.0836792
1602329852130,1413,0.9304199,0.066589355,0.10003662
1602329852130,1414,0.79174805,0.11859131,0.09222412
1602329852130,1415,0.9746094,0.15618896,0.10467529
1602329852130,1416,0.9387207,0.0758667,0.018249512
1602329852130,1417,1.0810547,0.18841553,0.08270264
1602329852130,1418,0.9387207,0.0758667,0.018249512
1602329852130,1419,0.9602051,0.082214355,0.016052246
1602329852130,1420,1.0695801,0.1564331,0.0836792
1602329852130,1421,0.9602051,0.082214355,0.016052246
1602329852130,1422,0.79174805,0.11859131,0.09222412
1602329852130,1423,0.8527832,0.089782715,0.09539795
1602329852130,1424,0.9387207,0.0758667,0.018249512
1602329852130,1425,0.9013672,0.0018920898,0.1227417
1602329852130,1426,0.8527832,0.089782715,0.09539795
1602329852130,1427,0.9602051,0.082214355,0.016052246
1602329852130,1428,0.9003906,0.08416748,0.16864014
1602329852130,1429,0.9013672,0.0018920898,0.1227417
1602329852130,1430,0.92041016,0.14593506,0.17694092
1602329852130,1431,0.8527832,0.089782715,0.09539795
1602329852130,1432,1.0095215,0.20037842,0.13909912
1602329852130,1433,0.9003906,0.08416748,0.16864014
1602329852130,1434,0.9013672,0.0018920898,0.1227417
1602329852130,1435,0.92041016,0.14593506,0.17694092
1602329852130,1436,0.9003906,0.08416748,0.16864014
1602329852130,1437,1.0095215,0.20037842,0.13909912
1602329852130,1438,0.92041016,0.14593506,0.17694092
1602329852130,1439,1.0095215,0.20037842,0.13909912
1602329854649,1440,1.0249023,0.23626709,0.08807373
1602329854712,1441,1.0249023,0.23626709,0.08807373
1602329852129,1442,1.0249023,0.23626709,0.08807373
1602329854712,1443,0.94750977,0.15057373,0.032165527
1602329854712,1444,0.94750977,0.15057373,0.032165527
1602329854712,1445,0.8532715,0.1408081,-0.0134887695
1602329854712,1446,0.94750977,0.15057373,0.032165527
1602329854712,1447,0.8532715,0.1408081,-0.0134887695
1602329854712,1448,0.8532715,0.1408081,-0.0134887695
1602329854712,1449,0.923584,0.16009521,-0.07940674
1602329854712,1450,0.923584,0.16009521,-0.07940674
1602329854712,1451,0.923584,0.16009521,-0.07940674
1602329854712,1452,0.8688965,0.1552124,-0.07647705
1602329854712,1453,0.8688965,0.1552124,-0.07647705
1602329854712,1454,0.8688965,0.1552124,-0.07647705
1602329854712,1455,0.890625,0.23016357,-0.026428223
1602329854712,1456,0.890625,0.23016357,-0.026428223
1602329854712,1457,0.890625,0.23016357,-0.026428223
1602329854712,1458,0.93188477,0.16253662,0.03314209
1602329854712,1459,0.93188477,0.16253662,0.03314209
1602329854712,1460,0.9753418,0.14642334,0.070739746
1602329854712,1461,0.93188477,0.16253662,0.03314209
1602329854712,1462,0.9753418,0.14642334,0.070739746
1602329854712,1463,1.0085449,0.19403076,0.10272217
1602329854712,1464,0.9199219,0.2345581,0.11785889
1602329854712,1465,1.0085449,0.19403076,0.10272217
1602329854712,1466,0.9753418,0.14642334,0.070739746
1602329854712,1467,0.8942871,0.15325928,0.101745605
1602329854712,1468,0.9199219,0.2345581,0.11785889
1602329854712,1469,0.9074707,0.184021,0.098083496
1602329854712,1470,0.8942871,0.15325928,0.101745605
1602329854712,1471,1.0085449,0.19403076,0.10272217
1602329854712,1472,0.9941406,0.23162842,0.10223389
1602329854712,1473,0.9074707,0.184021,0.098083496
1602329854713,1474,0.9199219,0.2345581,0.11785889
1602329854713,1475,0.9941406,0.23162842,0.10223389
1602329854713,1476,0.8725586,0.23016357,0.14544678
1602329854713,1477,0.84716797,0.13372803,0.16082764
1602329854713,1478,0.8942871,0.15325928,0.101745605
1602329854713,1479,0.8725586,0.23016357,0.14544678
1602329854713,1480,0.9074707,0.184021,0.098083496
1602329854713,1481,0.84716797,0.13372803,0.16082764
1602329854713,1482,0.8947754,0.1593628,0.16009521
1602329854713,1483,0.9941406,0.23162842,0.10223389
1602329854713,1484,0.8947754,0.1593628,0.16009521
1602329854713,1485,0.9313965,0.2296753,0.12738037
1602329854713,1486,0.8725586,0.23016357,0.14544678
1602329854713,1487,0.9313965,0.2296753,0.12738037
1602329854713,1488,0.9296875,0.22259521,0.05267334
1602329854713,1489,0.84716797,0.13372803,0.16082764
1602329854713,1490,0.828125,0.22015381,0.0038452148
1602329854713,1491,0.9296875,0.22259521,0.05267334
1602329854713,1492,0.8947754,0.1593628,0.16009521
1602329854713,1493,0.9248047,0.20452881,-0.038635254
1602329854713,1494,0.9313965,0.2296753,0.12738037
1602329854713,1495,0.98706055,0.17474365,-0.047668457
1602329854713,1496,0.828125,0.22015381,0.0038452148
1602329854713,1497,0.9296875,0.22259521,0.05267334
1602329854713,1498,0.828125,0.22015381,0.0038452148
1602329854713,1499,0.9248047,0.20452881,-0.038635254
1602329854713,1500,0.9140625,0.27679443,-0.004699707
1602329854713,1501,0.98706055,0.17474365,-0.047668457
1602329854713,1502,0.9248047,0.20452881,-0.038635254
1602329854713,1503,0.9140625,0.27679443,-0.004699707
1602329854713,1504,0.9213867,0.27996826,-0.007385254
1602329854714,1505,0.9213867,0.27996826,-0.007385254
1602329854713,1506,0.98706055,0.17474365,-0.047668457
1602329854714,1507,0.93408203,0.17352295,0.0099487305
1602329854714,1508,0.93408203,0.17352295,0.0099487305
1602329854714,1509,0.9140625,0.27679443,-0.004699707
1602329854714,1510,0.9560547,0.20355225,0.020690918
1602329854714,1511,0.9560547,0.20355225,0.020690918
1602329854714,1512,0.9421387,0.20819092,-0.0032348633
1602329854714,1513,0.9421387,0.20819092,-0.0032348633
1602329854714,1514,0.9572754,0.18939209,-0.021057129
1602329854714,1515,0.9572754,0.18939209,-0.021057129
1602329854714,1516,0.9213867,0.27996826,-0.007385254
1602329854714,1517,0.92871094,0.1395874,-0.016906738
1602329854714,1518,0.92871094,0.1395874,-0.016906738
1602329854714,1519,0.8937988,0.047546387,-0.0010375977
1602329854714,1520,0.93408203,0.17352295,0.0099487305
1602329854714,1521,0.8937988,0.047546387,-0.0010375977
1602329854714,1522,0.9560547,0.20355225,0.020690918
1602329854714,1523,0.9995117,0.04852295,0.044128418
1602329854714,1524,0.9995117,0.04852295,0.044128418
1602329854714,1525,0.9421387,0.20819092,-0.0032348633
1602329854714,1526,1.015625,0.06414795,0.137146
1602329854714,1527,0.9572754,0.18939209,-0.021057129
1602329854714,1528,1.015625,0.06414795,0.137146
1602329854714,1529,0.9001465,0.01727295,0.15667725
1602329854714,1530,0.92871094,0.1395874,-0.016906738
1602329854714,1531,0.9001465,0.01727295,0.15667725
1602329854714,1532,0.8937988,0.047546387,-0.0010375977
1602329854714,1533,0.9995117,0.04852295,0.044128418
1602329854714,1534,1.015625,0.06414795,0.137146
1602329854714,1535,0.9001465,0.01727295,0.15667725
1602329854713,1536,0.91064453,0.09588623,0.14300537
1602329857296,1537,0.91064453,0.09588623,0.14300537
1602329857296,1538,0.91064453,0.09588623,0.14300537
1602329857296,1539,0.90722656,0.15325928,0.14593506
1602329857296,1540,0.90722656,0.15325928,0.14593506
1602329857296,1541,0.90722656,0.15325928,0.14593506
1602329857296,1542,0.87280273,0.14300537,0.14324951
1602329857296,1543,0.87280273,0.14300537,0.14324951
1602329857296,1544,0.87280273,0.14300537,0.14324951
1602329857296,1545,0.8930664,0.1395874,0.14471436
1602329857296,1546,0.8930664,0.1395874,0.14471436
1602329857296,1547,0.8930664,0.1395874,0.14471436
1602329857296,1548,0.92333984,0.13568115,0.14984131
1602329857296,1549,0.92333984,0.13568115,0.14984131
1602329857296,1550,1.059082,0.12347412,0.1251831
1602329857296,1551,0.92333984,0.13568115,0.14984131
1602329857296,1552,1.0441895,0.11199951,0.08514404
1602329857296,1553,1.059082,0.12347412,0.1251831
1602329857296,1554,1.059082,0.12347412,0.1251831
1602329857296,1555,0.92871094,0.08123779,0.042907715
1602329857296,1556,1.0441895,0.11199951,0.08514404
1602329857296,1557,0.86816406,0.097595215,0.005065918
1602329857296,1558,1.0441895,0.11199951,0.08514404
1602329857296,1559,0.92871094,0.08123779,0.042907715
1602329857296,1560,0.88134766,0.17108154,-0.046447754
1602329857296,1561,0.92871094,0.08123779,0.042907715
1602329857296,1562,0.9675293,0.21307373,-0.08306885
1602329857296,1563,0.88378906,0.23040771,-0.042297363
1602329857296,1564,0.86816406,0.097595215,0.005065918
1602329857296,1565,0.86816406,0.097595215,0.005065918
1602329857296,1566,0.8991699,0.2189331,0.0016479492
1602329857296,1567,0.9157715,0.12445068,0.04486084
1602329857296,1568,0.88134766,0.17108154,-0.046447754
1602329857296,1569,0.88134766,0.17108154,-0.046447754
1602329857296,1570,0.9675293,0.21307373,-0.08306885
1602329857296,1571,0.9621582,0.04876709,0.06536865
1602329857296,1572,0.9675293,0.21307373,-0.08306885
1602329857296,1573,1.0610352,0.07220459,0.034118652
1602329857296,1574,0.88378906,0.23040771,-0.042297363
1602329857296,1575,0.88378906,0.23040771,-0.042297363
1602329857296,1576,1.0129395,0.11444092,0.07269287
1602329857296,1577,0.8991699,0.2189331,0.0016479492
1602329857296,1578,0.8991699,0.2189331,0.0016479492
1602329857296,1579,0.7758789,0.1317749,0.101745605
1602329857296,1580,0.9157715,0.12445068,0.04486084
1602329857296,1581,0.9157715,0.12445068,0.04486084
1602329857296,1582,0.9621582,0.04876709,0.06536865
1602329857296,1583,0.9621582,0.04876709,0.06536865
1602329857296,1584,0.9724121,0.17913818,0.03704834
1602329857296,1585,1.0610352,0.07220459,0.034118652
1602329857296,1586,1.0129395,0.11444092,0.07269287
1602329857296,1587,0.98168945,0.2062378,0.039978027
1602329857296,1588,1.0610352,0.07220459,0.034118652
1602329857296,1589,0.7758789,0.1317749,0.101745605
1602329857296,1590,0.82543945,0.12225342,0.10101318
1602329857296,1591,0.9724121,0.17913818,0.03704834
1602329857296,1592,1.0129395,0.11444092,0.07269287
1602329857296,1593,0.98168945,0.2062378,0.039978027
1602329857296,1594,0.7758789,0.1317749,0.101745605
1602329857296,1595,0.86621094,0.024597168,0.12957764
1602329857296,1596,0.82543945,0.12225342,0.10101318
1602329857296,1597,0.9189453,0.11077881,0.19281006
1602329857296,1598,0.9724121,0.17913818,0.03704834
1602329857296,1599,0.93115234,0.101257324,0.23822021
1602329857296,1600,0.98168945,0.2062378,0.039978027
1602329857296,1601,0.9501953,0.12567139,0.20111084
1602329857296,1602,0.82543945,0.12225342,0.10101318
1602329857296,1603,0.86621094,0.024597168,0.12957764
1602329857296,1604,1.1254883,0.23675537,0.1227417
1602329857296,1605,0.86621094,0.024597168,0.12957764
1602329857296,1606,0.96850586,0.2694702,0.08856201
1602329857296,1607,0.9189453,0.11077881,0.19281006
1602329857296,1608,0.76782227,0.18597412,0.028503418
1602329857296,1609,0.9189453,0.11077881,0.19281006
1602329857296,1610,0.93115234,0.101257324,0.23822021
1602329857296,1611,0.8874512,0.1618042,-0.07232666
1602329857296,1612,1.0263672,0.1786499,-0.14483643
1602329857296,1613,0.93115234,0.101257324,0.23822021
1602329857296,1614,0.9189453,0.18914795,-0.10675049
1602329857296,1615,0.9501953,0.12567139,0.20111084
1602329857296,1616,0.90600586,0.20379639,-0.03277588
1602329857296,1617,0.9501953,0.12567139,0.20111084
1602329857296,1618,1.1254883,0.23675537,0.1227417
1602329857296,1619,1.1254883,0.23675537,0.1227417
1602329857296,1620,0.96850586,0.2694702,0.08856201
1602329857296,1621,0.96850586,0.2694702,0.08856201
1602329857296,1622,0.76782227,0.18597412,0.028503418
1602329857296,1623,0.76782227,0.18597412,0.028503418
1602329857296,1624,0.8874512,0.1618042,-0.07232666
1602329857296,1625,0.8874512,0.1618042,-0.07232666
1602329857296,1626,1.0263672,0.1786499,-0.14483643
1602329857296,1627,1.0263672,0.1786499,-0.14483643
1602329857296,1628,0.9189453,0.18914795,-0.10675049
1602329857296,1629,0.9189453,0.18914795,-0.10675049
1602329857296,1630,0.90600586,0.20379639,-0.03277588
1602329857296,1631,0.90600586,0.20379639,-0.03277588
1602329857296,1632,0.8781738,0.07098389,0.038513184
1602329859816,1633,0.8781738,0.07098389,0.038513184
1602329860076,1634,0.8781738,0.07098389,0.038513184
1602329860076,1635,0.9128418,0.04827881,0.11077881
1602329860076,1636,0.9128418,0.04827881,0.11077881
1602329860076,1637,0.9128418,0.04827881,0.11077881
1602329860076,1638,0.95654297,0.078063965,0.105895996
1602329860076,1639,0.95654297,0.078063965,0.105895996
1602329860076,1640,0.95654297,0.078063965,0.105895996
1602329860076,1641,1.0510254,0.13983154,0.054870605
1602329860076,1642,1.0510254,0.13983154,0.054870605
1602329860076,1643,1.0510254,0.13983154,0.054870605
1602329860076,1644,1.0705566,0.16668701,0.022399902
1602329860076,1645,1.0705566,0.16668701,0.022399902
1602329860076,1646,1.0705566,0.16668701,0.022399902
1602329860076,1647,0.8273926,0.27386475,0.078308105
1602329860076,1648,0.8273926,0.27386475,0.078308105
1602329860076,1649,0.8273926,0.27386475,0.078308105
1602329860076,1650,0.84936523,0.30194092,0.07757568
1602329860076,1651,0.84936523,0.30194092,0.07757568
1602329860076,1652,0.84936523,0.30194092,0.07757568
1602329860076,1653,1.0351562,0.22747803,0.036315918
1602329860076,1654,0.9345703,0.2453003,0.06536865
1602329860076,1655,1.0351562,0.22747803,0.036315918
1602329860076,1656,1.0351562,0.22747803,0.036315918
1602329860076,1657,0.9345703,0.2453003,0.06536865
1602329860076,1658,0.8613281,0.066833496,0.08319092
1602329860076,1659,0.9345703,0.2453003,0.06536865
1602329860076,1660,0.8613281,0.066833496,0.08319092
1602329860076,1661,0.8613281,0.066833496,0.08319092
1602329860076,1662,0.91674805,-0.05279541,0.13397217
1602329860076,1663,0.91674805,-0.05279541,0.13397217
1602329860076,1664,0.91674805,-0.05279541,0.13397217
1602329860076,1665,0.93066406,-0.043518066,0.18743896
1602329860076,1666,0.93066406,-0.043518066,0.18743896
1602329860076,1667,0.84887695,0.093933105,0.13494873
1602329860076,1668,0.93066406,-0.043518066,0.18743896
1602329860076,1669,0.84887695,0.093933105,0.13494873
1602329860076,1670,0.84887695,0.093933105,0.13494873
1602329860076,1671,0.8774414,0.15325928,0.13348389
1602329860076,1672,0.8774414,0.15325928,0.13348389
1602329860076,1673,1.1616211,0.19354248,0.12054443
1602329860076,1674,0.8774414,0.15325928,0.13348389
1602329860076,1675,1.1616211,0.19354248,0.12054443
1602329860076,1676,1.0371094,0.14837646,0.11834717
1602329860076,1677,1.0371094,0.14837646,0.11834717
1602329860076,1678,1.1616211,0.19354248,0.12054443
1602329860076,1679,0.94799805,0.07342529,0.097839355
1602329860076,1680,1.0371094,0.14837646,0.11834717
1602329860076,1681,0.8520508,0.08416748,0.04534912
1602329860076,1682,0.94799805,0.07342529,0.097839355
1602329860076,1683,0.8754883,0.17376709,-0.02935791
1602329860076,1684,0.94799805,0.07342529,0.097839355
1602329860076,1685,1.0,0.14813232,-0.086242676
1602329860076,1686,0.8520508,0.08416748,0.04534912
1602329860076,1687,0.8520508,0.08416748,0.04534912
1602329860076,1688,0.84106445,0.18084717,-0.054260254
1602329860076,1689,0.8754883,0.17376709,-0.02935791
1602329860076,1690,0.8754883,0.17376709,-0.02935791
1602329860076,1691,0.87402344,0.15887451,-0.02545166
1602329860076,1692,1.0,0.14813232,-0.086242676
1602329860076,1693,1.0,0.14813232,-0.086242676
1602329860076,1694,0.97094727,0.093688965,0.0211792
1602329860076,1695,0.84106445,0.18084717,-0.054260254
1602329860076,1696,0.84106445,0.18084717,-0.054260254
1602329860076,1697,0.97875977,0.08709717,0.07196045
1602329860076,1698,0.87402344,0.15887451,-0.02545166
1602329860076,1699,0.97094727,0.093688965,0.0211792
1602329860076,1700,0.87402344,0.15887451,-0.02545166
1602329860076,1701,0.93408203,0.05682373,0.1161499
1602329860076,1702,0.97094727,0.093688965,0.0211792
1602329860076,1703,0.97875977,0.08709717,0.07196045
1602329860076,1704,0.9941406,0.11541748,0.113220215
1602329860076,1705,0.97875977,0.08709717,0.07196045
1602329860076,1706,1.0085449,0.23602295,0.11810303
1602329860076,1707,0.93408203,0.05682373,0.1161499
1602329860076,1708,0.93408203,0.05682373,0.1161499
1602329860076,1709,0.78222656,0.2670288,0.14691162
1602329860076,1710,0.9941406,0.11541748,0.113220215
1602329860076,1711,0.8286133,0.22576904,0.09295654
1602329860076,1712,0.9941406,0.11541748,0.113220215
1602329860076,1713,1.0085449,0.23602295,0.11810303
1602329860076,1714,1.0275879,0.21722412,0.021911621
1602329860076,1715,1.0085449,0.23602295,0.11810303
1602329860076,1716,0.78222656,0.2670288,0.14691162
1602329860076,1717,0.9958496,0.27825928,0.06072998
1602329860076,1718,0.8286133,0.22576904,0.09295654
1602329860076,1719,0.78222656,0.2670288,0.14691162
1602329860076,1720,0.94262695,0.13348389,0.09320068
1602329860076,1721,1.0275879,0.21722412,0.021911621
1602329860076,1722,0.8286133,0.22576904,0.09295654
1602329860076,1723,0.9958496,0.27825928,0.06072998
1602329860076,1724,1.0275879,0.21722412,0.021911621
1602329860076,1725,0.94262695,0.13348389,0.09320068
1602329860076,1726,0.9958496,0.27825928,0.06072998
1602329860076,1727,0.94262695,0.13348389,0.09320068
1602329862264,1728,0.9279785,0.035583496,0.15228271
1602329862264,1729,0.9279785,0.035583496,0.15228271
1602329860076,1730,0.9279785,0.035583496,0.15228271
1602329862264,1731,0.89331055,0.21380615,0.10467529
1602329862264,1732,0.89331055,0.21380615,0.10467529
1602329862264,1733,0.89868164,0.18353271,0.08392334
1602329862264,1734,0.89331055,0.21380615,0.10467529
1602329862264,1735,0.89453125,0.21600342,0.09686279
1602329862264,1736,0.89868164,0.18353271,0.08392334
1602329862264,1737,0.9291992,0.23016357,0.08831787
1602329862264,1738,0.89868164,0.18353271,0.08392334
1602329862264,1739,0.89453125,0.21600342,0.09686279
1602329862264,1740,0.89453125,0.21600342,0.09686279
1602329862264,1741,0.9291992,0.23016357,0.08831787
1602329862264,1742,0.9291992,0.23016357,0.08831787
1602329862264,1743,0.9650879,0.21356201,0.07562256
1602329862264,1744,0.8840332,0.20184326,0.051452637
1602329862264,1745,0.9650879,0.21356201,0.07562256
1602329862264,1746,0.9650879,0.21356201,0.07562256
1602329862264,1747,0.8840332,0.20184326,0.051452637
1602329862264,1748,0.8840332,0.20184326,0.051452637
1602329862264,1749,0.94091797,0.18328857,0.026794434
1602329862264,1750,0.94091797,0.18328857,0.026794434
1602329862264,1751,0.94091797,0.18328857,0.026794434
1602329862264,1752,0.97143555,0.18182373,0.012145996
1602329862264,1753,0.97143555,0.18182373,0.012145996
1602329862264,1754,0.97143555,0.18182373,0.012145996
1602329862264,1755,0.96606445,0.20355225,-0.023010254
1602329862264,1756,0.96606445,0.20355225,-0.023010254
1602329862264,1757,0.890625,0.18865967,-0.03692627
1602329862264,1758,0.96606445,0.20355225,-0.023010254
1602329862264,1759,0.890625,0.18865967,-0.03692627
1602329862264,1760,0.89282227,0.18939209,-0.016174316
1602329862264,1761,0.890625,0.18865967,-0.03692627
1602329862264,1762,0.89282227,0.18939209,-0.016174316
1602329862264,1763,0.89282227,0.18939209,-0.016174316
1602329862264,1764,0.9526367,0.16253662,0.012390137
1602329862264,1765,0.9526367,0.16253662,0.012390137
1602329862264,1766,0.9526367,0.16253662,0.012390137
1602329862264,1767,0.9367676,0.19354248,0.027038574
1602329862264,1768,0.9367676,0.19354248,0.027038574
1602329862264,1769,0.9367676,0.19354248,0.027038574
1602329862264,1770,0.8901367,0.18304443,-0.0049438477
1602329862264,1771,0.8901367,0.18304443,-0.0049438477
1602329862264,1772,0.8901367,0.18304443,-0.0049438477
1602329862264,1773,0.92333984,0.18060303,-0.04425049
1602329862264,1774,0.92333984,0.18060303,-0.04425049
1602329862264,1775,0.92333984,0.18060303,-0.04425049
1602329862264,1776,0.94873047,0.21282959,-0.027648926
1602329862264,1777,0.94873047,0.21282959,-0.027648926
1602329862264,1778,0.91748047,0.21160889,0.026306152
1602329862264,1779,0.91748047,0.21160889,0.026306152
1602329862264,1780,0.94555664,0.15692139,0.059020996
1602329862264,1781,0.94873047,0.21282959,-0.027648926
1602329862264,1782,0.94555664,0.15692139,0.059020996
1602329862264,1783,0.91748047,0.21160889,0.026306152
1602329862264,1784,0.9182129,0.14398193,0.06585693
1602329862264,1785,0.9182129,0.14398193,0.06585693
1602329862264,1786,0.94555664,0.15692139,0.059020996
1602329862264,1787,0.9277344,0.16986084,0.043151855
1602329862264,1788,0.9182129,0.14398193,0.06585693
1602329862264,1789,0.9277344,0.16986084,0.043151855
1602329862264,1790,0.9453125,0.19451904,0.04876709
1602329862264,1791,0.9277344,0.16986084,0.043151855
1602329862264,1792,0.9453125,0.19451904,0.04876709
1602329862264,1793,0.9453125,0.19451904,0.04876709
1602329862264,1794,0.94628906,0.21746826,0.07757568
1602329862264,1795,0.94628906,0.21746826,0.07757568
1602329862264,1796,0.94628906,0.21746826,0.07757568
1602329862264,1797,0.8779297,0.14886475,0.078063965
1602329862264,1798,0.8581543,0.15179443,0.043884277
1602329862264,1799,0.8779297,0.14886475,0.078063965
1602329862264,1800,0.8779297,0.14886475,0.078063965
1602329862264,1801,0.8581543,0.15179443,0.043884277
1602329862264,1802,1.0090332,0.15374756,0.047302246
1602329862264,1803,0.8581543,0.15179443,0.043884277
1602329862264,1804,1.0090332,0.15374756,0.047302246
1602329862264,1805,1.0090332,0.15374756,0.047302246
1602329862264,1806,1.0095215,0.07928467,0.16351318
1602329862264,1807,1.0095215,0.07928467,0.16351318
1602329862264,1808,1.0095215,0.07928467,0.16351318
1602329862264,1809,0.9177246,-0.008361816,0.22576904
1602329862264,1810,0.9177246,-0.008361816,0.22576904
1602329862264,1811,0.9177246,-0.008361816,0.22576904
1602329862264,1812,0.9433594,0.09442139,0.14715576
1602329862264,1813,0.9433594,0.09442139,0.14715576
1602329862264,1814,0.9433594,0.09442139,0.14715576
1602329862264,1815,0.9128418,0.11468506,0.08001709
1602329862264,1816,0.9128418,0.11468506,0.08001709
1602329862264,1817,0.8688965,0.13641357,0.051940918
1602329862264,1818,0.8688965,0.13641357,0.051940918
1602329862264,1819,0.86206055,0.1329956,0.05731201
1602329862264,1820,0.9128418,0.11468506,0.08001709
1602329862264,1821,0.86206055,0.1329956,0.05731201
1602329862264,1822,0.8688965,0.13641357,0.051940918
1602329862264,1823,0.86206055,0.1329956,0.05731201
1602329862264,1824,0.91674805,0.09979248,0.105895996
1602329864848,1825,0.91674805,0.09979248,0.105895996
1602329864848,1826,0.91674805,0.09979248,0.105895996
1602329864848,1827,0.92871094,0.026306152,0.14447021
1602329864848,1828,0.92871094,0.026306152,0.14447021
1602329864848,1829,1.1064453,0.02923584,0.11199951
1602329864848,1830,0.92871094,0.026306152,0.14447021
1602329864848,1831,1.1064453,0.02923584,0.11199951
1602329864848,1832,1.0578613,0.05633545,0.0758667
1602329864848,1833,1.1064453,0.02923584,0.11199951
1602329864848,1834,1.0578613,0.05633545,0.0758667
1602329864848,1835,0.91918945,-0.020812988,0.05731201
1602329864848,1836,1.0578613,0.05633545,0.0758667
1602329864848,1837,0.91918945,-0.020812988,0.05731201
1602329864848,1838,0.86083984,0.024353027,0.02947998
1602329864848,1839,0.91918945,-0.020812988,0.05731201
1602329864848,1840,0.92871094,0.10247803,-0.03765869
1602329864848,1841,0.86083984,0.024353027,0.02947998
1602329864848,1842,0.86083984,0.024353027,0.02947998
1602329864848,1843,0.9707031,0.13226318,-0.089660645
1602329864848,1844,0.92871094,0.10247803,-0.03765869
1602329864848,1845,0.92871094,0.10247803,-0.03765869
1602329864848,1846,0.8588867,0.1539917,-0.047180176
1602329864848,1847,0.9707031,0.13226318,-0.089660645
1602329864848,1848,0.9707031,0.13226318,-0.089660645
1602329864848,1849,0.87768555,0.09490967,0.013122559
1602329864848,1850,0.8588867,0.1539917,-0.047180176
1602329864848,1851,0.8588867,0.1539917,-0.047180176
1602329864848,1852,0.91430664,0.10003662,0.11175537
1602329864848,1853,0.87768555,0.09490967,0.013122559
1602329864848,1854,0.87768555,0.09490967,0.013122559
1602329864848,1855,0.94873047,0.073913574,0.13494873
1602329864848,1856,0.91430664,0.10003662,0.11175537
1602329864848,1857,0.9753418,0.121276855,0.11029053
1602329864848,1858,0.91430664,0.10003662,0.11175537
1602329864848,1859,0.94873047,0.073913574,0.13494873
1602329864848,1860,1.0234375,0.15472412,0.086120605
1602329864848,1861,0.94873047,0.073913574,0.13494873
1602329864848,1862,0.9753418,0.121276855,0.11029053
1602329864848,1863,0.9753418,0.121276855,0.11029053
1602329864848,1864,1.1030273,0.13568115,0.04559326
1602329864848,1865,1.0234375,0.15472412,0.086120605
1602329864848,1866,0.8786621,0.11004639,0.047302246
1602329864848,1867,1.0234375,0.15472412,0.086120605
1602329864848,1868,1.1030273,0.13568115,0.04559326
1602329864848,1869,0.8444824,0.0993042,-0.0064086914
1602329864848,1870,0.8786621,0.11004639,0.047302246
1602329864848,1871,1.1030273,0.13568115,0.04559326
1602329864848,1872,0.9692383,0.06097412,-0.06964111
1602329864848,1873,0.8786621,0.11004639,0.047302246
1602329864848,1874,0.86865234,0.09588623,0.016784668
1602329864848,1875,0.8444824,0.0993042,-0.0064086914
1602329864848,1876,0.8886719,0.008483887,0.07318115
1602329864848,1877,0.8444824,0.0993042,-0.0064086914
1602329864848,1878,0.9692383,0.06097412,-0.06964111
1602329864848,1879,0.91845703,0.05609131,0.15789795
1602329864848,1880,0.86865234,0.09588623,0.016784668
1602329864848,1881,0.9692383,0.06097412,-0.06964111
1602329864848,1882,0.9121094,0.07220459,0.19085693
1602329864848,1883,0.8886719,0.008483887,0.07318115
1602329864848,1884,0.86865234,0.09588623,0.016784668
1602329864848,1885,0.8886719,0.008483887,0.07318115
1602329864848,1886,0.91845703,0.05609131,0.15789795
1602329864848,1887,0.9379883,0.09515381,0.1696167
1602329864848,1888,1.1105957,0.15228271,0.105651855
1602329864848,1889,0.9121094,0.07220459,0.19085693
1602329864848,1890,0.91845703,0.05609131,0.15789795
1602329864848,1891,1.0559082,0.15985107,0.06585693
1602329864848,1892,0.9121094,0.07220459,0.19085693
1602329864848,1893,0.9379883,0.09515381,0.1696167
1602329864848,1894,0.84716797,0.04437256,0.029968262
1602329864848,1895,0.9379883,0.09515381,0.1696167
1602329864848,1896,1.1105957,0.15228271,0.105651855
1602329864848,1897,1.1105957,0.15228271,0.105651855
1602329864848,1898,0.94018555,0.06951904,-0.046203613
1602329864848,1899,1.0559082,0.15985107,0.06585693
1602329864848,1900,0.9736328,0.11663818,-0.12872314
1602329864848,1901,0.84716797,0.04437256,0.029968262
1602329864848,1902,1.0559082,0.15985107,0.06585693
1602329864848,1903,0.8688965,0.13909912,-0.10089111
1602329864848,1904,0.94018555,0.06951904,-0.046203613
1602329864848,1905,0.84716797,0.04437256,0.029968262
1602329864848,1906,0.9736328,0.11663818,-0.12872314
1602329864848,1907,0.94018555,0.06951904,-0.046203613
1602329864848,1908,0.88427734,0.06781006,-0.06036377
1602329864848,1909,0.8688965,0.13909912,-0.10089111
1602329864848,1910,0.88427734,0.06781006,-0.06036377
1602329864848,1911,0.89990234,0.06463623,-0.0095825195
1602329864848,1912,0.9736328,0.11663818,-0.12872314
1602329864848,1913,0.94189453,0.074645996,0.05291748
1602329864848,1914,0.8688965,0.13909912,-0.10089111
1602329864848,1915,0.89990234,0.06463623,-0.0095825195
1602329864848,1916,0.88427734,0.06781006,-0.06036377
1602329864848,1917,0.94189453,0.074645996,0.05291748
1602329864848,1918,0.89990234,0.06463623,-0.0095825195
1602329864848,1919,0.94189453,0.074645996,0.05291748
1602329867368,1920,0.986084,0.08709717,0.062194824
1602329864848,1921,0.986084,0.08709717,0.062194824
1602329867432,1922,1.0559082,0.11248779,0.0524292
1602329867432,1923,1.0559082,0.11248779,0.0524292
1602329867432,1924,0.986084,0.08709717,0.062194824
1602329867432,1925,1.0341797,0.11199951,0.027282715
1602329867432,1926,1.0341797,0.11199951,0.027282715
1602329867432,1927,0.8515625,0.11468506,0.014587402
1602329867432,1928,1.0559082,0.11248779,0.0524292
1602329867432,1929,0.8623047,0.12420654,-0.016662598
1602329867432,1930,1.0341797,0.11199951,0.027282715
1602329867432,1931,0.8515625,0.11468506,0.014587402
1602329867432,1932,0.8515625,0.11468506,0.014587402
1602329867432,1933,1.0004883,0.11566162,-0.016174316
1602329867432,1934,0.8623047,0.12420654,-0.016662598
1602329867432,1935,0.8623047,0.12420654,-0.016662598
1602329867432,1936,0.9313965,0.023864746,0.06048584
1602329867432,1937,1.0004883,0.11566162,-0.016174316
1602329867432,1938,1.0004883,0.11566162,-0.016174316
1602329867432,1939,0.9313965,0.023864746,0.06048584
1602329867432,1940,0.86743164,-0.050354004,0.08123779
1602329867432,1941,0.86743164,-0.050354004,0.08123779
1602329867432,1942,0.91748047,0.038024902,0.101989746
1602329867432,1943,0.91748047,0.038024902,0.101989746
1602329867432,1944,0.9313965,0.023864746,0.06048584
1602329867432,1945,0.8876953,0.10247803,0.1437378
1602329867432,1946,0.8876953,0.10247803,0.1437378
1602329867432,1947,0.86743164,-0.050354004,0.08123779
1602329867432,1948,0.91748047,0.038024902,0.101989746
1602329867432,1949,0.90283203,0.121032715,0.15301514
1602329867432,1950,0.90283203,0.121032715,0.15301514
1602329867432,1951,1.0534668,0.18206787,0.13446045
1602329867433,1952,1.0773926,0.22039795,0.10784912
1602329867433,1953,0.8876953,0.10247803,0.1437378
1602329867432,1954,1.0534668,0.18206787,0.13446045
1602329867433,1955,0.90478516,0.16278076,0.058044434
1602329867433,1956,0.92041016,0.11566162,0.0036010742
1602329867433,1957,0.90283203,0.121032715,0.15301514
1602329867433,1958,1.0773926,0.22039795,0.10784912
1602329867433,1959,0.92529297,0.14935303,-0.06549072
1602329867433,1960,1.0534668,0.18206787,0.13446045
1602329867433,1961,0.93115234,0.18792725,-0.1116333
1602329867433,1962,0.90478516,0.16278076,0.058044434
1602329867433,1963,1.0773926,0.22039795,0.10784912
1602329867433,1964,0.9404297,0.19891357,-0.12628174
1602329867433,1965,0.90478516,0.16278076,0.058044434
1602329867433,1966,0.92041016,0.11566162,0.0036010742
1602329867433,1967,0.90527344,0.19671631,-0.11602783
1602329867433,1968,0.92529297,0.14935303,-0.06549072
1602329867433,1969,0.8881836,0.20452881,-0.08087158
1602329867433,1970,0.93115234,0.18792725,-0.1116333
1602329867433,1971,0.9160156,0.19403076,-0.054504395
1602329867433,1972,0.9404297,0.19891357,-0.12628174
1602329867433,1973,0.9567871,0.18450928,-0.033996582
1602329867433,1974,0.92041016,0.11566162,0.0036010742
1602329867433,1975,0.90527344,0.19671631,-0.11602783
1602329867433,1976,0.92529297,0.14935303,-0.06549072
1602329867433,1977,0.8881836,0.20452881,-0.08087158
1602329867433,1978,0.97314453,0.17767334,-0.016662598
1602329867433,1979,0.93115234,0.18792725,-0.1116333
1602329867433,1980,0.9160156,0.19403076,-0.054504395
1602329867433,1981,0.9577637,0.14984131,-0.015197754
1602329867433,1982,0.9404297,0.19891357,-0.12628174
1602329867433,1983,0.9567871,0.18450928,-0.033996582
1602329867433,1984,0.90527344,0.19671631,-0.11602783
1602329867433,1985,0.9436035,0.16937256,-0.027893066
1602329867434,1986,0.8881836,0.20452881,-0.08087158
1602329867434,1987,0.97314453,0.17767334,-0.016662598
1602329867434,1988,0.94750977,0.19866943,-0.050598145
1602329867434,1989,0.9577637,0.14984131,-0.015197754
1602329867434,1990,0.9160156,0.19403076,-0.054504395
1602329867434,1991,0.9267578,0.21429443,-0.04864502
1602329867434,1992,0.9436035,0.16937256,-0.027893066
1602329867434,1993,0.9567871,0.18450928,-0.033996582
1602329867434,1994,0.94750977,0.19866943,-0.050598145
1602329867434,1995,0.9301758,0.18914795,-0.04425049
1602329867434,1996,0.9267578,0.21429443,-0.04864502
1602329867434,1997,0.92529297,0.15814209,-0.027648926
1602329867434,1998,0.97314453,0.17767334,-0.016662598
1602329867434,1999,0.9301758,0.18914795,-0.04425049
1602329867434,2000,0.9577637,0.14984131,-0.015197754
1602329867434,2001,0.9230957,0.11517334,-0.005432129
1602329867434,2002,0.92529297,0.15814209,-0.027648926
1602329867434,2003,0.9230957,0.11517334,-0.005432129
1602329867434,2004,0.93530273,0.06341553,0.0026245117
1602329867434,2005,0.9436035,0.16937256,-0.027893066
1602329867434,2006,0.93530273,0.06341553,0.0026245117
1602329867434,2007,0.93896484,0.015319824,-0.0049438477
1602329867434,2008,0.93896484,0.015319824,-0.0049438477
1602329867434,2009,0.94750977,0.19866943,-0.050598145
1602329867434,2010,0.9267578,0.21429443,-0.04864502
1602329867434,2011,0.9301758,0.18914795,-0.04425049
1602329867434,2012,0.92529297,0.15814209,-0.027648926
1602329867434,2013,0.9230957,0.11517334,-0.005432129
1602329867434,2014,0.93530273,0.06341553,0.0026245117
1602329867434,2015,0.93896484,0.015319824,-0.0049438477
1602329867433,2016,1.0253906,-0.042053223,-0.020568848
1602329869953,2017,1.0253906,-0.042053223,-0.020568848
1602329870214,2018,1.0253906,-0.042053223,-0.020568848
1602329870214,2019,1.0166016,-0.055725098,0.010192871
1602329870214,2020,1.0166016,-0.055725098,0.010192871
1602329870214,2021,0.8930664,-0.026916504,0.043151855
1602329870214,2022,1.0166016,-0.055725098,0.010192871
1602329870214,2023,0.8930664,-0.026916504,0.043151855
1602329870214,2024,0.91552734,0.026794434,0.051940918
1602329870214,2025,0.8930664,-0.026916504,0.043151855
1602329870214,2026,0.91552734,0.026794434,0.051940918
1602329870214,2027,0.91552734,0.026794434,0.051940918
1602329870214,2028,0.92749023,0.10076904,0.094177246
1602329870214,2029,0.92749023,0.10076904,0.094177246
1602329870214,2030,0.89404297,0.06439209,0.1251831
1602329870214,2031,0.89404297,0.06439209,0.1251831
1602329870214,2032,0.92749023,0.10076904,0.094177246
1602329870214,2033,0.8857422,0.05609131,0.13079834
1602329870214,2034,0.89404297,0.06439209,0.1251831
1602329870214,2035,0.94018555,0.089782715,0.1473999
1602329870214,2036,0.8857422,0.05609131,0.13079834
1602329870214,2037,0.8857422,0.05609131,0.13079834
1602329870214,2038,1.0708008,0.097351074,0.14178467
1602329870214,2039,0.97875977,0.12542725,0.13153076
1602329870214,2040,0.94018555,0.089782715,0.1473999
1602329870214,2041,0.94018555,0.089782715,0.1473999
1602329870214,2042,0.8913574,0.08074951,0.10858154
1602329870214,2043,1.0708008,0.097351074,0.14178467
1602329870214,2044,0.87646484,0.08294678,0.028747559
1602329870214,2045,0.97875977,0.12542725,0.13153076
1602329870214,2046,1.0708008,0.097351074,0.14178467
1602329870214,2047,0.8913574,0.08074951,0.10858154
1602329870214,2048,1.0100098,0.16204834,-0.074279785
1602329870214,2049,0.87646484,0.08294678,0.028747559
1602329870214,2050,0.9140625,0.2074585,-0.06964111
1602329870214,2051,1.0100098,0.16204834,-0.074279785
1602329870214,2052,0.97875977,0.12542725,0.13153076
1602329870214,2053,0.8913574,0.08074951,0.10858154
1602329870214,2054,0.9140625,0.2074585,-0.06964111
1602329870214,2055,0.829834,0.1774292,0.0060424805
1602329870214,2056,0.87646484,0.08294678,0.028747559
1602329870214,2057,0.829834,0.1774292,0.0060424805
1602329870214,2058,1.0100098,0.16204834,-0.074279785
1602329870214,2059,0.92993164,0.098083496,0.04949951
1602329870214,2060,0.92993164,0.098083496,0.04949951
1602329870214,2061,0.9140625,0.2074585,-0.06964111
1602329870214,2062,0.94750977,0.101745605,0.08905029
1602329870214,2063,0.94750977,0.101745605,0.08905029
1602329870214,2064,0.829834,0.1774292,0.0060424805
1602329870214,2065,0.91015625,0.1281128,0.11175537
1602329870214,2066,0.92993164,0.098083496,0.04949951
1602329870214,2067,1.0124512,0.14056396,0.07244873
1602329870214,2068,0.91015625,0.1281128,0.11175537
1602329870214,2069,1.0124512,0.14056396,0.07244873
1602329870214,2070,1.0715332,0.1749878,0.022399902
1602329870214,2071,0.94750977,0.101745605,0.08905029
1602329870214,2072,1.0715332,0.1749878,0.022399902
1602329870214,2073,0.8388672,0.20477295,0.05731201
1602329870214,2074,0.8496094,0.1618042,0.0446167
1602329870214,2075,0.91015625,0.1281128,0.11175537
1602329870214,2076,0.8388672,0.20477295,0.05731201
1602329870214,2077,1.0124512,0.14056396,0.07244873
1602329870214,2078,1.0187988,0.13153076,-0.010803223
1602329870214,2079,1.0715332,0.1749878,0.022399902
1602329870214,2080,0.8496094,0.1618042,0.0446167
1602329870214,2081,0.98095703,0.120788574,0.074401855
1602329870214,2082,0.8388672,0.20477295,0.05731201
1602329870214,2083,0.8496094,0.1618042,0.0446167
1602329870214,2084,1.0187988,0.13153076,-0.010803223
1602329870214,2085,0.8574219,-0.03692627,0.11419678
1602329870214,2086,1.0187988,0.13153076,-0.010803223
1602329870214,2087,0.98095703,0.120788574,0.074401855
1602329870214,2088,0.98095703,0.120788574,0.074401855
1602329870214,2089,0.91796875,0.026794434,0.11029053
1602329870214,2090,0.8574219,-0.03692627,0.11419678
1602329870214,2091,0.8574219,-0.03692627,0.11419678
1602329870214,2092,0.91503906,0.101501465,0.117614746
1602329870214,2093,0.91796875,0.026794434,0.11029053
1602329870214,2094,0.91796875,0.026794434,0.11029053
1602329870214,2095,0.89086914,0.117614746,0.137146
1602329870214,2096,0.91503906,0.101501465,0.117614746
1602329870214,2097,0.9470215,0.13885498,0.13153076
1602329870214,2098,0.89086914,0.117614746,0.137146
1602329870214,2099,0.9470215,0.13885498,0.13153076
1602329870214,2100,1.1030273,0.19573975,0.10662842
1602329870214,2101,0.91503906,0.101501465,0.117614746
1602329870214,2102,1.1030273,0.19573975,0.10662842
1602329870214,2103,1.0483398,0.17034912,0.089538574
1602329870214,2104,0.89086914,0.117614746,0.137146
1602329870214,2105,0.82299805,0.08538818,0.039001465
1602329870214,2106,0.9470215,0.13885498,0.13153076
1602329870214,2107,1.0483398,0.17034912,0.089538574
1602329870214,2108,1.1030273,0.19573975,0.10662842
1602329870214,2109,0.82299805,0.08538818,0.039001465
1602329870214,2110,1.0483398,0.17034912,0.089538574
1602329870214,2111,0.82299805,0.08538818,0.039001465
1602329870214,2112,0.88378906,0.07244873,-0.046936035
1602329872734,2113,0.88378906,0.07244873,-0.046936035
1602329872600,2114,1.0136719,0.14129639,-0.15509033
1602329872600,2115,0.88378906,0.07244873,-0.046936035
1602329872600,2116,1.0136719,0.14129639,-0.15509033
1602329872600,2117,0.91918945,0.17913818,-0.15753174
1602329872600,2118,0.91918945,0.17913818,-0.15753174
1602329872600,2119,1.0136719,0.14129639,-0.15509033
1602329872600,2120,0.8391113,0.1774292,-0.074523926
1602329872600,2121,0.8391113,0.1774292,-0.074523926
1602329872600,2122,0.91918945,0.17913818,-0.15753174
1602329872600,2123,0.89404297,0.05267334,-0.00982666
1602329872600,2124,0.89404297,0.05267334,-0.00982666
1602329872600,2125,0.8391113,0.1774292,-0.074523926
1602329872600,2126,0.94677734,0.0602417,0.06488037
1602329872600,2127,0.94677734,0.0602417,0.06488037
1602329872600,2128,0.89404297,0.05267334,-0.00982666
1602329872600,2129,0.96777344,0.13763428,0.08734131
1602329872600,2130,0.96777344,0.13763428,0.08734131
1602329872600,2131,0.94677734,0.0602417,0.06488037
1602329872600,2132,0.96777344,0.13763428,0.08734131
1602329872600,2133,1.0390625,0.1408081,0.07611084
1602329872600,2134,1.0390625,0.1408081,0.07611084
1602329872600,2135,1.0390625,0.1408081,0.07611084
1602329872600,2136,1.0581055,0.15325928,0.05291748
1602329872600,2137,1.0581055,0.15325928,0.05291748
1602329872600,2138,1.0581055,0.15325928,0.05291748
1602329872600,2139,0.77246094,0.23309326,0.08709717
1602329872600,2140,0.77246094,0.23309326,0.08709717
1602329872600,2141,0.77246094,0.23309326,0.08709717
1602329872600,2142,0.8613281,0.2399292,0.039489746
1602329872600,2143,0.8613281,0.2399292,0.039489746
1602329872600,2144,1.0183105,0.1696167,-0.004699707
1602329872600,2145,0.8613281,0.2399292,0.039489746
1602329872600,2146,1.0183105,0.1696167,-0.004699707
1602329872600,2147,0.87231445,0.18133545,0.10784912
1602329872600,2148,1.0183105,0.1696167,-0.004699707
1602329872600,2149,0.87231445,0.18133545,0.10784912
1602329872600,2150,0.87231445,0.18133545,0.10784912
1602329872600,2151,0.88427734,-0.0012817383,0.14544678
1602329872600,2152,0.88427734,-0.0012817383,0.14544678
1602329872600,2153,0.92871094,0.0770874,0.15838623
1602329872600,2154,0.92871094,0.0770874,0.15838623
1602329872600,2155,0.88427734,-0.0012817383,0.14544678
1602329872600,2156,0.89086914,0.15447998,0.18109131
1602329872600,2157,0.89086914,0.15447998,0.18109131
1602329872600,2158,0.92871094,0.0770874,0.15838623
1602329872600,2159,0.9013672,0.18963623,0.18572998
1602329872600,2160,0.9013672,0.18963623,0.18572998
1602329872600,2161,0.89086914,0.15447998,0.18109131
1602329872600,2162,1.0078125,0.24359131,0.1671753
1602329872600,2163,1.0078125,0.24359131,0.1671753
1602329872600,2164,0.9013672,0.18963623,0.18572998
1602329872600,2165,1.0078125,0.24359131,0.1671753
1602329872600,2166,1.0117188,0.2753296,0.10858154
1602329872600,2167,1.0117188,0.2753296,0.10858154
1602329872600,2168,1.0117188,0.2753296,0.10858154
1602329872600,2169,1.0141602,0.23382568,0.026550293
1602329872600,2170,1.0141602,0.23382568,0.026550293
1602329872600,2171,0.9267578,0.19256592,-0.026428223
1602329872600,2172,1.0141602,0.23382568,0.026550293
1602329872600,2173,0.9267578,0.19256592,-0.026428223
1602329872600,2174,0.9267578,0.19256592,-0.026428223
1602329872600,2175,0.8774414,0.21014404,-0.08917236
1602329872600,2176,0.8774414,0.21014404,-0.08917236
1602329872600,2177,0.8774414,0.21014404,-0.08917236
1602329872600,2178,0.90844727,0.20428467,-0.13433838
1602329872600,2179,0.90844727,0.20428467,-0.13433838
1602329872600,2180,0.90844727,0.20428467,-0.13433838
1602329872600,2181,0.92944336,0.2633667,-0.124816895
1602329872600,2182,0.92944336,0.2633667,-0.124816895
1602329872600,2183,0.92944336,0.2633667,-0.124816895
1602329872600,2184,0.9394531,0.25286865,-0.09161377
1602329872600,2185,0.9394531,0.25286865,-0.09161377
1602329872600,2186,0.9238281,0.22381592,-0.04449463
1602329872600,2187,0.9238281,0.22381592,-0.04449463
1602329872600,2188,0.92407227,0.20379639,-0.012756348
1602329872600,2189,0.9394531,0.25286865,-0.09161377
1602329872600,2190,0.92407227,0.20379639,-0.012756348
1602329872600,2191,0.91918945,0.16766357,-5.493164E-4
1602329872600,2192,0.9238281,0.22381592,-0.04449463
1602329872600,2193,0.91918945,0.16766357,-5.493164E-4
1602329872600,2194,0.9042969,0.16619873,-0.0010375977
1602329872600,2195,0.92407227,0.20379639,-0.012756348
1602329872600,2196,0.9042969,0.16619873,-0.0010375977
1602329872600,2197,0.9404297,0.19769287,-0.027648926
1602329872600,2198,0.91918945,0.16766357,-5.493164E-4
1602329872600,2199,0.9404297,0.19769287,-0.027648926
1602329872600,2200,0.9460449,0.18963623,-0.05230713
1602329872600,2201,0.9042969,0.16619873,-0.0010375977
1602329872600,2202,0.9460449,0.18963623,-0.05230713
1602329872600,2203,0.93652344,0.17327881,-0.046936035
1602329872600,2204,0.9404297,0.19769287,-0.027648926
1602329872600,2205,0.9460449,0.18963623,-0.05230713
1602329872600,2206,0.93652344,0.17327881,-0.046936035
1602329872600,2207,0.93652344,0.17327881,-0.046936035
1602329872600,2208,0.9694824,0.090026855,-0.04547119
1602329875183,2209,0.9694824,0.090026855,-0.04547119
1602329875183,2210,1.0483398,0.004333496,-0.055236816
1602329875120,2211,0.9694824,0.090026855,-0.04547119
1602329875183,2212,1.0483398,0.004333496,-0.055236816
1602329875183,2213,1.0483398,0.004333496,-0.055236816
1602329875183,2214,1.0456543,-0.054748535,-0.026916504
1602329875183,2215,1.0456543,-0.054748535,-0.026916504
1602329875183,2216,1.0456543,-0.054748535,-0.026916504
1602329875183,2217,0.88305664,-0.06549072,0.02557373
1602329875183,2218,0.88305664,-0.06549072,0.02557373
1602329875183,2219,0.88305664,-0.06549072,0.02557373
1602329875183,2220,0.88916016,-0.0049438477,0.04437256
1602329875183,2221,0.88916016,-0.0049438477,0.04437256
1602329875183,2222,0.88916016,-0.0049438477,0.04437256
1602329875183,2223,0.8930664,0.051208496,0.10760498
1602329875183,2224,0.8930664,0.051208496,0.10760498
1602329875183,2225,0.8930664,0.051208496,0.10760498
1602329875183,2226,0.8742676,0.061706543,0.1515503
1602329875183,2227,0.8742676,0.061706543,0.1515503
1602329875183,2228,0.8742676,0.061706543,0.1515503
1602329875183,2229,0.91918945,0.077819824,0.17303467
1602329875183,2230,0.91918945,0.077819824,0.17303467
1602329875183,2231,1.0859375,0.10272217,0.1383667
1602329875183,2232,1.0859375,0.10272217,0.1383667
1602329875183,2233,1.0854492,0.10638428,0.12445068
1602329875183,2234,1.0854492,0.10638428,0.12445068
1602329875183,2235,0.91918945,0.077819824,0.17303467
1602329875183,2236,0.84643555,0.047302246,0.12225342
1602329875183,2237,0.8652344,0.05291748,0.048034668
1602329875183,2238,1.0859375,0.10272217,0.1383667
1602329875183,2239,0.84643555,0.047302246,0.12225342
1602329875183,2240,0.8652344,0.05291748,0.048034668
1602329875183,2241,0.95581055,0.17254639,-0.04498291
1602329875184,2242,1.0854492,0.10638428,0.12445068
1602329875184,2243,0.95581055,0.17254639,-0.04498291
1602329875184,2244,0.921875,0.2177124,-0.06915283
1602329875184,2245,0.84643555,0.047302246,0.12225342
1602329875184,2246,0.921875,0.2177124,-0.06915283
1602329875184,2247,0.8774414,0.16253662,-0.040100098
1602329875184,2248,0.8774414,0.16253662,-0.040100098
1602329875184,2249,0.8652344,0.05291748,0.048034668
1602329875184,2250,0.8864746,0.046813965,0.0138549805
1602329875184,2251,0.8864746,0.046813965,0.0138549805
1602329875184,2252,0.9411621,0.015319824,0.05340576
1602329875184,2253,0.9411621,0.015319824,0.05340576
1602329875184,2254,0.95581055,0.17254639,-0.04498291
1602329875184,2255,1.0639648,0.018493652,0.041931152
1602329875184,2256,1.0639648,0.018493652,0.041931152
1602329875184,2257,0.921875,0.2177124,-0.06915283
1602329875184,2258,1.0991211,0.05706787,0.026062012
1602329875184,2259,1.0991211,0.05706787,0.026062012
1602329875184,2260,0.8491211,0.09979248,0.086364746
1602329875184,2261,0.8774414,0.16253662,-0.040100098
1602329875184,2262,0.82250977,0.066833496,0.032165527
1602329875184,2263,0.8491211,0.09979248,0.086364746
1602329875184,2264,1.0720215,0.1317749,-0.010314941
1602329875184,2265,0.82250977,0.066833496,0.032165527
1602329875184,2266,0.8864746,0.046813965,0.0138549805
1602329875184,2267,0.9074707,0.08782959,0.10296631
1602329875184,2268,1.0720215,0.1317749,-0.010314941
1602329875184,2269,0.86621094,-0.077941895,0.11956787
1602329875184,2270,0.9411621,0.015319824,0.05340576
1602329875184,2271,0.9074707,0.08782959,0.10296631
1602329875184,2272,0.9436035,0.029968262,0.13348389
1602329875184,2273,1.0639648,0.018493652,0.041931152
1602329875185,2274,1.0991211,0.05706787,0.026062012
1602329875185,2275,0.90405273,0.055847168,0.15814209
1602329875185,2276,0.86621094,-0.077941895,0.11956787
1602329875185,2277,0.91015625,0.07122803,0.16131592
1602329875185,2278,0.8491211,0.09979248,0.086364746
1602329875185,2279,0.9436035,0.029968262,0.13348389
1602329875185,2280,0.82250977,0.066833496,0.032165527
1602329875185,2281,1.0556641,0.13787842,0.121032715
1602329875185,2282,0.90405273,0.055847168,0.15814209
1602329875185,2283,1.1223145,0.15374756,0.08856201
1602329875185,2284,0.91015625,0.07122803,0.16131592
1602329875185,2285,0.9067383,0.047546387,0.0692749
1602329875185,2286,1.0556641,0.13787842,0.121032715
1602329875185,2287,1.0720215,0.1317749,-0.010314941
1602329875185,2288,1.1223145,0.15374756,0.08856201
1602329875185,2289,0.8688965,-0.0029907227,0.014831543
1602329875185,2290,0.9074707,0.08782959,0.10296631
1602329875185,2291,0.9729004,0.08148193,-0.10064697
1602329875185,2292,0.9067383,0.047546387,0.0692749
1602329875185,2293,0.86621094,-0.077941895,0.11956787
1602329875185,2294,0.8688965,-0.0029907227,0.014831543
1602329875185,2295,0.9436035,0.029968262,0.13348389
1602329875185,2296,0.9729004,0.08148193,-0.10064697
1602329875185,2297,0.90405273,0.055847168,0.15814209
1602329875185,2298,0.91015625,0.07122803,0.16131592
1602329875185,2299,1.0556641,0.13787842,0.121032715
1602329875185,2300,1.1223145,0.15374756,0.08856201
1602329875185,2301,0.9067383,0.047546387,0.0692749
1602329875185,2302,0.8688965,-0.0029907227,0.014831543
1602329875185,2303,0.9729004,0.08148193,-0.10064697
