# Sensor position: Chest
# Sensor side: Right
# Activity type: Movement
# Activity code: 9
# Subject id: s1642301
timestamp,seq,accel_x,accel_y,accel_z
1602330790337,0,0.24316406,-0.96173096,-0.26324463
1602330787817,1,0.24316406,-0.96173096,-0.26324463
1602330790205,2,0.24316406,-0.96173096,-0.26324463
1602330790205,3,0.23339844,-0.94366455,-0.2793579
1602330790205,4,0.23339844,-0.94366455,-0.2793579
1602330790205,5,0.24291992,-0.9434204,-0.284729
1602330790205,6,0.23339844,-0.94366455,-0.2793579
1602330790205,7,0.24291992,-0.9434204,-0.284729
1602330790205,8,0.24291992,-0.9434204,-0.284729
1602330790205,9,0.24731445,-0.9483032,-0.28961182
1602330790205,10,0.24731445,-0.9483032,-0.28961182
1602330790205,11,0.24731445,-0.9483032,-0.28961182
1602330790205,12,0.2409668,-0.94244385,-0.2979126
1602330790205,13,0.2409668,-0.94244385,-0.2979126
1602330790205,14,0.2409668,-0.94244385,-0.2979126
1602330790205,15,0.23217773,-0.95196533,-0.28375244
1602330790205,16,0.23217773,-0.95196533,-0.28375244
1602330790205,17,0.23217773,-0.95196533,-0.28375244
1602330790206,18,0.23413086,-0.94366455,-0.27496338
1602330790206,19,0.23413086,-0.94366455,-0.27496338
1602330790206,20,0.23413086,-0.94366455,-0.27496338
1602330790206,21,0.24291992,-0.95806885,-0.25933838
1602330790206,22,0.24291992,-0.95806885,-0.25933838
1602330790206,23,0.24291992,-0.95806885,-0.25933838
1602330790206,24,0.23461914,-0.95977783,-0.25201416
1602330790206,25,0.22265625,-0.96051025,-0.24298096
1602330790206,26,0.23461914,-0.95977783,-0.25201416
1602330790206,27,0.23950195,-0.96588135,-0.23077393
1602330790206,28,0.22265625,-0.96051025,-0.24298096
1602330790206,29,0.23461914,-0.95977783,-0.25201416
1602330790206,30,0.22265625,-0.96051025,-0.24298096
1602330790206,31,0.23950195,-0.96588135,-0.23077393
1602330790206,32,0.23950195,-0.96588135,-0.23077393
1602330790206,33,0.23339844,-0.95928955,-0.22955322
1602330790207,34,0.23339844,-0.95928955,-0.22955322
1602330790207,35,0.23339844,-0.95928955,-0.22955322
1602330790207,36,0.23461914,-0.9585571,-0.22247314
1602330790207,37,0.23461914,-0.9585571,-0.22247314
1602330790207,38,0.23657227,-0.9649048,-0.21173096
1602330790207,39,0.23461914,-0.9585571,-0.22247314
1602330790207,40,0.23657227,-0.9649048,-0.21173096
1602330790207,41,0.22875977,-0.9612427,-0.2053833
1602330790207,42,0.23657227,-0.9649048,-0.21173096
1602330790207,43,0.22875977,-0.9612427,-0.2053833
1602330790207,44,0.23608398,-0.958313,-0.20098877
1602330790207,45,0.23608398,-0.958313,-0.20098877
1602330790207,46,0.22875977,-0.9612427,-0.2053833
1602330790207,47,0.24487305,-0.9690552,-0.19586182
1602330790207,48,0.23608398,-0.958313,-0.20098877
1602330790208,49,0.24487305,-0.9690552,-0.19586182
1602330790207,50,0.24316406,-0.9585571,-0.20318604
1602330790208,51,0.24780273,-0.96343994,-0.20172119
1602330790208,52,0.24487305,-0.9690552,-0.19586182
1602330790208,53,0.25219727,-0.9627075,-0.2053833
1602330790208,54,0.24316406,-0.9585571,-0.20318604
1602330790208,55,0.24780273,-0.96343994,-0.20172119
1602330790208,56,0.24316406,-0.9585571,-0.20318604
1602330790208,57,0.25219727,-0.9627075,-0.2053833
1602330790208,58,0.24780273,-0.96343994,-0.20172119
1602330790208,59,0.25341797,-0.95269775,-0.20880127
1602330790208,60,0.25219727,-0.9627075,-0.2053833
1602330790208,61,0.25341797,-0.95269775,-0.20880127
1602330790208,62,0.25341797,-0.95269775,-0.20880127
1602330790208,63,0.25268555,-0.95758057,-0.21368408
1602330790208,64,0.25268555,-0.95758057,-0.21368408
1602330790209,65,0.25024414,-0.96221924,-0.2131958
1602330790208,66,0.25268555,-0.95758057,-0.21368408
1602330790209,67,0.24707031,-0.9578247,-0.21710205
1602330790209,68,0.25024414,-0.96221924,-0.2131958
1602330790209,69,0.24536133,-0.9607544,-0.21759033
1602330790209,70,0.25024414,-0.96221924,-0.2131958
1602330790209,71,0.24707031,-0.9578247,-0.21710205
1602330790209,72,0.24511719,-0.958313,-0.2276001
1602330790209,73,0.24707031,-0.9578247,-0.21710205
1602330790209,74,0.24536133,-0.9607544,-0.21759033
1602330790209,75,0.24511719,-0.958313,-0.2276001
1602330790209,76,0.24536133,-0.9607544,-0.21759033
1602330790209,77,0.23925781,-0.9602661,-0.22442627
1602330790209,78,0.24975586,-0.96099854,-0.22662354
1602330790209,79,0.23925781,-0.9602661,-0.22442627
1602330790209,80,0.24365234,-0.95635986,-0.22735596
1602330790209,81,0.24511719,-0.958313,-0.2276001
1602330790210,82,0.24975586,-0.96099854,-0.22662354
1602330790210,83,0.24365234,-0.95635986,-0.22735596
1602330790210,84,0.2446289,-0.9536743,-0.23443604
1602330790210,85,0.23925781,-0.9602661,-0.22442627
1602330790210,86,0.25317383,-0.9429321,-0.24346924
1602330790210,87,0.2446289,-0.9536743,-0.23443604
1602330790210,88,0.24975586,-0.96099854,-0.22662354
1602330790210,89,0.25708008,-0.93218994,-0.25445557
1602330790210,90,0.25317383,-0.9429321,-0.24346924
1602330790210,91,0.24365234,-0.95635986,-0.22735596
1602330790210,92,0.25708008,-0.93218994,-0.25445557
1602330790210,93,0.2446289,-0.9536743,-0.23443604
1602330790210,94,0.25317383,-0.9429321,-0.24346924
1602330790210,95,0.25708008,-0.93218994,-0.25445557
1602330792791,96,0.31176758,-0.8948364,-0.27789307
1602330790207,97,0.31176758,-0.8948364,-0.27789307
1602330792727,98,0.31176758,-0.8948364,-0.27789307
1602330792791,99,0.32983398,-0.913147,-0.3225708
1602330792791,100,0.30004883,-0.9636841,-0.3262329
1602330792791,101,0.32983398,-0.913147,-0.3225708
1602330792791,102,0.32983398,-0.913147,-0.3225708
1602330792791,103,0.30004883,-0.9636841,-0.3262329
1602330792791,104,0.30004883,-0.91485596,-0.33062744
1602330792791,105,0.30004883,-0.9636841,-0.3262329
1602330792791,106,0.30004883,-0.91485596,-0.33062744
1602330792791,107,0.39526367,-0.8574829,-0.34088135
1602330792791,108,0.30004883,-0.91485596,-0.33062744
1602330792791,109,0.28979492,-0.8648071,-0.409729
1602330792791,110,0.39526367,-0.8574829,-0.34088135
1602330792791,111,0.28979492,-0.8648071,-0.409729
1602330792791,112,0.39526367,-0.8574829,-0.34088135
1602330792791,113,0.25,-0.91851807,-0.4175415
1602330792791,114,0.25,-0.91851807,-0.4175415
1602330792791,115,0.28979492,-0.8648071,-0.409729
1602330792791,116,0.16381836,-0.9649048,-0.42462158
1602330792791,117,0.16381836,-0.9649048,-0.42462158
1602330792791,118,0.19580078,-0.9690552,-0.3604126
1602330792791,119,0.25,-0.91851807,-0.4175415
1602330792791,120,0.20288086,-0.91656494,-0.33062744
1602330792791,121,0.19580078,-0.9690552,-0.3604126
1602330792791,122,0.16381836,-0.9649048,-0.42462158
1602330792791,123,0.25073242,-0.90753174,-0.28619385
1602330792791,124,0.19580078,-0.9690552,-0.3604126
1602330792791,125,0.20288086,-0.91656494,-0.33062744
1602330792791,126,0.21777344,-0.91412354,-0.28009033
1602330792791,127,0.20288086,-0.91656494,-0.33062744
1602330792791,128,0.22338867,-0.9841919,-0.26690674
1602330792791,129,0.25073242,-0.90753174,-0.28619385
1602330792791,130,0.25073242,-0.90753174,-0.28619385
1602330792791,131,0.26049805,-1.0234985,-0.23297119
1602330792791,132,0.21777344,-0.91412354,-0.28009033
1602330792791,133,0.21777344,-0.91412354,-0.28009033
1602330792791,134,0.24902344,-1.0811157,-0.26763916
1602330792791,135,0.22338867,-0.9841919,-0.26690674
1602330792791,136,0.22338867,-0.9841919,-0.26690674
1602330792791,137,0.18481445,-0.89630127,-0.4319458
1602330792791,138,0.26049805,-1.0234985,-0.23297119
1602330792791,139,0.26049805,-1.0234985,-0.23297119
1602330792791,140,0.25708008,-0.80670166,-0.41461182
1602330792791,141,0.24902344,-1.0811157,-0.26763916
1602330792791,142,0.24902344,-1.0811157,-0.26763916
1602330792791,143,0.20336914,-0.96221924,-0.39019775
1602330792791,144,0.18481445,-0.89630127,-0.4319458
1602330792791,145,0.18481445,-0.89630127,-0.4319458
1602330792791,146,0.25708008,-0.80670166,-0.41461182
1602330792791,147,0.23852539,-0.8723755,-0.29693604
1602330792791,148,0.25708008,-0.80670166,-0.41461182
1602330792791,149,0.20336914,-0.96221924,-0.39019775
1602330792791,150,0.20336914,-0.96221924,-0.39019775
1602330792791,151,0.25439453,-0.79693604,-0.3279419
1602330792791,152,0.3491211,-0.88848877,-0.300354
1602330792791,153,0.23852539,-0.8723755,-0.29693604
1602330792791,154,0.23852539,-0.8723755,-0.29693604
1602330792791,155,0.25439453,-0.79693604,-0.3279419
1602330792791,156,0.25439453,-0.79693604,-0.3279419
1602330792791,157,0.41674805,-1.0056763,-0.30108643
1602330792791,158,0.3491211,-0.88848877,-0.300354
1602330792791,159,0.3491211,-0.88848877,-0.300354
1602330792791,160,0.34057617,-1.1211548,-0.4348755
1602330792791,161,0.41674805,-1.0056763,-0.30108643
1602330792791,162,0.19897461,-0.8394165,-0.42974854
1602330792791,163,0.41674805,-1.0056763,-0.30108643
1602330792791,164,0.34057617,-1.1211548,-0.4348755
1602330792791,165,0.34057617,-1.1211548,-0.4348755
1602330792791,166,0.140625,-0.87628174,-0.35406494
1602330792791,167,0.19897461,-0.8394165,-0.42974854
1602330792791,168,0.19897461,-0.8394165,-0.42974854
1602330792791,169,0.2626953,-0.89434814,-0.2871704
1602330792791,170,0.140625,-0.87628174,-0.35406494
1602330792791,171,0.27563477,-0.9180298,-0.19805908
1602330792791,172,0.140625,-0.87628174,-0.35406494
1602330792791,173,0.2626953,-0.89434814,-0.2871704
1602330792791,174,0.26953125,-0.9522095,-0.16583252
1602330792791,175,0.25756836,-0.9517212,-0.19244385
1602330792791,176,0.2626953,-0.89434814,-0.2871704
1602330792791,177,0.27563477,-0.9180298,-0.19805908
1602330792791,178,0.27563477,-0.9180298,-0.19805908
1602330792791,179,0.26953125,-0.9522095,-0.16583252
1602330792791,180,0.25805664,-1.0635376,-0.25299072
1602330792791,181,0.26953125,-0.9522095,-0.16583252
1602330792791,182,0.2758789,-0.9768677,-0.3484497
1602330792791,183,0.25756836,-0.9517212,-0.19244385
1602330792791,184,0.25756836,-0.9517212,-0.19244385
1602330792791,185,0.27246094,-0.87750244,-0.34527588
1602330792791,186,0.25805664,-1.0635376,-0.25299072
1602330792791,187,0.25805664,-1.0635376,-0.25299072
1602330792791,188,0.2758789,-0.9768677,-0.3484497
1602330792791,189,0.2758789,-0.9768677,-0.3484497
1602330792791,190,0.27246094,-0.87750244,-0.34527588
1602330792791,191,0.27246094,-0.87750244,-0.34527588
1602330795374,192,0.3005371,-0.8477173,-0.41461182
1602330795374,193,0.3005371,-0.8477173,-0.41461182
1602330792791,194,0.3005371,-0.8477173,-0.41461182
1602330795374,195,0.32006836,-0.881897,-0.4492798
1602330795374,196,0.32006836,-0.881897,-0.4492798
1602330795374,197,0.32006836,-0.881897,-0.4492798
1602330795374,198,0.3395996,-0.8777466,-0.44073486
1602330795374,199,0.3395996,-0.8777466,-0.44073486
1602330795374,200,0.29785156,-0.8960571,-0.41168213
1602330795374,201,0.29785156,-0.8960571,-0.41168213
1602330795374,202,0.29101562,-0.9048462,-0.36798096
1602330795374,203,0.29101562,-0.9048462,-0.36798096
1602330795374,204,0.3395996,-0.8777466,-0.44073486
1602330795374,205,0.30004883,-0.88775635,-0.3418579
1602330795374,206,0.30004883,-0.88775635,-0.3418579
1602330795374,207,0.29785156,-0.8960571,-0.41168213
1602330795374,208,0.34399414,-0.8587036,-0.32330322
1602330795374,209,0.34399414,-0.8587036,-0.32330322
1602330795374,210,0.29101562,-0.9048462,-0.36798096
1602330795374,211,0.34545898,-0.8850708,-0.33306885
1602330795374,212,0.34545898,-0.8850708,-0.33306885
1602330795374,213,0.30004883,-0.88775635,-0.3418579
1602330795374,214,0.3251953,-0.9685669,-0.34210205
1602330795374,215,0.28515625,-0.87628174,-0.37677002
1602330795374,216,0.3251953,-0.9685669,-0.34210205
1602330795374,217,0.34399414,-0.8587036,-0.32330322
1602330795374,218,0.06762695,-0.9639282,-0.39263916
1602330795374,219,0.28515625,-0.87628174,-0.37677002
1602330795374,220,0.34545898,-0.8850708,-0.33306885
1602330795374,221,0.11987305,-1.0110474,-0.32843018
1602330795374,222,0.06762695,-0.9639282,-0.39263916
1602330795374,223,0.3251953,-0.9685669,-0.34210205
1602330795374,224,0.16040039,-0.9807739,-0.29718018
1602330795374,225,0.11987305,-1.0110474,-0.32843018
1602330795374,226,0.22583008,-0.94976807,-0.22515869
1602330795374,227,0.28515625,-0.87628174,-0.37677002
1602330795374,228,0.16040039,-0.9807739,-0.29718018
1602330795374,229,0.21875,-0.9475708,-0.20123291
1602330795374,230,0.06762695,-0.9639282,-0.39263916
1602330795374,231,0.22583008,-0.94976807,-0.22515869
1602330795374,232,0.24926758,-0.987854,-0.22003174
1602330795374,233,0.11987305,-1.0110474,-0.32843018
1602330795374,234,0.21875,-0.9475708,-0.20123291
1602330795374,235,0.16040039,-0.9807739,-0.29718018
1602330795374,236,0.21801758,-1.0117798,-0.3513794
1602330795374,237,0.22583008,-0.94976807,-0.22515869
1602330795374,238,0.24926758,-0.987854,-0.22003174
1602330795374,239,0.24658203,-0.95684814,-0.40509033
1602330795374,240,0.21875,-0.9475708,-0.20123291
1602330795374,241,0.27368164,-0.861145,-0.33648682
1602330795374,242,0.21801758,-1.0117798,-0.3513794
1602330795374,243,0.24926758,-0.987854,-0.22003174
1602330795374,244,0.20532227,-0.895813,-0.362854
1602330795374,245,0.24658203,-0.95684814,-0.40509033
1602330795374,246,0.27368164,-0.861145,-0.33648682
1602330795374,247,0.21801758,-1.0117798,-0.3513794
1602330795374,248,0.24023438,-0.86920166,-0.32843018
1602330795374,249,0.20532227,-0.895813,-0.362854
1602330795374,250,0.2709961,-0.85040283,-0.32989502
1602330795374,251,0.24658203,-0.95684814,-0.40509033
1602330795374,252,0.24023438,-0.86920166,-0.32843018
1602330795374,253,0.27368164,-0.861145,-0.33648682
1602330795374,254,0.2709961,-0.85040283,-0.32989502
1602330795374,255,0.27172852,-0.9224243,-0.31695557
1602330795374,256,0.20532227,-0.895813,-0.362854
1602330795374,257,0.31445312,-0.95147705,-0.35113525
1602330795374,258,0.27172852,-0.9224243,-0.31695557
1602330795374,259,0.24023438,-0.86920166,-0.32843018
1602330795374,260,0.31445312,-0.95147705,-0.35113525
1602330795374,261,0.37890625,-1.0374146,-0.38165283
1602330795374,262,0.2709961,-0.85040283,-0.32989502
1602330795374,263,0.29467773,-0.9680786,-0.45733643
1602330795374,264,0.37890625,-1.0374146,-0.38165283
1602330795374,265,0.27172852,-0.9224243,-0.31695557
1602330795374,266,0.079589844,-0.8008423,-0.44439697
1602330795374,267,0.29467773,-0.9680786,-0.45733643
1602330795374,268,0.19360352,-0.9104614,-0.40753174
1602330795374,269,0.31445312,-0.95147705,-0.35113525
1602330795374,270,0.24145508,-0.8882446,-0.38848877
1602330795374,271,0.37890625,-1.0374146,-0.38165283
1602330795374,272,0.22485352,-0.8989868,-0.32061768
1602330795374,273,0.079589844,-0.8008423,-0.44439697
1602330795374,274,0.29467773,-0.9680786,-0.45733643
1602330795374,275,0.2397461,-0.8882446,-0.24029541
1602330795374,276,0.19360352,-0.9104614,-0.40753174
1602330795374,277,0.079589844,-0.8008423,-0.44439697
1602330795374,278,0.2397461,-0.9602661,-0.24932861
1602330795374,279,0.24145508,-0.8882446,-0.38848877
1602330795374,280,0.19360352,-0.9104614,-0.40753174
1602330795374,281,0.24145508,-0.8882446,-0.38848877
1602330795374,282,0.22485352,-0.8989868,-0.32061768
1602330795374,283,0.22485352,-0.8989868,-0.32061768
1602330795374,284,0.2397461,-0.8882446,-0.24029541
1602330795374,285,0.2397461,-0.9602661,-0.24932861
1602330795374,286,0.2397461,-0.8882446,-0.24029541
1602330795374,287,0.2397461,-0.9602661,-0.24932861
1602330795374,288,0.33154297,-1.0852661,-0.28546143
1602330797960,289,0.33154297,-1.0852661,-0.28546143
1602330797960,290,0.27783203,-1.0703735,-0.43414307
1602330797960,291,0.33154297,-1.0852661,-0.28546143
1602330797960,292,0.23364258,-0.78131104,-0.39093018
1602330797960,293,0.27783203,-1.0703735,-0.43414307
1602330797960,294,0.23876953,-0.7991333,-0.50616455
1602330797960,295,0.23364258,-0.78131104,-0.39093018
1602330797960,296,0.16870117,-0.90802,-0.45635986
1602330797960,297,0.23876953,-0.7991333,-0.50616455
1602330797960,298,0.27783203,-1.0703735,-0.43414307
1602330797960,299,0.16870117,-0.90802,-0.45635986
1602330797960,300,0.23364258,-0.78131104,-0.39093018
1602330797960,301,0.23803711,-0.7671509,-0.42730713
1602330797960,302,0.23803711,-0.7671509,-0.42730713
1602330797960,303,0.23876953,-0.7991333,-0.50616455
1602330797960,304,0.2524414,-0.82037354,-0.4109497
1602330797960,305,0.2524414,-0.82037354,-0.4109497
1602330797960,306,0.16870117,-0.90802,-0.45635986
1602330797960,307,0.33520508,-0.87042236,-0.39801025
1602330797960,308,0.23803711,-0.7671509,-0.42730713
1602330797960,309,0.2524414,-0.82037354,-0.4109497
1602330797960,310,0.33520508,-0.87042236,-0.39801025
1602330797960,311,0.31689453,-1.0100708,-0.43341064
1602330797960,312,0.33520508,-0.87042236,-0.39801025
1602330797960,313,0.31689453,-1.0100708,-0.43341064
1602330797960,314,0.3137207,-1.0532837,-0.53375244
1602330797960,315,0.31689453,-1.0100708,-0.43341064
1602330797960,316,0.3137207,-1.0532837,-0.53375244
1602330797960,317,0.15356445,-0.7788696,-0.5010376
1602330797960,318,0.3137207,-1.0532837,-0.53375244
1602330797960,319,0.20532227,-0.8233032,-0.43096924
1602330797960,320,0.15356445,-0.7788696,-0.5010376
1602330797960,321,0.15356445,-0.7788696,-0.5010376
1602330797960,322,0.27734375,-0.89312744,-0.40020752
1602330797960,323,0.20532227,-0.8233032,-0.43096924
1602330797960,324,0.20532227,-0.8233032,-0.43096924
1602330797960,325,0.27905273,-0.8557739,-0.3242798
1602330797960,326,0.27734375,-0.89312744,-0.40020752
1602330797960,327,0.27734375,-0.89312744,-0.40020752
1602330797960,328,0.27026367,-0.88165283,-0.29351807
1602330797960,329,0.27905273,-0.8557739,-0.3242798
1602330797960,330,0.27905273,-0.8557739,-0.3242798
1602330797960,331,0.28930664,-0.9199829,-0.28961182
1602330797960,332,0.27026367,-0.88165283,-0.29351807
1602330797960,333,0.31347656,-0.9690552,-0.29571533
1602330797960,334,0.27026367,-0.88165283,-0.29351807
1602330797960,335,0.28930664,-0.9199829,-0.28961182
1602330797960,336,0.28930664,-0.9199829,-0.28961182
1602330797960,337,0.38964844,-1.0327759,-0.43511963
1602330797960,338,0.31347656,-0.9690552,-0.29571533
1602330797960,339,0.31347656,-0.9690552,-0.29571533
1602330797960,340,0.2788086,-0.9158325,-0.489563
1602330797960,341,0.3154297,-0.70758057,-0.5108032
1602330797960,342,0.38964844,-1.0327759,-0.43511963
1602330797960,343,0.31298828,-0.71466064,-0.68170166
1602330797960,344,0.38964844,-1.0327759,-0.43511963
1602330797960,345,0.2788086,-0.9158325,-0.489563
1602330797960,346,0.2788086,-0.9158325,-0.489563
1602330797960,347,0.38916016,-0.6741333,-0.64678955
1602330797960,348,0.3154297,-0.70758057,-0.5108032
1602330797960,349,0.34936523,-0.6694946,-0.6655884
1602330797960,350,0.3154297,-0.70758057,-0.5108032
1602330797960,351,0.31298828,-0.71466064,-0.68170166
1602330797960,352,0.31298828,-0.71466064,-0.68170166
1602330797960,353,0.38916016,-0.6741333,-0.64678955
1602330797960,354,0.3059082,-0.7476196,-0.64434814
1602330797960,355,0.38916016,-0.6741333,-0.64678955
1602330797960,356,0.34936523,-0.6694946,-0.6655884
1602330797960,357,0.29296875,-0.815979,-0.579895
1602330797960,358,0.34936523,-0.6694946,-0.6655884
1602330797960,359,0.26367188,-0.850647,-0.5105591
1602330797960,360,0.3059082,-0.7476196,-0.64434814
1602330797960,361,0.3059082,-0.7476196,-0.64434814
1602330797960,362,0.32177734,-0.8809204,-0.4414673
1602330797960,363,0.29296875,-0.815979,-0.579895
1602330797960,364,0.29296875,-0.815979,-0.579895
1602330797960,365,0.36010742,-0.958313,-0.43267822
1602330797960,366,0.26367188,-0.850647,-0.5105591
1602330797960,367,0.31225586,-0.8093872,-0.46417236
1602330797960,368,0.26367188,-0.850647,-0.5105591
1602330797960,369,0.15893555,-0.8364868,-0.45269775
1602330797960,370,0.21020508,-0.9258423,-0.44000244
1602330797960,371,0.32177734,-0.8809204,-0.4414673
1602330797960,372,0.32177734,-0.8809204,-0.4414673
1602330797960,373,0.36010742,-0.958313,-0.43267822
1602330797960,374,0.20532227,-0.9014282,-0.41973877
1602330797960,375,0.31225586,-0.8093872,-0.46417236
1602330797960,376,0.36010742,-0.958313,-0.43267822
1602330797960,377,0.15893555,-0.8364868,-0.45269775
1602330797960,378,0.31225586,-0.8093872,-0.46417236
1602330797960,379,0.21020508,-0.9258423,-0.44000244
1602330797960,380,0.15893555,-0.8364868,-0.45269775
1602330797960,381,0.20532227,-0.9014282,-0.41973877
1602330797960,382,0.21020508,-0.9258423,-0.44000244
1602330797960,383,0.20532227,-0.9014282,-0.41973877
1602330800480,384,0.21826172,-0.9143677,-0.36431885
1602330797960,385,0.21826172,-0.9143677,-0.36431885
1602330800540,386,0.21826172,-0.9143677,-0.36431885
1602330800540,387,0.22167969,-0.925354,-0.33258057
1602330800540,388,0.22167969,-0.925354,-0.33258057
1602330800540,389,0.19506836,-0.9248657,-0.30499268
1602330800540,390,0.22167969,-0.925354,-0.33258057
1602330800540,391,0.19506836,-0.9248657,-0.30499268
1602330800540,392,0.22290039,-0.95880127,-0.2793579
1602330800540,393,0.19506836,-0.9248657,-0.30499268
1602330800540,394,0.22290039,-0.95880127,-0.2793579
1602330800540,395,0.22290039,-0.95880127,-0.2793579
1602330800540,396,0.27416992,-1.0342407,-0.2888794
1602330800540,397,0.27416992,-1.0342407,-0.2888794
1602330800540,398,0.27416992,-1.0342407,-0.2888794
1602330800540,399,0.22680664,-0.97076416,-0.4595337
1602330800540,400,0.22680664,-0.97076416,-0.4595337
1602330800540,401,0.22680664,-0.97076416,-0.4595337
1602330800540,402,0.22753906,-0.9002075,-0.3723755
1602330800540,403,0.22753906,-0.9002075,-0.3723755
1602330800540,404,0.22753906,-0.9002075,-0.3723755
1602330800540,405,0.24145508,-0.78375244,-0.43048096
1602330800540,406,0.24145508,-0.78375244,-0.43048096
1602330800540,407,0.26831055,-0.8184204,-0.50665283
1602330800540,408,0.26831055,-0.8184204,-0.50665283
1602330800540,409,0.24145508,-0.78375244,-0.43048096
1602330800540,410,0.26831055,-0.881897,-0.48590088
1602330800540,411,0.26831055,-0.8184204,-0.50665283
1602330800540,412,0.26831055,-0.881897,-0.48590088
1602330800540,413,0.26831055,-0.881897,-0.48590088
1602330800540,414,0.26708984,-0.8430786,-0.4505005
1602330800540,415,0.26708984,-0.8430786,-0.4505005
1602330800540,416,0.29492188,-0.83966064,-0.5227661
1602330800541,417,0.29492188,-0.83966064,-0.5227661
1602330800540,418,0.26708984,-0.8430786,-0.4505005
1602330800541,419,0.2626953,-0.8855591,-0.5054321
1602330800541,420,0.2626953,-0.8855591,-0.5054321
1602330800541,421,0.29492188,-0.83966064,-0.5227661
1602330800541,422,0.27246094,-0.8308716,-0.45684814
1602330800541,423,0.27246094,-0.8308716,-0.45684814
1602330800541,424,0.2626953,-0.8855591,-0.5054321
1602330800541,425,0.2956543,-0.8189087,-0.47003174
1602330800541,426,0.27246094,-0.8308716,-0.45684814
1602330800541,427,0.2956543,-0.8189087,-0.47003174
1602330800541,428,0.30737305,-0.8555298,-0.46246338
1602330800541,429,0.2956543,-0.8189087,-0.47003174
1602330800541,430,0.3244629,-0.8652954,-0.43829346
1602330800541,431,0.30737305,-0.8555298,-0.46246338
1602330800541,432,0.30737305,-0.8555298,-0.46246338
1602330800541,433,0.31518555,-0.9199829,-0.49517822
1602330800541,434,0.3244629,-0.8652954,-0.43829346
1602330800541,435,0.3244629,-0.8652954,-0.43829346
1602330800541,436,0.31518555,-0.9199829,-0.49517822
1602330800541,437,0.30810547,-0.8674927,-0.48101807
1602330800541,438,0.31518555,-0.9199829,-0.49517822
1602330800541,439,0.17211914,-0.80352783,-0.47735596
1602330800541,440,0.30810547,-0.8674927,-0.48101807
1602330800541,441,0.17211914,-0.80352783,-0.47735596
1602330800541,442,0.09790039,-0.98272705,-0.45196533
1602330800541,443,0.30810547,-0.8674927,-0.48101807
1602330800541,444,0.09790039,-0.98272705,-0.45196533
1602330800541,445,0.19995117,-0.9351196,-0.4319458
1602330800541,446,0.17211914,-0.80352783,-0.47735596
1602330800541,447,0.1928711,-0.8740845,-0.3867798
1602330800541,448,0.09790039,-0.98272705,-0.45196533
1602330800542,449,0.24389648,-0.89727783,-0.3579712
1602330800541,450,0.19995117,-0.9351196,-0.4319458
1602330800542,451,0.2319336,-0.89312744,-0.32281494
1602330800542,452,0.19995117,-0.9351196,-0.4319458
1602330800542,453,0.1928711,-0.8740845,-0.3867798
1602330800542,454,0.1928711,-0.8740845,-0.3867798
1602330800542,455,0.21484375,-0.9014282,-0.32818604
1602330800542,456,0.24389648,-0.89727783,-0.3579712
1602330800542,457,0.24389648,-0.89727783,-0.3579712
1602330800542,458,0.2446289,-0.97369385,-0.33062744
1602330800542,459,0.2319336,-0.89312744,-0.32281494
1602330800542,460,0.2319336,-0.89312744,-0.32281494
1602330800542,461,0.22705078,-1.1052856,-0.45758057
1602330800542,462,0.21484375,-0.9014282,-0.32818604
1602330800542,463,0.21484375,-0.9014282,-0.32818604
1602330800542,464,0.14648438,-1.0027466,-0.47833252
1602330800542,465,0.2446289,-0.97369385,-0.33062744
1602330800542,466,0.2446289,-0.97369385,-0.33062744
1602330800542,467,0.22705078,-1.1052856,-0.45758057
1602330800542,468,0.16772461,-0.741272,-0.46246338
1602330800542,469,0.22705078,-1.1052856,-0.45758057
1602330800542,470,0.17333984,-0.79571533,-0.61065674
1602330800542,471,0.14648438,-1.0027466,-0.47833252
1602330800542,472,0.14648438,-1.0027466,-0.47833252
1602330800542,473,0.19067383,-0.87457275,-0.5322876
1602330800542,474,0.16772461,-0.741272,-0.46246338
1602330800542,475,0.16772461,-0.741272,-0.46246338
1602330800542,476,0.17333984,-0.79571533,-0.61065674
1602330800542,477,0.17333984,-0.79571533,-0.61065674
1602330800542,478,0.19067383,-0.87457275,-0.5322876
1602330800542,479,0.19067383,-0.87457275,-0.5322876
1602330803061,480,0.1821289,-0.82281494,-0.47247314
1602330800541,481,0.1821289,-0.82281494,-0.47247314
1602330802926,482,0.1821289,-0.82281494,-0.47247314
1602330802926,483,0.21850586,-0.8286743,-0.45758057
1602330802926,484,0.21850586,-0.8286743,-0.45758057
1602330802926,485,0.21850586,-0.8286743,-0.45758057
1602330802926,486,0.26416016,-0.83551025,-0.41900635
1602330802926,487,0.26416016,-0.83551025,-0.41900635
1602330802926,488,0.26416016,-0.83551025,-0.41900635
1602330802926,489,0.31201172,-0.8569946,-0.42193604
1602330802926,490,0.31201172,-0.8569946,-0.42193604
1602330802926,491,0.31201172,-0.8569946,-0.42193604
1602330802926,492,0.34399414,-0.9956665,-0.46783447
1602330802926,493,0.34399414,-0.9956665,-0.46783447
1602330802926,494,0.34399414,-0.9956665,-0.46783447
1602330802926,495,0.29956055,-0.9890747,-0.5454712
1602330802926,496,0.29956055,-0.9890747,-0.5454712
1602330802926,497,0.29956055,-0.9890747,-0.5454712
1602330802926,498,0.107666016,-0.7913208,-0.47564697
1602330802926,499,0.107666016,-0.7913208,-0.47564697
1602330802926,500,0.1694336,-0.89727783,-0.44683838
1602330802926,501,0.1694336,-0.89727783,-0.44683838
1602330802926,502,0.107666016,-0.7913208,-0.47564697
1602330802926,503,0.21313477,-0.8689575,-0.43780518
1602330802926,504,0.20654297,-0.8882446,-0.38824463
1602330802926,505,0.1694336,-0.89727783,-0.44683838
1602330802926,506,0.21850586,-0.9026489,-0.3587036
1602330802926,507,0.21313477,-0.8689575,-0.43780518
1602330802926,508,0.21313477,-0.8689575,-0.43780518
1602330802926,509,0.23242188,-0.9072876,-0.31451416
1602330802926,510,0.20654297,-0.8882446,-0.38824463
1602330802926,511,0.20654297,-0.8882446,-0.38824463
1602330802926,512,0.21850586,-0.9026489,-0.3587036
1602330802926,513,0.21850586,-0.9365845,-0.3369751
1602330802927,514,0.21850586,-0.9026489,-0.3587036
1602330802927,515,0.23242188,-0.9072876,-0.31451416
1602330802927,516,0.23242188,-0.9072876,-0.31451416
1602330802927,517,0.27856445,-0.9968872,-0.3423462
1602330802927,518,0.21850586,-0.9365845,-0.3369751
1602330802927,519,0.27856445,-0.9968872,-0.3423462
1602330802927,520,0.21850586,-0.9365845,-0.3369751
1602330802927,521,0.18969727,-1.0261841,-0.47198486
1602330802927,522,0.1574707,-0.90045166,-0.42340088
1602330802927,523,0.27856445,-0.9968872,-0.3423462
1602330802927,524,0.18969727,-1.0261841,-0.47198486
1602330802927,525,0.25048828,-0.7385864,-0.4734497
1602330802927,526,0.1574707,-0.90045166,-0.42340088
1602330802927,527,0.18969727,-1.0261841,-0.47198486
1602330802927,528,0.28320312,-0.82525635,-0.5615845
1602330802927,529,0.25610352,-0.89385986,-0.50787354
1602330802927,530,0.1574707,-0.90045166,-0.42340088
1602330802927,531,0.24609375,-0.8140259,-0.47833252
1602330802927,532,0.25048828,-0.7385864,-0.4734497
1602330802927,533,0.25048828,-0.7385864,-0.4734497
1602330802927,534,0.28320312,-0.82525635,-0.5615845
1602330802927,535,0.27563477,-0.82818604,-0.47979736
1602330802927,536,0.28320312,-0.82525635,-0.5615845
1602330802927,537,0.28271484,-0.8440552,-0.47198486
1602330802927,538,0.25610352,-0.89385986,-0.50787354
1602330802927,539,0.25610352,-0.89385986,-0.50787354
1602330802927,540,0.25878906,-0.8604126,-0.4578247
1602330802927,541,0.24609375,-0.8140259,-0.47833252
1602330802927,542,0.24609375,-0.8140259,-0.47833252
1602330802927,543,0.27563477,-0.82818604,-0.47979736
1602330802927,544,0.33569336,-0.9421997,-0.51226807
1602330802928,545,0.28271484,-0.8440552,-0.47198486
1602330802927,546,0.27563477,-0.82818604,-0.47979736
1602330802928,547,0.34228516,-0.8897095,-0.5359497
1602330802928,548,0.25878906,-0.8604126,-0.4578247
1602330802928,549,0.23461914,-0.7595825,-0.47613525
1602330802928,550,0.33569336,-0.9421997,-0.51226807
1602330802928,551,0.28271484,-0.8440552,-0.47198486
1602330802928,552,0.18896484,-0.8633423,-0.49224854
1602330802928,553,0.25878906,-0.8604126,-0.4578247
1602330802928,554,0.34228516,-0.8897095,-0.5359497
1602330802928,555,0.24414062,-0.8845825,-0.5076294
1602330802928,556,0.23461914,-0.7595825,-0.47613525
1602330802928,557,0.33569336,-0.9421997,-0.51226807
1602330802928,558,0.2680664,-0.8538208,-0.47540283
1602330802928,559,0.34228516,-0.8897095,-0.5359497
1602330802928,560,0.18896484,-0.8633423,-0.49224854
1602330802928,561,0.30322266,-0.88848877,-0.458313
1602330802928,562,0.23461914,-0.7595825,-0.47613525
1602330802928,563,0.27856445,-0.89312744,-0.43585205
1602330802928,564,0.18896484,-0.8633423,-0.49224854
1602330802928,565,0.21240234,-0.9133911,-0.40509033
1602330802928,566,0.24414062,-0.8845825,-0.5076294
1602330802928,567,0.24414062,-0.8845825,-0.5076294
1602330802928,568,0.2680664,-0.8538208,-0.47540283
1602330802928,569,0.2680664,-0.8538208,-0.47540283
1602330802928,570,0.30322266,-0.88848877,-0.458313
1602330802928,571,0.30322266,-0.88848877,-0.458313
1602330802928,572,0.27856445,-0.89312744,-0.43585205
1602330802928,573,0.27856445,-0.89312744,-0.43585205
1602330802928,574,0.21240234,-0.9133911,-0.40509033
1602330802928,575,0.21240234,-0.9133911,-0.40509033
1602330802927,576,0.20581055,-0.9026489,-0.38067627
1602330805447,577,0.20581055,-0.9026489,-0.38067627
1602330805509,578,0.20581055,-0.9026489,-0.38067627
1602330805509,579,0.23413086,-0.8977661,-0.3809204
1602330805509,580,0.23413086,-0.8977661,-0.3809204
1602330805509,581,0.19921875,-0.9065552,-0.39483643
1602330805509,582,0.23413086,-0.8977661,-0.3809204
1602330805509,583,0.19921875,-0.9065552,-0.39483643
1602330805509,584,0.14624023,-0.9385376,-0.3587036
1602330805509,585,0.19921875,-0.9065552,-0.39483643
1602330805509,586,0.14624023,-0.9385376,-0.3587036
1602330805509,587,0.18579102,-0.9492798,-0.3357544
1602330805509,588,0.14624023,-0.9385376,-0.3587036
1602330805509,589,0.18579102,-0.9492798,-0.3357544
1602330805509,590,0.20288086,-0.972229,-0.33111572
1602330805509,591,0.20288086,-0.972229,-0.33111572
1602330805509,592,0.18847656,-0.9434204,-0.30621338
1602330805509,593,0.18847656,-0.9434204,-0.30621338
1602330805509,594,0.18579102,-0.9492798,-0.3357544
1602330805509,595,0.22070312,-0.95391846,-0.28814697
1602330805509,596,0.20288086,-0.972229,-0.33111572
1602330805509,597,0.24633789,-0.92755127,-0.36260986
1602330805509,598,0.22070312,-0.95391846,-0.28814697
1602330805509,599,0.18847656,-0.9434204,-0.30621338
1602330805509,600,0.24243164,-0.8887329,-0.35113525
1602330805509,601,0.22070312,-0.95391846,-0.28814697
1602330805509,602,0.28222656,-0.84820557,-0.39996338
1602330805509,603,0.30664062,-0.9002075,-0.43634033
1602330805509,604,0.24633789,-0.92755127,-0.36260986
1602330805509,605,0.29296875,-0.9102173,-0.41046143
1602330805509,606,0.24633789,-0.92755127,-0.36260986
1602330805509,607,0.24243164,-0.8887329,-0.35113525
1602330805509,608,0.33496094,-0.8364868,-0.41314697
1602330805510,609,0.24243164,-0.8887329,-0.35113525
1602330805510,610,0.28222656,-0.84820557,-0.39996338
1602330805510,611,0.35375977,-0.8320923,-0.43023682
1602330805510,612,0.28222656,-0.84820557,-0.39996338
1602330805510,613,0.30664062,-0.9002075,-0.43634033
1602330805510,614,0.30664062,-0.9002075,-0.43634033
1602330805510,615,0.35473633,-0.84869385,-0.41046143
1602330805510,616,0.29296875,-0.9102173,-0.41046143
1602330805510,617,0.29296875,-0.9102173,-0.41046143
1602330805510,618,0.36816406,-0.8677368,-0.39117432
1602330805510,619,0.33496094,-0.8364868,-0.41314697
1602330805510,620,0.33496094,-0.8364868,-0.41314697
1602330805510,621,0.2734375,-0.92755127,-0.42193604
1602330805510,622,0.35375977,-0.8320923,-0.43023682
1602330805510,623,0.35375977,-0.8320923,-0.43023682
1602330805510,624,0.35473633,-0.84869385,-0.41046143
1602330805510,625,0.35473633,-0.84869385,-0.41046143
1602330805510,626,0.36816406,-0.8677368,-0.39117432
1602330805510,627,0.31884766,-0.8953247,-0.42633057
1602330805510,628,0.36816406,-0.8677368,-0.39117432
1602330805510,629,0.2055664,-0.8533325,-0.43878174
1602330805510,630,0.2734375,-0.92755127,-0.42193604
1602330805510,631,0.2734375,-0.92755127,-0.42193604
1602330805510,632,0.31884766,-0.8953247,-0.42633057
1602330805510,633,0.15185547,-0.9985962,-0.40924072
1602330805510,634,0.31884766,-0.8953247,-0.42633057
1602330805510,635,0.2055664,-0.8533325,-0.43878174
1602330805510,636,0.20214844,-0.93878174,-0.3711548
1602330805510,637,0.2055664,-0.8533325,-0.43878174
1602330805510,638,0.15185547,-0.9985962,-0.40924072
1602330805510,639,0.20410156,-0.8965454,-0.35308838
1602330805510,640,0.20214844,-0.93878174,-0.3711548
1602330805510,641,0.15185547,-0.9985962,-0.40924072
1602330805511,642,0.20410156,-0.8965454,-0.35308838
1602330805511,643,0.2602539,-0.9024048,-0.37701416
1602330805511,644,0.2602539,-0.9024048,-0.37701416
1602330805511,645,0.20214844,-0.93878174,-0.3711548
1602330805511,646,0.22558594,-0.8987427,-0.36187744
1602330805511,647,0.22558594,-0.8987427,-0.36187744
1602330805511,648,0.1875,-0.91119385,-0.34210205
1602330805511,649,0.1875,-0.91119385,-0.34210205
1602330805511,650,0.20410156,-0.8965454,-0.35308838
1602330805511,651,0.2602539,-0.9024048,-0.37701416
1602330805511,652,0.1940918,-0.96954346,-0.34625244
1602330805511,653,0.1940918,-0.96954346,-0.34625244
1602330805511,654,0.22558594,-0.8987427,-0.36187744
1602330805511,655,0.25048828,-1.0003052,-0.38946533
1602330805511,656,0.1875,-0.91119385,-0.34210205
1602330805511,657,0.25048828,-1.0003052,-0.38946533
1602330805511,658,0.1940918,-0.96954346,-0.34625244
1602330805511,659,0.22387695,-0.9944458,-0.47833252
1602330805511,660,0.22387695,-0.9944458,-0.47833252
1602330805511,661,0.25048828,-1.0003052,-0.38946533
1602330805511,662,0.203125,-0.8855591,-0.4578247
1602330805511,663,0.203125,-0.8855591,-0.4578247
1602330805511,664,0.22387695,-0.9944458,-0.47833252
1602330805511,665,0.21704102,-0.74884033,-0.5142212
1602330805511,666,0.21704102,-0.74884033,-0.5142212
1602330805511,667,0.203125,-0.8855591,-0.4578247
1602330805511,668,0.23632812,-0.7908325,-0.5628052
1602330805511,669,0.23632812,-0.7908325,-0.5628052
1602330805511,670,0.21704102,-0.74884033,-0.5142212
1602330805511,671,0.23632812,-0.7908325,-0.5628052
1602330805510,672,0.22680664,-0.864563,-0.5354614
1602330808093,673,0.22680664,-0.864563,-0.5354614
1602330808030,674,0.22680664,-0.864563,-0.5354614
1602330808093,675,0.23779297,-0.80963135,-0.48199463
1602330808093,676,0.23779297,-0.80963135,-0.48199463
1602330808093,677,0.23779297,-0.80963135,-0.48199463
1602330808093,678,0.25146484,-0.81207275,-0.47198486
1602330808093,679,0.25146484,-0.81207275,-0.47198486
1602330808093,680,0.25146484,-0.81207275,-0.47198486
1602330808093,681,0.29174805,-0.8508911,-0.41192627
1602330808093,682,0.29174805,-0.8508911,-0.41192627
1602330808093,683,0.3095703,-0.87872314,-0.40386963
1602330808093,684,0.29174805,-0.8508911,-0.41192627
1602330808093,685,0.3095703,-0.87872314,-0.40386963
1602330808093,686,0.3491211,-0.9631958,-0.40899658
1602330808093,687,0.3095703,-0.87872314,-0.40386963
1602330808093,688,0.3762207,-1.0261841,-0.46636963
1602330808093,689,0.3491211,-0.9631958,-0.40899658
1602330808093,690,0.3491211,-0.9631958,-0.40899658
1602330808093,691,0.28515625,-0.8526001,-0.44610596
1602330808093,692,0.3762207,-1.0261841,-0.46636963
1602330808093,693,0.1105957,-0.85235596,-0.42315674
1602330808093,694,0.28515625,-0.8526001,-0.44610596
1602330808093,695,0.3762207,-1.0261841,-0.46636963
1602330808093,696,0.1809082,-0.94195557,-0.37213135
1602330808093,697,0.1105957,-0.85235596,-0.42315674
1602330808093,698,0.21313477,-0.8887329,-0.3406372
1602330808093,699,0.1809082,-0.94195557,-0.37213135
1602330808093,700,0.28515625,-0.8526001,-0.44610596
1602330808093,701,0.21826172,-0.92633057,-0.26617432
1602330808093,702,0.21313477,-0.8887329,-0.3406372
1602330808093,703,0.1105957,-0.85235596,-0.42315674
1602330808093,704,0.23754883,-0.89556885,-0.24420166
1602330808094,705,0.1809082,-0.94195557,-0.37213135
1602330808094,706,0.20776367,-0.91778564,-0.237854
1602330808093,707,0.21826172,-0.92633057,-0.26617432
1602330808094,708,0.21313477,-0.8887329,-0.3406372
1602330808094,709,0.23754883,-0.89556885,-0.24420166
1602330808094,710,0.22827148,-0.99664307,-0.22979736
1602330808094,711,0.21826172,-0.92633057,-0.26617432
1602330808094,712,0.28808594,-1.1218872,-0.3255005
1602330808094,713,0.20776367,-0.91778564,-0.237854
1602330808094,714,0.15063477,-1.0095825,-0.362854
1602330808094,715,0.23754883,-0.89556885,-0.24420166
1602330808094,716,0.22827148,-0.99664307,-0.22979736
1602330808094,717,0.20776367,-0.91778564,-0.237854
1602330808094,718,0.20532227,-0.8032837,-0.380188
1602330808094,719,0.28808594,-1.1218872,-0.3255005
1602330808094,720,0.23535156,-0.8574829,-0.5029907
1602330808094,721,0.15063477,-1.0095825,-0.362854
1602330808094,722,0.21655273,-0.9299927,-0.40216064
1602330808094,723,0.20532227,-0.8032837,-0.380188
1602330808094,724,0.22827148,-0.99664307,-0.22979736
1602330808094,725,0.23535156,-0.8574829,-0.5029907
1602330808094,726,0.28808594,-1.1218872,-0.3255005
1602330808094,727,0.21801758,-0.83966064,-0.3850708
1602330808094,728,0.21655273,-0.9299927,-0.40216064
1602330808094,729,0.15063477,-1.0095825,-0.362854
1602330808094,730,0.22924805,-0.85235596,-0.3994751
1602330808094,731,0.20532227,-0.8032837,-0.380188
1602330808094,732,0.21801758,-0.83966064,-0.3850708
1602330808094,733,0.27612305,-0.8587036,-0.3735962
1602330808094,734,0.22924805,-0.85235596,-0.3994751
1602330808094,735,0.23535156,-0.8574829,-0.5029907
1602330808094,736,0.27612305,-0.8587036,-0.3735962
1602330808094,737,0.29663086,-0.8999634,-0.37945557
1602330808095,738,0.21655273,-0.9299927,-0.40216064
1602330808095,739,0.3527832,-1.0056763,-0.4602661
1602330808095,740,0.29663086,-0.8999634,-0.37945557
1602330808095,741,0.3486328,-0.98101807,-0.53082275
1602330808095,742,0.3527832,-1.0056763,-0.4602661
1602330808095,743,0.21801758,-0.83966064,-0.3850708
1602330808095,744,0.1730957,-0.7576294,-0.48614502
1602330808095,745,0.3486328,-0.98101807,-0.53082275
1602330808095,746,0.13574219,-0.8550415,-0.46246338
1602330808095,747,0.1730957,-0.7576294,-0.48614502
1602330808095,748,0.22924805,-0.85235596,-0.3994751
1602330808095,749,0.13574219,-0.8550415,-0.46246338
1602330808095,750,0.2290039,-0.87677,-0.52471924
1602330808095,751,0.2290039,-0.87677,-0.52471924
1602330808095,752,0.24902344,-0.84503174,-0.44317627
1602330808095,753,0.27612305,-0.8587036,-0.3735962
1602330808095,754,0.26757812,-0.862854,-0.41412354
1602330808095,755,0.24902344,-0.84503174,-0.44317627
1602330808095,756,0.29663086,-0.8999634,-0.37945557
1602330808095,757,0.2763672,-0.87628174,-0.38970947
1602330808095,758,0.26757812,-0.862854,-0.41412354
1602330808095,759,0.3527832,-1.0056763,-0.4602661
1602330808095,760,0.2763672,-0.87628174,-0.38970947
1602330808095,761,0.3486328,-0.98101807,-0.53082275
1602330808095,762,0.1730957,-0.7576294,-0.48614502
1602330808095,763,0.13574219,-0.8550415,-0.46246338
1602330808095,764,0.2290039,-0.87677,-0.52471924
1602330808095,765,0.24902344,-0.84503174,-0.44317627
1602330808095,766,0.26757812,-0.862854,-0.41412354
1602330808095,767,0.2763672,-0.87628174,-0.38970947
1602330810614,768,0.26489258,-0.9011841,-0.42852783
1602330808094,769,0.26489258,-0.9011841,-0.42852783
1602330810677,770,0.29125977,-0.95147705,-0.49493408
1602330810677,771,0.31396484,-0.9241333,-0.46661377
1602330810677,772,0.26489258,-0.9011841,-0.42852783
1602330810677,773,0.29125977,-0.95147705,-0.49493408
1602330810677,774,0.26220703,-0.8233032,-0.49957275
1602330810677,775,0.31396484,-0.9241333,-0.46661377
1602330810677,776,0.29858398,-0.77789307,-0.46783447
1602330810677,777,0.29125977,-0.95147705,-0.49493408
1602330810677,778,0.3125,-0.8045044,-0.5147095
1602330810677,779,0.31396484,-0.9241333,-0.46661377
1602330810677,780,0.33203125,-0.8340454,-0.5154419
1602330810677,781,0.26220703,-0.8233032,-0.49957275
1602330810677,782,0.26220703,-0.8233032,-0.49957275
1602330810677,783,0.29858398,-0.77789307,-0.46783447
1602330810677,784,0.29858398,-0.77789307,-0.46783447
1602330810677,785,0.33032227,-0.8250122,-0.5083618
1602330810677,786,0.3125,-0.8045044,-0.5147095
1602330810677,787,0.29101562,-0.8401489,-0.48565674
1602330810677,788,0.33203125,-0.8340454,-0.5154419
1602330810677,789,0.3125,-0.8045044,-0.5147095
1602330810677,790,0.28686523,-0.85479736,-0.45489502
1602330810677,791,0.33032227,-0.8250122,-0.5083618
1602330810677,792,0.29101562,-0.8401489,-0.48565674
1602330810677,793,0.33203125,-0.8340454,-0.5154419
1602330810677,794,0.2783203,-0.87628174,-0.39434814
1602330810677,795,0.28686523,-0.85479736,-0.45489502
1602330810677,796,0.33032227,-0.8250122,-0.5083618
1602330810677,797,0.32739258,-0.90338135,-0.37774658
1602330810677,798,0.2783203,-0.87628174,-0.39434814
1602330810677,799,0.29052734,-0.9312134,-0.40582275
1602330810677,800,0.29101562,-0.8401489,-0.48565674
1602330810677,801,0.2878418,-0.86846924,-0.33843994
1602330810677,802,0.32739258,-0.90338135,-0.37774658
1602330810677,803,0.28686523,-0.85479736,-0.45489502
1602330810677,804,0.29052734,-0.9312134,-0.40582275
1602330810677,805,0.29125977,-0.8867798,-0.36968994
1602330810677,806,0.2783203,-0.87628174,-0.39434814
1602330810677,807,0.2878418,-0.86846924,-0.33843994
1602330810677,808,0.32739258,-0.90338135,-0.37774658
1602330810677,809,0.3088379,-0.9006958,-0.36773682
1602330810677,810,0.29125977,-0.8867798,-0.36968994
1602330810677,811,0.3088379,-0.9006958,-0.36773682
1602330810677,812,0.29052734,-0.9312134,-0.40582275
1602330810677,813,0.32299805,-0.925354,-0.39801025
1602330810677,814,0.32299805,-0.925354,-0.39801025
1602330810677,815,0.28710938,-0.90411377,-0.39385986
1602330810677,816,0.2878418,-0.86846924,-0.33843994
1602330810677,817,0.28710938,-0.90411377,-0.39385986
1602330810677,818,0.29125977,-0.8867798,-0.36968994
1602330810677,819,0.2109375,-0.8831177,-0.35528564
1602330810677,820,0.2109375,-0.8831177,-0.35528564
1602330810677,821,0.23120117,-0.975647,-0.3394165
1602330810677,822,0.3088379,-0.9006958,-0.36773682
1602330810677,823,0.23120117,-0.975647,-0.3394165
1602330810677,824,0.2553711,-0.9463501,-0.3106079
1602330810677,825,0.2553711,-0.9463501,-0.3106079
1602330810677,826,0.2397461,-0.9121704,-0.2925415
1602330810677,827,0.2397461,-0.9121704,-0.2925415
1602330810677,828,0.2541504,-0.90802,-0.30133057
1602330810677,829,0.32299805,-0.925354,-0.39801025
1602330810677,830,0.2541504,-0.90802,-0.30133057
1602330810677,831,0.24243164,-0.91973877,-0.2786255
1602330810677,832,0.24243164,-0.91973877,-0.2786255
1602330810677,833,0.28710938,-0.90411377,-0.39385986
1602330810677,834,0.2277832,-0.9224243,-0.2756958
1602330810677,835,0.2277832,-0.9224243,-0.2756958
1602330810677,836,0.23291016,-0.9578247,-0.29888916
1602330810677,837,0.23291016,-0.9578247,-0.29888916
1602330810677,838,0.2619629,-0.99664307,-0.31085205
1602330810677,839,0.2109375,-0.8831177,-0.35528564
1602330810677,840,0.2619629,-0.99664307,-0.31085205
1602330810677,841,0.21508789,-1.0056763,-0.40289307
1602330810677,842,0.17651367,-0.95684814,-0.37042236
1602330810677,843,0.21362305,-0.861145,-0.43756104
1602330810677,844,0.23120117,-0.975647,-0.3394165
1602330810677,845,0.21508789,-1.0056763,-0.40289307
1602330810677,846,0.19726562,-0.7854614,-0.5510864
1602330810677,847,0.17651367,-0.95684814,-0.37042236
1602330810677,848,0.24853516,-0.8118286,-0.58258057
1602330810677,849,0.2553711,-0.9463501,-0.3106079
1602330810677,850,0.21362305,-0.861145,-0.43756104
1602330810677,851,0.2397461,-0.9121704,-0.2925415
1602330810677,852,0.2541504,-0.90802,-0.30133057
1602330810677,853,0.19726562,-0.7854614,-0.5510864
1602330810677,854,0.24243164,-0.91973877,-0.2786255
1602330810677,855,0.24853516,-0.8118286,-0.58258057
1602330810677,856,0.2277832,-0.9224243,-0.2756958
1602330810677,857,0.23291016,-0.9578247,-0.29888916
1602330810677,858,0.2619629,-0.99664307,-0.31085205
1602330810677,859,0.21508789,-1.0056763,-0.40289307
1602330810677,860,0.17651367,-0.95684814,-0.37042236
1602330810677,861,0.21362305,-0.861145,-0.43756104
1602330810677,862,0.19726562,-0.7854614,-0.5510864
1602330810677,863,0.24853516,-0.8118286,-0.58258057
1602330813459,864,0.2368164,-0.8538208,-0.5730591
1602330810677,865,0.2368164,-0.8538208,-0.5730591
1602330813459,866,0.2368164,-0.8538208,-0.5730591
1602330813459,867,0.23046875,-0.798645,-0.5408325
1602330813459,868,0.23046875,-0.798645,-0.5408325
1602330813459,869,0.23046875,-0.798645,-0.5408325
1602330813459,870,0.23657227,-0.80303955,-0.5095825
1602330813459,871,0.23657227,-0.80303955,-0.5095825
1602330813459,872,0.23657227,-0.80303955,-0.5095825
1602330813459,873,0.26342773,-0.8328247,-0.5015259
1602330813459,874,0.26342773,-0.8328247,-0.5015259
1602330813459,875,0.26342773,-0.8328247,-0.5015259
1602330813459,876,0.2927246,-0.8262329,-0.47076416
1602330813459,877,0.2927246,-0.8262329,-0.47076416
1602330813459,878,0.2927246,-0.8262329,-0.47076416
1602330813459,879,0.3400879,-0.84625244,-0.44732666
1602330813459,880,0.3400879,-0.84625244,-0.44732666
1602330813459,881,0.3400879,-0.84625244,-0.44732666
1602330813459,882,0.36816406,-0.9221802,-0.46173096
1602330813459,883,0.36816406,-0.9221802,-0.46173096
1602330813459,884,0.36816406,-0.9221802,-0.46173096
1602330813459,885,0.3544922,-0.9397583,-0.5093384
1602330813459,886,0.3544922,-0.9397583,-0.5093384
1602330813459,887,0.3544922,-0.9397583,-0.5093384
1602330813459,888,0.25610352,-0.80718994,-0.4758911
1602330813459,889,0.25610352,-0.80718994,-0.4758911
1602330813459,890,0.10449219,-0.83843994,-0.46783447
1602330813459,891,0.25610352,-0.80718994,-0.4758911
1602330813459,892,0.10449219,-0.83843994,-0.46783447
1602330813459,893,0.1484375,-0.9602661,-0.47320557
1602330813459,894,0.1484375,-0.9602661,-0.47320557
1602330813459,895,0.10449219,-0.83843994,-0.46783447
1602330813459,896,0.20483398,-0.89019775,-0.4505005
1602330813459,897,0.22705078,-0.8706665,-0.3640747
1602330813459,898,0.20483398,-0.89019775,-0.4505005
1602330813459,899,0.1484375,-0.9602661,-0.47320557
1602330813459,900,0.2565918,-0.89630127,-0.32818604
1602330813459,901,0.22705078,-0.8706665,-0.3640747
1602330813459,902,0.20483398,-0.89019775,-0.4505005
1602330813459,903,0.25,-0.89434814,-0.30548096
1602330813459,904,0.2565918,-0.89630127,-0.32818604
1602330813459,905,0.22705078,-0.8706665,-0.3640747
1602330813459,906,0.20605469,-0.9348755,-0.32598877
1602330813459,907,0.25,-0.89434814,-0.30548096
1602330813459,908,0.2565918,-0.89630127,-0.32818604
1602330813459,909,0.27294922,-1.0366821,-0.26983643
1602330813459,910,0.20605469,-0.9348755,-0.32598877
1602330813459,911,0.25,-0.89434814,-0.30548096
1602330813459,912,0.22216797,-1.0818481,-0.3953247
1602330813459,913,0.27294922,-1.0366821,-0.26983643
1602330813459,914,0.20825195,-0.90093994,-0.4109497
1602330813459,915,0.20605469,-0.9348755,-0.32598877
1602330813459,916,0.20629883,-0.7769165,-0.44732666
1602330813459,917,0.22216797,-1.0818481,-0.3953247
1602330813459,918,0.24560547,-0.8377075,-0.52789307
1602330813459,919,0.27294922,-1.0366821,-0.26983643
1602330813459,920,0.20825195,-0.90093994,-0.4109497
1602330813459,921,0.22998047,-0.8765259,-0.4812622
1602330813459,922,0.22216797,-1.0818481,-0.3953247
1602330813459,923,0.24023438,-0.81085205,-0.4837036
1602330813459,924,0.20629883,-0.7769165,-0.44732666
1602330813459,925,0.26000977,-0.8464966,-0.5095825
1602330813459,926,0.24560547,-0.8377075,-0.52789307
1602330813459,927,0.28027344,-0.84210205,-0.47784424
1602330813459,928,0.22998047,-0.8765259,-0.4812622
1602330813459,929,0.20825195,-0.90093994,-0.4109497
1602330813459,930,0.28027344,-0.82476807,-0.45074463
1602330813459,931,0.24023438,-0.81085205,-0.4837036
1602330813459,932,0.31469727,-0.8381958,-0.45587158
1602330813459,933,0.26000977,-0.8464966,-0.5095825
1602330813459,934,0.36791992,-0.89385986,-0.4356079
1602330813459,935,0.20629883,-0.7769165,-0.44732666
1602330813459,936,0.28027344,-0.84210205,-0.47784424
1602330813459,937,0.35229492,-0.9524536,-0.47833252
1602330813459,938,0.3359375,-0.88531494,-0.46099854
1602330813459,939,0.28027344,-0.82476807,-0.45074463
1602330813459,940,0.24560547,-0.8377075,-0.52789307
1602330813459,941,0.22998047,-0.8765259,-0.4812622
1602330813459,942,0.2199707,-0.81427,-0.4578247
1602330813459,943,0.31469727,-0.8381958,-0.45587158
1602330813459,944,0.14550781,-0.8694458,-0.47027588
1602330813459,945,0.36791992,-0.89385986,-0.4356079
1602330813459,946,0.24023438,-0.81085205,-0.4837036
1602330813459,947,0.35229492,-0.9524536,-0.47833252
1602330813459,948,0.26000977,-0.8464966,-0.5095825
1602330813459,949,0.3359375,-0.88531494,-0.46099854
1602330813459,950,0.28027344,-0.84210205,-0.47784424
1602330813459,951,0.2199707,-0.81427,-0.4578247
1602330813459,952,0.28027344,-0.82476807,-0.45074463
1602330813459,953,0.14550781,-0.8694458,-0.47027588
1602330813459,954,0.31469727,-0.8381958,-0.45587158
1602330813459,955,0.36791992,-0.89385986,-0.4356079
1602330813459,956,0.35229492,-0.9524536,-0.47833252
1602330813459,957,0.3359375,-0.88531494,-0.46099854
1602330813459,958,0.2199707,-0.81427,-0.4578247
1602330813459,959,0.14550781,-0.8694458,-0.47027588
1602330813459,960,0.22094727,-0.9246216,-0.46392822
1602330815979,961,0.22094727,-0.9246216,-0.46392822
1602330815845,962,0.24633789,-0.86505127,-0.43218994
1602330815845,963,0.22094727,-0.9246216,-0.46392822
1602330815845,964,0.24633789,-0.86505127,-0.43218994
1602330815845,965,0.2614746,-0.86676025,-0.38482666
1602330815845,966,0.24633789,-0.86505127,-0.43218994
1602330815845,967,0.2614746,-0.86676025,-0.38482666
1602330815845,968,0.2788086,-0.88897705,-0.36553955
1602330815845,969,0.2614746,-0.86676025,-0.38482666
1602330815845,970,0.27929688,-0.8821411,-0.34283447
1602330815845,971,0.2788086,-0.88897705,-0.36553955
1602330815845,972,0.2788086,-0.88897705,-0.36553955
1602330815845,973,0.25097656,-0.9260864,-0.30718994
1602330815845,974,0.27929688,-0.8821411,-0.34283447
1602330815845,975,0.23339844,-0.97052,-0.3032837
1602330815845,976,0.27929688,-0.8821411,-0.34283447
1602330815845,977,0.25097656,-0.9260864,-0.30718994
1602330815845,978,0.23339844,-0.97052,-0.3032837
1602330815845,979,0.27392578,-1.0422974,-0.26739502
1602330815845,980,0.25097656,-0.9260864,-0.30718994
1602330815845,981,0.24902344,-1.0078735,-0.36993408
1602330815845,982,0.27392578,-1.0422974,-0.26739502
1602330815845,983,0.23339844,-0.97052,-0.3032837
1602330815845,984,0.2277832,-0.9470825,-0.34405518
1602330815845,985,0.27392578,-1.0422974,-0.26739502
1602330815845,986,0.24902344,-1.0078735,-0.36993408
1602330815845,987,0.21948242,-0.82769775,-0.44366455
1602330815845,988,0.2277832,-0.9470825,-0.34405518
1602330815845,989,0.25512695,-0.7793579,-0.4854126
1602330815845,990,0.24902344,-1.0078735,-0.36993408
1602330815845,991,0.21948242,-0.82769775,-0.44366455
1602330815845,992,0.25830078,-0.8862915,-0.5005493
1602330815845,993,0.2277832,-0.9470825,-0.34405518
1602330815846,994,0.24584961,-0.85162354,-0.44122314
1602330815846,995,0.25512695,-0.7793579,-0.4854126
1602330815846,996,0.21948242,-0.82769775,-0.44366455
1602330815846,997,0.25512695,-0.7793579,-0.4854126
1602330815846,998,0.25830078,-0.8862915,-0.5005493
1602330815846,999,0.27539062,-0.8118286,-0.45733643
1602330815846,1000,0.25830078,-0.8862915,-0.5005493
1602330815846,1001,0.24584961,-0.85162354,-0.44122314
1602330815846,1002,0.31445312,-0.87091064,-0.4570923
1602330815846,1003,0.24584961,-0.85162354,-0.44122314
1602330815846,1004,0.27539062,-0.8118286,-0.45733643
1602330815846,1005,0.27539062,-0.8118286,-0.45733643
1602330815846,1006,0.31323242,-0.8533325,-0.44122314
1602330815846,1007,0.31445312,-0.87091064,-0.4570923
1602330815846,1008,0.31445312,-0.87091064,-0.4570923
1602330815846,1009,0.26953125,-0.895813,-0.42877197
1602330815846,1010,0.29248047,-0.9553833,-0.43170166
1602330815846,1011,0.31323242,-0.8533325,-0.44122314
1602330815846,1012,0.31323242,-0.8533325,-0.44122314
1602330815846,1013,0.32714844,-0.8982544,-0.45220947
1602330815846,1014,0.26953125,-0.895813,-0.42877197
1602330815846,1015,0.26953125,-0.895813,-0.42877197
1602330815846,1016,0.26538086,-0.8399048,-0.45977783
1602330815846,1017,0.29248047,-0.9553833,-0.43170166
1602330815846,1018,0.29248047,-0.9553833,-0.43170166
1602330815846,1019,0.17089844,-0.83966064,-0.48883057
1602330815846,1020,0.32714844,-0.8982544,-0.45220947
1602330815846,1021,0.21118164,-0.8452759,-0.48223877
1602330815846,1022,0.32714844,-0.8982544,-0.45220947
1602330815846,1023,0.22949219,-0.90338135,-0.4710083
1602330815846,1024,0.26538086,-0.8399048,-0.45977783
1602330815847,1025,0.28393555,-0.86431885,-0.4758911
1602330815846,1026,0.26538086,-0.8399048,-0.45977783
1602330815847,1027,0.17089844,-0.83966064,-0.48883057
1602330815847,1028,0.27612305,-0.84747314,-0.46661377
1602330815847,1029,0.17089844,-0.83966064,-0.48883057
1602330815847,1030,0.21118164,-0.8452759,-0.48223877
1602330815847,1031,0.21118164,-0.8452759,-0.48223877
1602330815847,1032,0.2619629,-0.8584595,-0.49346924
1602330815847,1033,0.22949219,-0.90338135,-0.4710083
1602330815847,1034,0.20288086,-0.84942627,-0.5132446
1602330815847,1035,0.22949219,-0.90338135,-0.4710083
1602330815847,1036,0.28393555,-0.86431885,-0.4758911
1602330815847,1037,0.28393555,-0.86431885,-0.4758911
1602330815847,1038,0.27612305,-0.84747314,-0.46661377
1602330815847,1039,0.27612305,-0.84747314,-0.46661377
1602330815847,1040,0.2619629,-0.8584595,-0.49346924
1602330815847,1041,0.18725586,-0.86016846,-0.52789307
1602330815847,1042,0.2619629,-0.8584595,-0.49346924
1602330815847,1043,0.21484375,-0.8179321,-0.5852661
1602330815847,1044,0.20288086,-0.84942627,-0.5132446
1602330815847,1045,0.20288086,-0.84942627,-0.5132446
1602330815847,1046,0.18725586,-0.86016846,-0.52789307
1602330815847,1047,0.22363281,-0.74468994,-0.60894775
1602330815847,1048,0.18725586,-0.86016846,-0.52789307
1602330815847,1049,0.21484375,-0.8179321,-0.5852661
1602330815847,1050,0.21484375,-0.8179321,-0.5852661
1602330815847,1051,0.22363281,-0.74468994,-0.60894775
1602330815847,1052,0.2680664,-0.74298096,-0.5911255
1602330815847,1053,0.22363281,-0.74468994,-0.60894775
1602330815847,1054,0.2680664,-0.74298096,-0.5911255
1602330815847,1055,0.2680664,-0.74298096,-0.5911255
1602330815846,1056,0.35229492,-0.8052368,-0.59820557
1602330818366,1057,0.35229492,-0.8052368,-0.59820557
1602330818429,1058,0.35229492,-0.8052368,-0.59820557
1602330818429,1059,0.33251953,-0.7984009,-0.598938
1602330818429,1060,0.33251953,-0.7984009,-0.598938
1602330818429,1061,0.33251953,-0.7984009,-0.598938
1602330818429,1062,0.29785156,-0.7876587,-0.5508423
1602330818429,1063,0.29785156,-0.7876587,-0.5508423
1602330818429,1064,0.29785156,-0.7876587,-0.5508423
1602330818429,1065,0.32202148,-0.7949829,-0.5388794
1602330818429,1066,0.33544922,-0.81573486,-0.51153564
1602330818429,1067,0.32202148,-0.7949829,-0.5388794
1602330818429,1068,0.32202148,-0.7949829,-0.5388794
1602330818429,1069,0.33544922,-0.81573486,-0.51153564
1602330818429,1070,0.33129883,-0.81695557,-0.4800415
1602330818429,1071,0.33544922,-0.81573486,-0.51153564
1602330818429,1072,0.33618164,-0.80718994,-0.45465088
1602330818429,1073,0.33129883,-0.81695557,-0.4800415
1602330818429,1074,0.33129883,-0.81695557,-0.4800415
1602330818429,1075,0.33496094,-0.8965454,-0.48638916
1602330818429,1076,0.33618164,-0.80718994,-0.45465088
1602330818429,1077,0.3256836,-0.8779907,-0.49591064
1602330818429,1078,0.33618164,-0.80718994,-0.45465088
1602330818429,1079,0.33496094,-0.8965454,-0.48638916
1602330818429,1080,0.33496094,-0.8965454,-0.48638916
1602330818429,1081,0.24951172,-0.83477783,-0.4944458
1602330818429,1082,0.3256836,-0.8779907,-0.49591064
1602330818429,1083,0.18261719,-0.87823486,-0.4348755
1602330818429,1084,0.3256836,-0.8779907,-0.49591064
1602330818429,1085,0.24951172,-0.83477783,-0.4944458
1602330818429,1086,0.24951172,-0.83477783,-0.4944458
1602330818429,1087,0.17358398,-0.927063,-0.4446411
1602330818429,1088,0.18261719,-0.87823486,-0.4348755
1602330818429,1089,0.18896484,-0.8994751,-0.4282837
1602330818429,1090,0.18261719,-0.87823486,-0.4348755
1602330818429,1091,0.2211914,-0.9031372,-0.39141846
1602330818429,1092,0.17358398,-0.927063,-0.4446411
1602330818429,1093,0.17358398,-0.927063,-0.4446411
1602330818429,1094,0.18896484,-0.8994751,-0.4282837
1602330818429,1095,0.18896484,-0.8994751,-0.4282837
1602330818429,1096,0.23168945,-0.9024048,-0.4055786
1602330818429,1097,0.2211914,-0.9031372,-0.39141846
1602330818429,1098,0.2211914,-0.9031372,-0.39141846
1602330818429,1099,0.19897461,-0.88482666,-0.39312744
1602330818429,1100,0.23168945,-0.9024048,-0.4055786
1602330818429,1101,0.23168945,-0.9024048,-0.4055786
1602330818429,1102,0.17651367,-0.9043579,-0.3657837
1602330818429,1103,0.19897461,-0.88482666,-0.39312744
1602330818429,1104,0.19897461,-0.88482666,-0.39312744
1602330818429,1105,0.16918945,-0.923645,-0.39361572
1602330818429,1106,0.17651367,-0.9043579,-0.3657837
1602330818429,1107,0.17138672,-0.9446411,-0.40679932
1602330818429,1108,0.22314453,-0.9944458,-0.42755127
1602330818429,1109,0.16918945,-0.923645,-0.39361572
1602330818429,1110,0.17651367,-0.9043579,-0.3657837
1602330818429,1111,0.18261719,-0.97735596,-0.5005493
1602330818429,1112,0.17138672,-0.9446411,-0.40679932
1602330818429,1113,0.16918945,-0.923645,-0.39361572
1602330818429,1114,0.21850586,-0.87677,-0.4649048
1602330818429,1115,0.17138672,-0.9446411,-0.40679932
1602330818429,1116,0.22314453,-0.9944458,-0.42755127
1602330818429,1117,0.21533203,-0.73638916,-0.5569458
1602330818429,1118,0.22314453,-0.9944458,-0.42755127
1602330818429,1119,0.18261719,-0.97735596,-0.5005493
1602330818429,1120,0.18261719,-0.97735596,-0.5005493
1602330818429,1121,0.21850586,-0.87677,-0.4649048
1602330818429,1122,0.21850586,-0.87677,-0.4649048
1602330818429,1123,0.23852539,-0.81500244,-0.5708618
1602330818429,1124,0.21533203,-0.73638916,-0.5569458
1602330818429,1125,0.19946289,-0.8718872,-0.5220337
1602330818429,1126,0.21533203,-0.73638916,-0.5569458
1602330818429,1127,0.21289062,-0.78985596,-0.4915161
1602330818429,1128,0.23852539,-0.81500244,-0.5708618
1602330818429,1129,0.2409668,-0.81036377,-0.4902954
1602330818429,1130,0.23852539,-0.81500244,-0.5708618
1602330818429,1131,0.2836914,-0.83258057,-0.4631958
1602330818429,1132,0.19946289,-0.8718872,-0.5220337
1602330818429,1133,0.19946289,-0.8718872,-0.5220337
1602330818429,1134,0.29638672,-0.8792114,-0.47003174
1602330818429,1135,0.32299805,-0.96588135,-0.53497314
1602330818429,1136,0.21289062,-0.78985596,-0.4915161
1602330818429,1137,0.21289062,-0.78985596,-0.4915161
1602330818429,1138,0.2409668,-0.81036377,-0.4902954
1602330818429,1139,0.2409668,-0.81036377,-0.4902954
1602330818429,1140,0.28881836,-0.90826416,-0.5923462
1602330818429,1141,0.111328125,-0.7732544,-0.5310669
1602330818429,1142,0.2836914,-0.83258057,-0.4631958
1602330818429,1143,0.2836914,-0.83258057,-0.4631958
1602330818429,1144,0.29638672,-0.8792114,-0.47003174
1602330818429,1145,0.32299805,-0.96588135,-0.53497314
1602330818429,1146,0.29638672,-0.8792114,-0.47003174
1602330818429,1147,0.32299805,-0.96588135,-0.53497314
1602330818429,1148,0.28881836,-0.90826416,-0.5923462
1602330818429,1149,0.28881836,-0.90826416,-0.5923462
1602330818429,1150,0.111328125,-0.7732544,-0.5310669
1602330818429,1151,0.111328125,-0.7732544,-0.5310669
1602330818429,1152,0.1628418,-0.8311157,-0.5198364
1602330821011,1153,0.1628418,-0.8311157,-0.5198364
1602330821011,1154,0.19848633,-0.8257446,-0.5466919
1602330821011,1155,0.19848633,-0.8257446,-0.5466919
1602330821011,1156,0.18945312,-0.86968994,-0.5093384
1602330821011,1157,0.1628418,-0.8311157,-0.5198364
1602330821011,1158,0.18945312,-0.86968994,-0.5093384
1602330821011,1159,0.20117188,-0.8726196,-0.45196533
1602330821011,1160,0.19848633,-0.8257446,-0.5466919
1602330821011,1161,0.1796875,-0.8701782,-0.43902588
1602330821011,1162,0.18945312,-0.86968994,-0.5093384
1602330821011,1163,0.20117188,-0.8726196,-0.45196533
1602330821011,1164,0.21557617,-0.8814087,-0.4138794
1602330821011,1165,0.1796875,-0.8701782,-0.43902588
1602330821011,1166,0.20117188,-0.8726196,-0.45196533
1602330821011,1167,0.22094727,-0.92193604,-0.4109497
1602330821011,1168,0.21557617,-0.8814087,-0.4138794
1602330821011,1169,0.1796875,-0.8701782,-0.43902588
1602330821011,1170,0.30078125,-1.0339966,-0.4121704
1602330821011,1171,0.20019531,-1.0142212,-0.4619751
1602330821011,1172,0.22094727,-0.92193604,-0.4109497
1602330821011,1173,0.21557617,-0.8814087,-0.4138794
1602330821011,1174,0.19848633,-0.83917236,-0.38043213
1602330821011,1175,0.30078125,-1.0339966,-0.4121704
1602330821011,1176,0.26171875,-0.73687744,-0.48883057
1602330821011,1177,0.22094727,-0.92193604,-0.4109497
1602330821011,1178,0.20019531,-1.0142212,-0.4619751
1602330821011,1179,0.2783203,-0.87164307,-0.5232544
1602330821011,1180,0.30078125,-1.0339966,-0.4121704
1602330821011,1181,0.19848633,-0.83917236,-0.38043213
1602330821011,1182,0.20019531,-1.0142212,-0.4619751
1602330821011,1183,0.26171875,-0.73687744,-0.48883057
1602330821011,1184,0.22338867,-0.90948486,-0.45098877
1602330821011,1185,0.19848633,-0.83917236,-0.38043213
1602330821012,1186,0.2783203,-0.87164307,-0.5232544
1602330821012,1187,0.22338867,-0.90948486,-0.45098877
1602330821012,1188,0.24560547,-0.82818604,-0.43756104
1602330821012,1189,0.26171875,-0.73687744,-0.48883057
1602330821012,1190,0.24560547,-0.82818604,-0.43756104
1602330821012,1191,0.2746582,-0.8713989,-0.41656494
1602330821012,1192,0.2746582,-0.8713989,-0.41656494
1602330821012,1193,0.2783203,-0.87164307,-0.5232544
1602330821012,1194,0.27612305,-0.864563,-0.38458252
1602330821012,1195,0.27612305,-0.864563,-0.38458252
1602330821012,1196,0.22338867,-0.90948486,-0.45098877
1602330821012,1197,0.2602539,-0.86016846,-0.38946533
1602330821012,1198,0.2602539,-0.86016846,-0.38946533
1602330821012,1199,0.24560547,-0.82818604,-0.43756104
1602330821012,1200,0.3244629,-0.9065552,-0.37506104
1602330821012,1201,0.3244629,-0.9065552,-0.37506104
1602330821012,1202,0.2746582,-0.8713989,-0.41656494
1602330821012,1203,0.27612305,-0.864563,-0.38458252
1602330821012,1204,0.39404297,-0.94195557,-0.347229
1602330821012,1205,0.39404297,-0.94195557,-0.347229
1602330821012,1206,0.3984375,-0.9824829,-0.4331665
1602330821012,1207,0.3984375,-0.9824829,-0.4331665
1602330821012,1208,0.2602539,-0.86016846,-0.38946533
1602330821012,1209,0.2512207,-0.8753052,-0.44488525
1602330821012,1210,0.2512207,-0.8753052,-0.44488525
1602330821012,1211,0.3244629,-0.9065552,-0.37506104
1602330821012,1212,0.17333984,-0.7859497,-0.42559814
1602330821012,1213,0.17333984,-0.7859497,-0.42559814
1602330821012,1214,0.39404297,-0.94195557,-0.347229
1602330821012,1215,0.22583008,-0.94903564,-0.4319458
1602330821012,1216,0.22583008,-0.94903564,-0.4319458
1602330821012,1217,0.3984375,-0.9824829,-0.4331665
1602330821013,1218,0.2980957,-0.86309814,-0.40093994
1602330821013,1219,0.2512207,-0.8753052,-0.44488525
1602330821013,1220,0.26391602,-0.87213135,-0.35357666
1602330821013,1221,0.2980957,-0.86309814,-0.40093994
1602330821013,1222,0.28735352,-0.9060669,-0.3274536
1602330821013,1223,0.17333984,-0.7859497,-0.42559814
1602330821013,1224,0.26831055,-0.8880005,-0.3015747
1602330821013,1225,0.22583008,-0.94903564,-0.4319458
1602330821013,1226,0.26391602,-0.87213135,-0.35357666
1602330821013,1227,0.28735352,-0.9060669,-0.3274536
1602330821013,1228,0.25219727,-0.9133911,-0.3135376
1602330821013,1229,0.26831055,-0.8880005,-0.3015747
1602330821013,1230,0.2980957,-0.86309814,-0.40093994
1602330821013,1231,0.25219727,-0.9133911,-0.3135376
1602330821013,1232,0.26391602,-0.87213135,-0.35357666
1602330821013,1233,0.2697754,-0.9578247,-0.3196411
1602330821013,1234,0.2697754,-0.9578247,-0.3196411
1602330821013,1235,0.28735352,-0.9060669,-0.3274536
1602330821013,1236,0.32910156,-0.9944458,-0.38702393
1602330821013,1237,0.32910156,-0.9944458,-0.38702393
1602330821013,1238,0.23535156,-0.9727173,-0.48223877
1602330821013,1239,0.26831055,-0.8880005,-0.3015747
1602330821013,1240,0.23535156,-0.9727173,-0.48223877
1602330821013,1241,0.25219727,-0.9133911,-0.3135376
1602330821013,1242,0.24414062,-0.82818604,-0.44830322
1602330821013,1243,0.24414062,-0.82818604,-0.44830322
1602330821013,1244,0.2697754,-0.9578247,-0.3196411
1602330821013,1245,0.32910156,-0.9944458,-0.38702393
1602330821013,1246,0.23535156,-0.9727173,-0.48223877
1602330821013,1247,0.24414062,-0.82818604,-0.44830322
