# Sensor position: Front pocket (trouser)
# Sensor side: Left
# Activity type: Movement
# Activity code: 9
# Subject id: s1655560
timestamp,seq,accel_x,accel_y,accel_z
1605202512149,0,0.044921875,0.9528198,-0.14117432
1605202512149,1,-0.22216797,0.9801636,-0.15899658
1605202512149,2,-0.22216797,0.9801636,-0.15899658
1605202512149,3,0.11328125,0.9472046,-0.27496338
1605202512149,4,0.041503906,0.94989014,-0.13775635
1605202512149,5,0.047607422,0.94158936,-0.25787354
1605202512149,6,0.044921875,0.9528198,-0.14117432
1605202512150,7,0.044921875,0.9528198,-0.14117432
1605202512150,8,0.06518555,0.95428467,-0.18463135
1605202512150,9,0.11328125,0.9472046,-0.27496338
1605202512150,10,0.11328125,0.9472046,-0.27496338
1605202512150,11,0.06347656,0.9442749,-0.22296143
1605202512150,12,0.041503906,0.94989014,-0.13775635
1605202512150,13,0.041503906,0.94989014,-0.13775635
1605202512150,14,0.0769043,0.9401245,-0.19561768
1605202512150,15,0.047607422,0.94158936,-0.25787354
1605202512155,16,0.076660156,0.9459839,-0.19464111
1605202512156,17,0.047607422,0.94158936,-0.25787354
1605202512156,18,0.06518555,0.95428467,-0.18463135
1605202512156,19,0.06518555,0.95428467,-0.18463135
1605202512157,20,0.06347656,0.9442749,-0.22296143
1605202512157,21,0.06347656,0.9442749,-0.22296143
1605202512157,22,0.09301758,0.94525146,-0.1951294
1605202512157,23,0.0769043,0.9401245,-0.19561768
1605202512157,24,0.0769043,0.9401245,-0.19561768
1605202512157,25,0.08300781,0.9430542,-0.19537354
1605202512158,26,0.076660156,0.9459839,-0.19464111
1605202512158,27,0.091308594,0.9467163,-0.19366455
1605202512158,28,0.08569336,0.9389038,-0.20074463
1605202512158,29,0.08203125,0.94036865,-0.1975708
1605202512158,30,0.076660156,0.9459839,-0.19464111
1605202512159,31,0.07519531,0.94525146,-0.2053833
1605202512159,32,0.09301758,0.94525146,-0.1951294
1605202512160,33,0.0793457,0.94403076,-0.19342041
1605202512160,34,0.080566406,0.9442749,-0.18756104
1605202512160,35,0.076171875,0.94403076,-0.20391846
1605202512168,36,0.08300781,0.9430542,-0.19537354
1605202512171,37,0.0769043,0.94281006,-0.19683838
1605202512171,38,0.09301758,0.94525146,-0.1951294
1605202512171,39,0.068359375,0.9425659,-0.20489502
1605202512171,40,0.091308594,0.9467163,-0.19366455
1605202512172,41,0.07397461,0.9450073,-0.19805908
1605202512173,42,0.08300781,0.9430542,-0.19537354
1605202512173,43,0.08569336,0.9389038,-0.20074463
1605202512173,44,0.091308594,0.9467163,-0.19366455
1605202512173,45,0.08203125,0.94036865,-0.1975708
1605202512173,46,0.07495117,0.9447632,-0.2053833
1605202512173,47,0.08569336,0.9389038,-0.20074463
1605202512173,48,0.07324219,0.94451904,-0.20318604
1605202512173,49,0.07080078,0.9467163,-0.19659424
1605202512173,50,0.07519531,0.94525146,-0.2053833
1605202512173,51,0.08203125,0.94036865,-0.1975708
1605202512173,52,0.044677734,0.95892334,-0.21368408
1605202512173,53,0.07519531,0.94525146,-0.2053833
1605202512173,54,0.0024414062,0.9664917,-0.18902588
1605202512174,55,0.0793457,0.94403076,-0.19342041
1605202512174,56,0.0793457,0.94403076,-0.19342041
1605202512174,57,0.080566406,0.9442749,-0.18756104
1605202512174,58,0.080566406,0.9442749,-0.18756104
1605202512180,59,0.076171875,0.94403076,-0.20391846
1605202512180,60,0.076171875,0.94403076,-0.20391846
1605202512181,61,0.0769043,0.94281006,-0.19683838
1605202512181,62,0.0769043,0.94281006,-0.19683838
1605202512181,63,0.068359375,0.9425659,-0.20489502
1605202512181,64,0.068359375,0.9425659,-0.20489502
1605202512181,65,0.07397461,0.9450073,-0.19805908
1605202512181,66,0.07397461,0.9450073,-0.19805908
1605202512181,67,0.07495117,0.9447632,-0.2053833
1605202512182,68,0.07324219,0.94451904,-0.20318604
1605202512182,69,0.07495117,0.9447632,-0.2053833
1605202512183,70,0.07324219,0.94451904,-0.20318604
1605202512183,71,0.07080078,0.9467163,-0.19659424
1605202512183,72,0.07080078,0.9467163,-0.19659424
1605202512183,73,0.044677734,0.95892334,-0.21368408
1605202512183,74,0.0024414062,0.9664917,-0.18902588
1605202512186,75,0.044677734,0.95892334,-0.21368408
1605202512186,76,0.0024414062,0.9664917,-0.18902588
1605202514942,77,-0.011230469,0.95843506,-0.13726807
1605202514944,78,-0.011230469,0.95843506,-0.13726807
1605202514944,79,0.021728516,0.9454956,-0.16925049
1605202514944,80,0.021728516,0.9454956,-0.16925049
1605202514944,81,0.016113281,0.9393921,-0.06744385
1605202514944,82,-0.055664062,0.9266968,-0.101623535
1605202514944,83,0.016113281,0.9393921,-0.06744385
1605202514945,84,-0.05883789,1.0270386,-0.16900635
1605202514945,85,-0.055664062,0.9266968,-0.101623535
1605202514945,86,-0.049316406,0.9220581,-0.13140869
1605202514945,87,-0.05883789,1.0270386,-0.16900635
1605202514945,88,0.22558594,0.90740967,-0.3225708
1605202514945,89,0.20605469,0.8956909,-0.20684814
1605202514945,90,0.27026367,0.9640503,-0.1194458
1605202514945,91,0.30737305,0.8529663,-0.27618408
1605202514945,92,0.35668945,0.83758545,-0.22369385
1605202514945,93,0.25708008,0.8578491,-0.15118408
1605202514945,94,-0.011230469,0.95843506,-0.13726807
1605202514945,95,-0.049316406,0.9220581,-0.13140869
1605202514945,96,0.021728516,0.9454956,-0.16925049
1605202514945,97,0.32202148,0.9071655,-0.20269775
1605202514945,98,0.22558594,0.90740967,-0.3225708
1605202514946,99,0.016113281,0.9393921,-0.06744385
1605202514946,100,0.3840332,0.888855,-0.20489502
1605202514946,101,0.30151367,0.902771,-0.24664307
1605202514946,102,-0.055664062,0.9266968,-0.101623535
1605202514946,103,0.3071289,1.0231323,-0.15460205
1605202514946,104,-0.05883789,1.0270386,-0.16900635
1605202514946,105,-0.049316406,0.9220581,-0.13140869
1605202514946,106,0.34643555,1.1203003,-0.17144775
1605202514946,107,0.22558594,0.90740967,-0.3225708
1605202514946,108,-0.07885742,1.0184937,-0.028381348
1605202514946,109,0.20605469,0.8956909,-0.20684814
1605202514946,110,0.20605469,0.8956909,-0.20684814
1605202514946,111,0.34765625,1.2506714,-0.28497314
1605202514946,112,0.17285156,0.8602905,0.028747559
1605202514947,113,-0.055419922,0.61053467,0.04071045
1605202514947,114,0.27026367,0.9640503,-0.1194458
1605202514947,115,-0.25756836,0.5790405,0.14886475
1605202514948,116,0.30737305,0.8529663,-0.27618408
1605202514949,117,-0.16674805,0.7802124,0.17132568
1605202514949,118,0.27026367,0.9640503,-0.1194458
1605202514950,119,-0.19555664,1.366394,0.3751831
1605202515015,120,0.35668945,0.83758545,-0.22369385
1605202515015,121,-0.45117188,1.0402222,0.20843506
1605202515015,122,0.30737305,0.8529663,-0.27618408
1605202515015,123,0.25708008,0.8578491,-0.15118408
1605202515015,124,0.041015625,1.0646362,0.12322998
1605202515016,125,0.3918457,0.6312866,-0.3423462
1605202515016,126,0.35668945,0.83758545,-0.22369385
1605202515016,127,0.19628906,1.00531,-0.020080566
1605202515016,128,0.32202148,0.9071655,-0.20269775
1605202515016,129,-0.0063476562,0.8619995,-0.35943604
1605202515016,130,0.39697266,0.8097534,-0.2637329
1605202515016,131,0.14355469,0.8395386,-0.20733643
1605202515017,132,0.25708008,0.8578491,-0.15118408
1605202515017,133,0.26391602,0.9266968,-0.1885376
1605202515017,134,0.32202148,0.9071655,-0.20269775
1605202515017,135,0.3840332,0.888855,-0.20489502
1605202515017,136,0.30151367,0.902771,-0.24664307
1605202515017,137,0.3840332,0.888855,-0.20489502
1605202515017,138,0.3071289,1.0231323,-0.15460205
1605202515017,139,0.34643555,1.1203003,-0.17144775
1605202515017,140,0.30151367,0.902771,-0.24664307
1605202515017,141,-0.07885742,1.0184937,-0.028381348
1605202515018,142,0.3071289,1.0231323,-0.15460205
1605202515018,143,0.34765625,1.2506714,-0.28497314
1605202515018,144,0.34643555,1.1203003,-0.17144775
1605202515018,145,0.17285156,0.8602905,0.028747559
1605202515018,146,-0.07885742,1.0184937,-0.028381348
1605202515018,147,-0.055419922,0.61053467,0.04071045
1605202515018,148,-0.25756836,0.5790405,0.14886475
1605202515018,149,0.34765625,1.2506714,-0.28497314
1605202515018,150,0.17285156,0.8602905,0.028747559
1605202515018,151,-0.16674805,0.7802124,0.17132568
1605202515018,152,-0.055419922,0.61053467,0.04071045
1605202515018,153,-0.19555664,1.366394,0.3751831
1605202515018,154,-0.45117188,1.0402222,0.20843506
1605202515019,155,-0.25756836,0.5790405,0.14886475
1605202515019,156,0.041015625,1.0646362,0.12322998
1605202515019,157,-0.16674805,0.7802124,0.17132568
1605202515019,158,0.3918457,0.6312866,-0.3423462
1605202515019,159,-0.19555664,1.366394,0.3751831
1605202515019,160,0.19628906,1.00531,-0.020080566
1605202515019,161,-0.45117188,1.0402222,0.20843506
1605202515019,162,-0.0063476562,0.8619995,-0.35943604
1605202515019,163,0.39697266,0.8097534,-0.2637329
1605202515019,164,0.041015625,1.0646362,0.12322998
1605202515019,165,0.14355469,0.8395386,-0.20733643
1605202515019,166,0.3918457,0.6312866,-0.3423462
1605202515019,167,0.26391602,0.9266968,-0.1885376
1605202515019,168,0.19628906,1.00531,-0.020080566
1605202515019,169,-0.0063476562,0.8619995,-0.35943604
1605202515020,170,0.39697266,0.8097534,-0.2637329
1605202515020,171,0.14355469,0.8395386,-0.20733643
1605202515020,172,0.26391602,0.9266968,-0.1885376
1605202517308,173,0.36547852,1.0800171,-0.13116455
1605202517308,174,0.36547852,1.0800171,-0.13116455
1605202517308,175,0.064697266,1.215271,-0.18707275
1605202517312,176,0.36547852,1.0800171,-0.13116455
1605202517313,177,-0.28125,1.2531128,-0.51153564
1605202517313,178,0.064697266,1.215271,-0.18707275
1605202517313,179,0.064697266,1.215271,-0.18707275
1605202517313,180,0.03491211,1.1408081,-0.36090088
1605202517313,181,-0.28125,1.2531128,-0.51153564
1605202517313,182,-0.28125,1.2531128,-0.51153564
1605202517313,183,0.03491211,1.1408081,-0.36090088
1605202517313,184,-0.13745117,0.7699585,-0.057434082
1605202517313,185,0.03491211,1.1408081,-0.36090088
1605202517313,186,-0.13745117,0.7699585,-0.057434082
1605202517313,187,-0.12719727,0.5248413,0.01361084
1605202517314,188,-0.12719727,0.5248413,0.01361084
1605202517314,189,-0.13745117,0.7699585,-0.057434082
1605202517321,190,-0.13696289,0.6154175,0.30633545
1605202517321,191,-0.13696289,0.6154175,0.30633545
1605202517321,192,-0.12719727,0.5248413,0.01361084
1605202517321,193,-0.5463867,1.0958862,0.6190796
1605202517321,194,-0.5463867,1.0958862,0.6190796
1605202517321,195,0.040283203,0.87664795,0.22601318
1605202517321,196,-0.13696289,0.6154175,0.30633545
1605202517322,197,-0.17529297,1.3002319,-0.16314697
1605202517323,198,-0.32543945,0.63739014,0.10003662
1605202517323,199,0.671875,1.2662964,-0.42364502
1605202517326,200,0.040283203,0.87664795,0.22601318
1605202517326,201,-0.5463867,1.0958862,0.6190796
1605202517326,202,-0.17529297,1.3002319,-0.16314697
1605202517326,203,0.040283203,0.87664795,0.22601318
1605202517326,204,-0.036865234,0.77020264,0.011413574
1605202517326,205,-0.17529297,1.3002319,-0.16314697
1605202517326,206,0.4609375,0.92474365,-0.3418579
1605202517327,207,-0.32543945,0.63739014,0.10003662
1605202517337,208,0.3269043,0.8053589,-0.12994385
1605202517337,209,0.671875,1.2662964,-0.42364502
1605202517337,210,0.2614746,0.807312,-0.20733643
1605202517337,211,-0.32543945,0.63739014,0.10003662
1605202517337,212,-0.036865234,0.77020264,0.011413574
1605202517344,213,0.26123047,0.8954468,-0.22515869
1605202517345,214,0.671875,1.2662964,-0.42364502
1605202517345,215,0.4609375,0.92474365,-0.3418579
1605202517345,216,0.09106445,1.0888062,-0.070617676
1605202517347,217,-0.036865234,0.77020264,0.011413574
1605202517348,218,0.3269043,0.8053589,-0.12994385
1605202517348,219,0.44604492,1.2262573,-0.27374268
1605202517348,220,0.4609375,0.92474365,-0.3418579
1605202517352,221,0.3269043,0.8053589,-0.12994385
1605202517353,222,-0.15478516,1.1854858,-0.0869751
1605202517353,223,0.2614746,0.807312,-0.20733643
1605202517353,224,0.50878906,1.2472534,-0.15093994
1605202517353,225,0.26123047,0.8954468,-0.22515869
1605202517353,226,0.008544922,0.758728,0.14398193
1605202517353,227,0.2614746,0.807312,-0.20733643
1605202517353,228,0.09106445,1.0888062,-0.070617676
1605202517353,229,-0.13769531,0.5175171,0.11932373
1605202517353,230,0.26123047,0.8954468,-0.22515869
1605202517353,231,0.44604492,1.2262573,-0.27374268
1605202517353,232,-0.12231445,0.47454834,0.19012451
1605202517353,233,0.09106445,1.0888062,-0.070617676
1605202517353,234,-0.15478516,1.1854858,-0.0869751
1605202517353,235,-0.107666016,0.8954468,0.39471436
1605202517354,236,0.44604492,1.2262573,-0.27374268
1605202517354,237,0.50878906,1.2472534,-0.15093994
1605202517354,238,-0.5727539,1.2211304,0.5910034
1605202517354,239,-0.15478516,1.1854858,-0.0869751
1605202517354,240,0.008544922,0.758728,0.14398193
1605202517354,241,-0.28076172,1.3527222,0.3829956
1605202517354,242,-0.13769531,0.5175171,0.11932373
1605202517354,243,0.50878906,1.2472534,-0.15093994
1605202517355,244,0.008544922,0.758728,0.14398193
1605202517355,245,-0.13769531,0.5175171,0.11932373
1605202517355,246,-0.12231445,0.47454834,0.19012451
1605202517356,247,0.12524414,0.44451904,-0.15167236
1605202517356,248,-0.12231445,0.47454834,0.19012451
1605202517356,249,-0.107666016,0.8954468,0.39471436
1605202517360,250,-0.5727539,1.2211304,0.5910034
1605202517360,251,-0.107666016,0.8954468,0.39471436
1605202517360,252,0.3100586,1.2694702,-0.035949707
1605202517360,253,-0.5727539,1.2211304,0.5910034
1605202517360,254,-0.06274414,0.7133179,-0.06890869
1605202517360,255,-0.28076172,1.3527222,0.3829956
1605202517360,256,0.25683594,0.9022827,-0.20098877
1605202517360,257,0.12524414,0.44451904,-0.15167236
1605202517361,258,0.15454102,0.8954468,-0.19293213
1605202517361,259,-0.28076172,1.3527222,0.3829956
1605202517361,260,0.3100586,1.2694702,-0.035949707
1605202517361,261,0.12524414,0.44451904,-0.15167236
1605202517361,262,-0.06274414,0.7133179,-0.06890869
1605202517361,263,0.3100586,1.2694702,-0.035949707
1605202517361,264,0.25683594,0.9022827,-0.20098877
1605202517361,265,-0.06274414,0.7133179,-0.06890869
1605202517363,266,0.25683594,0.9022827,-0.20098877
1605202517364,267,0.15454102,0.8954468,-0.19293213
1605202517364,268,0.15454102,0.8954468,-0.19293213
1605202519893,269,0.08129883,0.8759155,-0.21392822
1605202519893,270,0.08129883,0.8759155,-0.21392822
1605202519895,271,0.37402344,1.0089722,-0.15777588
1605202519895,272,0.37402344,1.0089722,-0.15777588
1605202519895,273,0.08129883,0.8759155,-0.21392822
1605202519899,274,0.1730957,1.2982788,-0.059143066
1605202519900,275,0.1730957,1.2982788,-0.059143066
1605202519900,276,0.37402344,1.0089722,-0.15777588
1605202519900,277,-0.21606445,1.1078491,-0.25909424
1605202519902,278,0.1730957,1.2982788,-0.059143066
1605202519902,279,-0.21606445,1.1078491,-0.25909424
1605202519902,280,-0.087402344,1.3270874,-0.13726807
1605202519902,281,-0.21606445,1.1078491,-0.25909424
1605202519904,282,-0.087402344,1.3270874,-0.13726807
1605202519904,283,0.11645508,0.73773193,0.028259277
1605202519905,284,-0.087402344,1.3270874,-0.13726807
1605202519905,285,-0.20483398,0.5541382,0.066589355
1605202519905,286,0.11645508,0.73773193,0.028259277
1605202519905,287,0.11645508,0.73773193,0.028259277
1605202519906,288,-0.20483398,0.5541382,0.066589355
1605202519906,289,-0.24536133,0.5890503,0.20965576
1605202519906,290,-0.20483398,0.5541382,0.066589355
1605202519907,291,-0.26831055,0.9413452,0.526062
1605202519907,292,-0.24536133,0.5890503,0.20965576
1605202519908,293,-0.24536133,0.5890503,0.20965576
1605202519908,294,-0.12084961,0.99823,0.0692749
1605202519908,295,-0.26831055,0.9413452,0.526062
1605202519909,296,-0.265625,1.2496948,-0.15948486
1605202519909,297,-0.26831055,0.9413452,0.526062
1605202519910,298,-0.12084961,0.99823,0.0692749
1605202519910,299,0.09301758,0.8253784,-0.028869629
1605202519911,300,-0.265625,1.2496948,-0.15948486
1605202519911,301,0.2763672,1.0978394,-0.16973877
1605202519912,302,-0.12084961,0.99823,0.0692749
1605202519912,303,0.09301758,0.8253784,-0.028869629
1605202519913,304,-0.24658203,0.9606323,0.15228271
1605202519913,305,-0.265625,1.2496948,-0.15948486
1605202519913,306,-0.072753906,0.9821167,-0.10845947
1605202519914,307,0.09301758,0.8253784,-0.028869629
1605202519915,308,0.061767578,0.96307373,-0.07550049
1605202519915,309,0.2763672,1.0978394,-0.16973877
1605202519917,310,-0.24658203,0.9606323,0.15228271
1605202519917,311,-0.072753906,0.9821167,-0.10845947
1605202519918,312,0.2763672,1.0978394,-0.16973877
1605202519919,313,0.061767578,0.96307373,-0.07550049
1605202519919,314,-0.24658203,0.9606323,0.15228271
1605202519920,315,-0.013671875,1.026062,-0.05206299
1605202519920,316,-0.013671875,1.026062,-0.05206299
1605202519921,317,-0.072753906,0.9821167,-0.10845947
1605202519921,318,0.045166016,0.9845581,-0.24884033
1605202519922,319,0.061767578,0.96307373,-0.07550049
1605202519922,320,0.02319336,1.1188354,0.038513184
1605202519923,321,0.045166016,0.9845581,-0.24884033
1605202519923,322,-0.4453125,0.8788452,0.2687378
1605202519924,323,0.02319336,1.1188354,0.038513184
1605202519924,324,-0.1328125,0.789978,0.30682373
1605202519925,325,-0.4453125,0.8788452,0.2687378
1605202519926,326,-0.1328125,0.789978,0.30682373
1605202519926,327,-0.013671875,1.026062,-0.05206299
1605202519927,328,-0.057128906,0.6859741,0.010437012
1605202519929,329,-0.057128906,0.6859741,0.010437012
1605202519929,330,-0.24902344,0.9525757,0.16375732
1605202519929,331,0.045166016,0.9845581,-0.24884033
1605202519929,332,-0.32250977,0.9237671,0.109069824
1605202519929,333,0.02319336,1.1188354,0.038513184
1605202519929,334,-0.24902344,0.9525757,0.16375732
1605202519930,335,-0.16992188,0.95770264,-0.06793213
1605202519930,336,-0.32250977,0.9237671,0.109069824
1605202519930,337,-0.4453125,0.8788452,0.2687378
1605202519931,338,-0.16992188,0.95770264,-0.06793213
1605202519931,339,-0.2565918,1.2855835,0.08270264
1605202519932,340,-0.1328125,0.789978,0.30682373
1605202519932,341,0.018310547,0.74017334,0.11541748
1605202519933,342,-0.2565918,1.2855835,0.08270264
1605202519933,343,-0.057128906,0.6859741,0.010437012
1605202519934,344,0.37280273,1.1036987,-0.23370361
1605202519934,345,0.018310547,0.74017334,0.11541748
1605202519935,346,0.12231445,0.85809326,-0.18560791
1605202519935,347,-0.24902344,0.9525757,0.16375732
1605202519935,348,0.14086914,0.89105225,-0.11065674
1605202519936,349,0.37280273,1.1036987,-0.23370361
1605202519936,350,0.21899414,0.9249878,-0.19537354
1605202519936,351,-0.32250977,0.9237671,0.109069824
1605202519937,352,0.12231445,0.85809326,-0.18560791
1605202519937,353,-0.16992188,0.95770264,-0.06793213
1605202519938,354,0.13012695,0.85150146,-0.15216064
1605202519938,355,0.14086914,0.89105225,-0.11065674
1605202519939,356,0.21899414,0.9249878,-0.19537354
1605202519939,357,-0.2565918,1.2855835,0.08270264
1605202519940,358,0.13012695,0.85150146,-0.15216064
1605202519940,359,0.018310547,0.74017334,0.11541748
1605202519941,360,0.37280273,1.1036987,-0.23370361
1605202519942,361,0.12231445,0.85809326,-0.18560791
1605202519943,362,0.14086914,0.89105225,-0.11065674
1605202519943,363,0.21899414,0.9249878,-0.19537354
1605202519944,364,0.13012695,0.85150146,-0.15216064
1605202522475,365,0.22802734,0.92059326,-0.20367432
1605202522475,366,0.22802734,0.92059326,-0.20367432
1605202522476,367,0.106933594,1.0946655,-0.20050049
1605202522476,368,0.106933594,1.0946655,-0.20050049
1605202522476,369,0.27978516,1.1757202,0.034606934
1605202522478,370,0.22802734,0.92059326,-0.20367432
1605202522478,371,0.27978516,1.1757202,0.034606934
1605202522479,372,0.8249512,1.3991089,0.19036865
1605202522479,373,0.8249512,1.3991089,0.19036865
1605202522479,374,0.106933594,1.0946655,-0.20050049
1605202522481,375,0.27978516,1.1757202,0.034606934
1605202522481,376,0.3659668,0.97869873,0.06317139
1605202522481,377,0.3659668,0.97869873,0.06317139
1605202522482,378,0.13916016,0.8197632,0.061462402
1605202522482,379,0.8249512,1.3991089,0.19036865
1605202522483,380,0.13916016,0.8197632,0.061462402
1605202522483,381,0.092041016,0.67889404,-0.01373291
1605202522483,382,0.3659668,0.97869873,0.06317139
1605202522484,383,0.092041016,0.67889404,-0.01373291
1605202522484,384,0.22973633,0.66693115,0.061950684
1605202522484,385,0.13916016,0.8197632,0.061462402
1605202522485,386,0.22973633,0.66693115,0.061950684
1605202522485,387,-0.26245117,1.1852417,-0.24932861
1605202522488,388,0.092041016,0.67889404,-0.01373291
1605202522489,389,-0.26245117,1.1852417,-0.24932861
1605202522489,390,-0.20019531,1.0216675,-0.09967041
1605202522489,391,-0.20019531,1.0216675,-0.09967041
1605202522489,392,0.8330078,1.0109253,-0.14801025
1605202522489,393,0.22973633,0.66693115,0.061950684
1605202522489,394,0.8330078,1.0109253,-0.14801025
1605202522489,395,-0.25317383,1.0372925,-0.09918213
1605202522489,396,-0.26245117,1.1852417,-0.24932861
1605202522489,397,-0.25317383,1.0372925,-0.09918213
1605202522489,398,-0.20019531,1.0216675,-0.09967041
1605202522489,399,0.0043945312,0.91326904,-0.0064086914
1605202522490,400,0.8330078,1.0109253,-0.14801025
1605202522490,401,0.23291016,0.9425659,-0.07989502
1605202522490,402,-0.25317383,1.0372925,-0.09918213
1605202522490,403,0.2133789,0.86932373,-0.08917236
1605202522490,404,0.0043945312,0.91326904,-0.0064086914
1605202522495,405,0.23291016,0.9425659,-0.07989502
1605202522495,406,0.0043945312,0.91326904,-0.0064086914
1605202522495,407,0.09692383,0.9555054,0.018005371
1605202522495,408,0.23291016,0.9425659,-0.07989502
1605202522495,409,0.2133789,0.86932373,-0.08917236
1605202522495,410,0.21118164,1.3041382,-0.042297363
1605202522495,411,0.2133789,0.86932373,-0.08917236
1605202522495,412,0.09692383,0.9555054,0.018005371
1605202522495,413,0.0056152344,1.1105347,0.16473389
1605202522495,414,0.09692383,0.9555054,0.018005371
1605202522495,415,0.21118164,1.3041382,-0.042297363
1605202522496,416,0.21118164,1.3041382,-0.042297363
1605202522496,417,0.0056152344,1.1105347,0.16473389
1605202522496,418,0.0056152344,1.1105347,0.16473389
1605202522496,419,0.16064453,1.3309937,-0.3652954
1605202522496,420,0.16064453,1.3309937,-0.3652954
1605202522496,421,0.08203125,0.9545288,-0.025939941
1605202522496,422,0.08203125,0.9545288,-0.025939941
1605202522496,423,-0.0769043,0.48773193,-0.039611816
1605202522497,424,-0.0769043,0.48773193,-0.039611816
1605202522498,425,-0.2915039,0.4310913,0.24603271
1605202522498,426,0.16064453,1.3309937,-0.3652954
1605202522498,427,-0.2915039,0.4310913,0.24603271
1605202522498,428,-0.39892578,1.1234741,0.3222046
1605202522498,429,-0.39892578,1.1234741,0.3222046
1605202522498,430,0.0063476562,1.204773,0.31097412
1605202522498,431,0.08203125,0.9545288,-0.025939941
1605202522499,432,0.0063476562,1.204773,0.31097412
1605202522499,433,-0.19848633,0.8414917,-0.38702393
1605202522499,434,-0.0769043,0.48773193,-0.039611816
1605202522499,435,-0.19848633,0.8414917,-0.38702393
1605202522500,436,-0.2915039,0.4310913,0.24603271
1605202522501,437,0.22583008,1.116394,0.17474365
1605202522501,438,0.22583008,1.116394,0.17474365
1605202522502,439,-0.39892578,1.1234741,0.3222046
1605202522502,440,0.1977539,1.0490112,-0.08282471
1605202522502,441,0.1977539,1.0490112,-0.08282471
1605202522503,442,0.0063476562,1.204773,0.31097412
1605202522503,443,-0.061035156,0.84246826,-0.034240723
1605202522504,444,-0.061035156,0.84246826,-0.034240723
1605202522504,445,-0.19848633,0.8414917,-0.38702393
1605202522505,446,-0.033935547,1.0153198,0.027770996
1605202522505,447,-0.033935547,1.0153198,0.027770996
1605202522506,448,0.22583008,1.116394,0.17474365
1605202522507,449,0.19213867,0.97869873,-0.101135254
1605202522507,450,0.19213867,0.97869873,-0.101135254
1605202522507,451,0.1977539,1.0490112,-0.08282471
1605202522507,452,0.099609375,0.92767334,-0.06011963
1605202522507,453,0.099609375,0.92767334,-0.06011963
1605202522508,454,-0.061035156,0.84246826,-0.034240723
1605202522508,455,-0.107177734,1.2338257,-0.058654785
1605202522508,456,-0.107177734,1.2338257,-0.058654785
1605202522509,457,-0.033935547,1.0153198,0.027770996
1605202522510,458,0.19213867,0.97869873,-0.101135254
1605202522510,459,0.099609375,0.92767334,-0.06011963
1605202522511,460,-0.107177734,1.2338257,-0.058654785
1605202525059,461,-0.2614746,0.8451538,0.3295288
1605202525060,462,-0.2614746,0.8451538,0.3295288
1605202525060,463,-0.2614746,0.8451538,0.3295288
1605202525060,464,-0.41601562,0.8305054,0.3612671
1605202525061,465,-0.41601562,0.8305054,0.3612671
1605202525061,466,-0.41601562,0.8305054,0.3612671
1605202525067,467,-0.107666016,0.5631714,0.113464355
1605202525067,468,-0.107666016,0.5631714,0.113464355
1605202525068,469,-0.107666016,0.5631714,0.113464355
1605202525068,470,-0.31225586,0.80023193,0.12200928
1605202525068,471,-0.31225586,0.80023193,0.12200928
1605202525075,472,-0.39453125,1.0756226,-0.0037231445
1605202525075,473,-0.39453125,1.0756226,-0.0037231445
1605202525075,474,-0.31225586,0.80023193,0.12200928
1605202525075,475,-0.35546875,0.9689331,0.039245605
1605202525075,476,-0.35546875,0.9689331,0.039245605
1605202525075,477,-0.39453125,1.0756226,-0.0037231445
1605202525094,478,-0.3557129,1.0099487,0.08880615
1605202525095,479,-0.3557129,1.0099487,0.08880615
1605202525095,480,-0.35546875,0.9689331,0.039245605
1605202525095,481,0.04321289,0.9430542,0.24554443
1605202525095,482,0.04321289,0.9430542,0.24554443
1605202525095,483,-0.3557129,1.0099487,0.08880615
1605202525095,484,0.16040039,1.0707397,-0.061828613
1605202525095,485,0.04321289,0.9430542,0.24554443
1605202525095,486,0.16040039,1.0707397,-0.061828613
1605202525095,487,0.19506836,0.93548584,-0.08404541
1605202525095,488,0.16040039,1.0707397,-0.061828613
1605202525095,489,0.19506836,0.93548584,-0.08404541
1605202525095,490,0.21044922,0.81073,-0.2732544
1605202525095,491,0.19506836,0.93548584,-0.08404541
1605202525095,492,0.21044922,0.81073,-0.2732544
1605202525095,493,0.17675781,0.949646,-0.093811035
1605202525096,494,0.21044922,0.81073,-0.2732544
1605202525096,495,0.17675781,0.949646,-0.093811035
1605202525096,496,0.15405273,0.8764038,-0.20733643
1605202525096,497,0.17675781,0.949646,-0.093811035
1605202525096,498,0.15405273,0.8764038,-0.20733643
1605202525096,499,0.20776367,0.92303467,-0.13458252
1605202525096,500,0.22290039,1.0265503,-0.066467285
1605202525096,501,0.15405273,0.8764038,-0.20733643
1605202525096,502,0.24291992,1.1976929,-0.06524658
1605202525096,503,0.28442383,1.2406616,0.06951904
1605202525096,504,0.20776367,0.92303467,-0.13458252
1605202525096,505,0.4868164,1.1415405,-0.2859497
1605202525096,506,0.20776367,0.92303467,-0.13458252
1605202525096,507,0.22290039,1.0265503,-0.066467285
1605202525096,508,0.22290039,1.0265503,-0.066467285
1605202525096,509,0.14941406,0.87420654,0.02557373
1605202525099,510,0.24291992,1.1976929,-0.06524658
1605202525100,511,0.24291992,1.1976929,-0.06524658
1605202525100,512,0.03515625,0.59661865,-0.030090332
1605202525100,513,0.28442383,1.2406616,0.06951904
1605202525100,514,0.4868164,1.1415405,-0.2859497
1605202525100,515,0.28442383,1.2406616,0.06951904
1605202525100,516,0.1809082,0.5973511,0.047058105
1605202525101,517,0.4868164,1.1415405,-0.2859497
1605202525102,518,-0.2685547,1.1847534,-0.35992432
1605202525102,519,0.14941406,0.87420654,0.02557373
1605202525102,520,0.14941406,0.87420654,0.02557373
1605202525109,521,0.03515625,0.59661865,-0.030090332
1605202525109,522,-0.01586914,1.1178589,-0.39141846
1605202525109,523,0.03515625,0.59661865,-0.030090332
1605202525110,524,0.6530762,0.9447632,-0.039367676
1605202525110,525,0.1809082,0.5973511,0.047058105
1605202525110,526,0.1809082,0.5973511,0.047058105
1605202525110,527,-0.2685547,1.1847534,-0.35992432
1605202525115,528,-0.2685547,1.1847534,-0.35992432
1605202525115,529,-0.014404297,1.0287476,-0.14923096
1605202525115,530,-0.01586914,1.1178589,-0.39141846
1605202525115,531,-0.01586914,1.1178589,-0.39141846
1605202525115,532,0.10546875,0.85931396,-0.31329346
1605202525115,533,0.6530762,0.9447632,-0.039367676
1605202525115,534,-0.014404297,1.0287476,-0.14923096
1605202525115,535,0.10839844,0.9633179,-0.21588135
1605202525124,536,0.6530762,0.9447632,-0.039367676
1605202525124,537,0.10546875,0.85931396,-0.31329346
1605202525124,538,0.05834961,0.9459839,-0.030822754
1605202525125,539,-0.014404297,1.0287476,-0.14923096
1605202525125,540,0.10839844,0.9633179,-0.21588135
1605202525125,541,0.12915039,0.8944702,-0.21026611
1605202525125,542,0.10546875,0.85931396,-0.31329346
1605202525125,543,0.18554688,0.90789795,-0.024719238
1605202525126,544,0.10839844,0.9633179,-0.21588135
1605202525126,545,0.35253906,1.0048218,-0.09039307
1605202525126,546,0.05834961,0.9459839,-0.030822754
1605202525126,547,0.05834961,0.9459839,-0.030822754
1605202525126,548,-0.033447266,1.0863647,-0.108947754
1605202525126,549,0.12915039,0.8944702,-0.21026611
1605202525126,550,0.12915039,0.8944702,-0.21026611
1605202525126,551,0.18554688,0.90789795,-0.024719238
1605202525126,552,0.18554688,0.90789795,-0.024719238
1605202525135,553,0.35253906,1.0048218,-0.09039307
1605202525135,554,0.35253906,1.0048218,-0.09039307
1605202525135,555,-0.033447266,1.0863647,-0.108947754
1605202525135,556,-0.033447266,1.0863647,-0.108947754
1605202527642,557,-0.0390625,1.1283569,-0.14385986
1605202527642,558,-0.0390625,1.1283569,-0.14385986
1605202527643,559,-0.0390625,1.1283569,-0.14385986
1605202527643,560,0.084228516,0.98773193,-0.08111572
1605202527643,561,0.084228516,0.98773193,-0.08111572
1605202527643,562,0.009033203,0.96209717,-0.16900635
1605202527644,563,0.009033203,0.96209717,-0.16900635
1605202527644,564,0.084228516,0.98773193,-0.08111572
1605202527644,565,0.18481445,1.0128784,-0.1560669
1605202527645,566,0.18481445,1.0128784,-0.1560669
1605202527645,567,0.009033203,0.96209717,-0.16900635
1605202527645,568,-0.12133789,0.83099365,-0.028625488
1605202527650,569,-0.12133789,0.83099365,-0.028625488
1605202527650,570,0.18481445,1.0128784,-0.1560669
1605202527650,571,-0.3215332,0.7494507,0.07318115
1605202527650,572,-0.3215332,0.7494507,0.07318115
1605202527650,573,-0.12133789,0.83099365,-0.028625488
1605202527650,574,-0.3215332,0.7494507,0.07318115
1605202527651,575,-0.25390625,0.8119507,0.19525146
1605202527651,576,-0.25390625,0.8119507,0.19525146
1605202527651,577,-0.25390625,0.8119507,0.19525146
1605202527651,578,-0.19506836,0.8497925,0.15228271
1605202527652,579,-0.19506836,0.8497925,0.15228271
1605202527653,580,-0.19506836,0.8497925,0.15228271
1605202527653,581,-0.3701172,0.8798218,0.19720459
1605202527653,582,-0.3701172,0.8798218,0.19720459
1605202527658,583,-0.3701172,0.8798218,0.19720459
1605202527658,584,-0.47729492,1.196228,0.15618896
1605202527658,585,-0.47729492,1.196228,0.15618896
1605202527659,586,-0.47729492,1.196228,0.15618896
1605202527659,587,-0.032470703,1.0370483,-0.074279785
1605202527659,588,-0.032470703,1.0370483,-0.074279785
1605202527659,589,-0.032470703,1.0370483,-0.074279785
1605202527659,590,0.21875,0.93255615,0.007751465
1605202527659,591,0.21875,0.93255615,0.007751465
1605202527659,592,0.049316406,1.0414429,0.066101074
1605202527659,593,0.21875,0.93255615,0.007751465
1605202527659,594,0.049316406,1.0414429,0.066101074
1605202527659,595,0.4909668,0.7897339,-0.26104736
1605202527659,596,0.049316406,1.0414429,0.066101074
1605202527659,597,0.4909668,0.7897339,-0.26104736
1605202527659,598,0.41845703,0.8253784,-0.06817627
1605202527659,599,0.41845703,0.8253784,-0.06817627
1605202527659,600,0.4909668,0.7897339,-0.26104736
1605202527660,601,0.3828125,0.81585693,-0.082092285
1605202527665,602,0.3828125,0.81585693,-0.082092285
1605202527665,603,0.41845703,0.8253784,-0.06817627
1605202527665,604,-0.040283203,0.9225464,0.011413574
1605202527665,605,-0.040283203,0.9225464,0.011413574
1605202527665,606,0.034179688,1.4552612,0.009460449
1605202527665,607,0.034179688,1.4552612,0.009460449
1605202527665,608,0.4428711,0.6449585,-0.053527832
1605202527665,609,0.4428711,0.6449585,-0.053527832
1605202527665,610,-0.2602539,0.4804077,0.7536011
1605202527665,611,-0.2602539,0.4804077,0.7536011
1605202527666,612,-0.45776367,0.947937,0.6522827
1605202527666,613,-0.45776367,0.947937,0.6522827
1605202527666,614,-0.19091797,0.4413452,0.4923706
1605202527666,615,-0.19091797,0.4413452,0.4923706
1605202527666,616,-0.6789551,0.4887085,0.5717163
1605202527668,617,0.3828125,0.81585693,-0.082092285
1605202527668,618,-0.6789551,0.4887085,0.5717163
1605202527668,619,-0.5109863,0.5922241,0.4310913
1605202527668,620,-0.040283203,0.9225464,0.011413574
1605202527668,621,-0.5109863,0.5922241,0.4310913
1605202527668,622,0.034179688,1.4552612,0.009460449
1605202527668,623,-0.6064453,0.31170654,0.56536865
1605202527669,624,-0.6064453,0.31170654,0.56536865
1605202527669,625,0.4428711,0.6449585,-0.053527832
1605202527669,626,-0.7714844,0.23553467,0.666687
1605202527669,627,-0.7714844,0.23553467,0.666687
1605202527670,628,-0.81396484,0.16326904,0.81073
1605202527670,629,-0.81396484,0.16326904,0.81073
1605202527671,630,-0.2602539,0.4804077,0.7536011
1605202527671,631,-1.0437012,0.07489014,0.93011475
1605202527672,632,-1.0437012,0.07489014,0.93011475
1605202527672,633,-0.45776367,0.947937,0.6522827
1605202527672,634,-0.6665039,-0.028869629,0.7164917
1605202527672,635,-0.19091797,0.4413452,0.4923706
1605202527672,636,-0.46362305,-0.25616455,0.77386475
1605202527672,637,-0.6665039,-0.028869629,0.7164917
1605202527673,638,-0.53027344,0.13812256,1.0009155
1605202527673,639,-0.6789551,0.4887085,0.5717163
1605202527673,640,-0.46362305,-0.25616455,0.77386475
1605202527674,641,-0.6533203,0.1005249,0.9645386
1605202527674,642,-0.5109863,0.5922241,0.4310913
1605202527674,643,-0.53027344,0.13812256,1.0009155
1605202527675,644,-0.6064453,0.31170654,0.56536865
1605202527675,645,-0.6533203,0.1005249,0.9645386
1605202527676,646,-0.7714844,0.23553467,0.666687
1605202527676,647,-0.81396484,0.16326904,0.81073
1605202527677,648,-1.0437012,0.07489014,0.93011475
1605202527678,649,-0.6665039,-0.028869629,0.7164917
1605202527679,650,-0.46362305,-0.25616455,0.77386475
1605202527679,651,-0.53027344,0.13812256,1.0009155
1605202527680,652,-0.6533203,0.1005249,0.9645386
1605202530229,653,-0.5834961,-0.28863525,0.59906006
1605202530229,654,-0.5834961,-0.28863525,0.59906006
1605202530231,655,-0.6687012,-0.3430786,0.66571045
1605202530232,656,-0.5834961,-0.28863525,0.59906006
1605202530232,657,-0.6687012,-0.3430786,0.66571045
1605202530233,658,-0.52490234,-0.45611572,0.5465698
1605202530234,659,-0.6687012,-0.3430786,0.66571045
1605202530234,660,-0.52490234,-0.45611572,0.5465698
1605202530235,661,-0.58325195,-0.52130127,0.48016357
1605202530235,662,-0.52490234,-0.45611572,0.5465698
1605202530236,663,-0.58325195,-0.52130127,0.48016357
1605202530237,664,-0.5732422,-0.44830322,0.5692749
1605202530242,665,-0.5732422,-0.44830322,0.5692749
1605202530254,666,-0.58325195,-0.52130127,0.48016357
1605202530254,667,-0.592041,-0.2883911,0.6923218
1605202530254,668,-0.592041,-0.2883911,0.6923218
1605202530255,669,-0.5732422,-0.44830322,0.5692749
1605202530256,670,-0.6706543,-0.08355713,0.74871826
1605202530257,671,-0.6442871,-0.038879395,0.7772827
1605202530258,672,-0.592041,-0.2883911,0.6923218
1605202530258,673,-0.6706543,-0.08355713,0.74871826
1605202530259,674,-0.6442871,-0.038879395,0.7772827
1605202530260,675,-0.5253906,0.024841309,0.8817749
1605202530261,676,-0.5253906,0.024841309,0.8817749
1605202530261,677,-0.638916,0.112976074,1.0492554
1605202530262,678,-0.6706543,-0.08355713,0.74871826
1605202530262,679,-0.638916,0.112976074,1.0492554
1605202530264,680,-0.62158203,0.11956787,0.8624878
1605202530266,681,-0.6442871,-0.038879395,0.7772827
1605202530267,682,-0.62158203,0.11956787,0.8624878
1605202530267,683,-0.7565918,0.2682495,0.8825073
1605202530267,684,-0.7565918,0.2682495,0.8825073
1605202530268,685,-0.5253906,0.024841309,0.8817749
1605202530269,686,-0.64819336,0.44036865,0.8175659
1605202530269,687,-0.64819336,0.44036865,0.8175659
1605202530269,688,-0.638916,0.112976074,1.0492554
1605202530269,689,-0.61035156,0.45404053,0.7223511
1605202530271,690,-0.5498047,0.4430542,0.6207886
1605202530271,691,-0.62158203,0.11956787,0.8624878
1605202530271,692,-0.61035156,0.45404053,0.7223511
1605202530271,693,-0.46264648,0.46502686,0.5326538
1605202530273,694,-0.7565918,0.2682495,0.8825073
1605202530273,695,-0.5498047,0.4430542,0.6207886
1605202530273,696,-0.35986328,0.50897217,0.4389038
1605202530273,697,-0.64819336,0.44036865,0.8175659
1605202530273,698,-0.46264648,0.46502686,0.5326538
1605202530275,699,-0.24926758,0.65789795,0.31610107
1605202530275,700,-0.61035156,0.45404053,0.7223511
1605202530275,701,-0.35986328,0.50897217,0.4389038
1605202530275,702,-0.11376953,0.7665405,0.19769287
1605202530276,703,-0.24926758,0.65789795,0.31610107
1605202530276,704,-0.5498047,0.4430542,0.6207886
1605202530278,705,-0.11376953,0.7665405,0.19769287
1605202530278,706,-0.46264648,0.46502686,0.5326538
1605202530278,707,0.111083984,1.0621948,-0.008361816
1605202530278,708,0.111083984,1.0621948,-0.008361816
1605202530278,709,-0.35986328,0.50897217,0.4389038
1605202530279,710,-0.005126953,0.8500366,-0.21295166
1605202530279,711,-0.005126953,0.8500366,-0.21295166
1605202530280,712,0.015625,0.9435425,-0.22198486
1605202530280,713,-0.24926758,0.65789795,0.31610107
1605202530281,714,0.015625,0.9435425,-0.22198486
1605202530281,715,0.19702148,0.92889404,-0.13482666
1605202530281,716,-0.11376953,0.7665405,0.19769287
1605202530281,717,0.19702148,0.92889404,-0.13482666
1605202530282,718,0.111083984,1.0621948,-0.008361816
1605202530282,719,0.16552734,0.88446045,-0.04083252
1605202530283,720,0.16552734,0.88446045,-0.04083252
1605202530283,721,0.30273438,0.9125366,-0.005432129
1605202530283,722,0.30273438,0.9125366,-0.005432129
1605202530284,723,0.083984375,1.270935,-0.27227783
1605202530284,724,0.083984375,1.270935,-0.27227783
1605202530285,725,-0.005126953,0.8500366,-0.21295166
1605202530285,726,-0.32250977,1.1837769,-0.21514893
1605202530285,727,0.015625,0.9435425,-0.22198486
1605202530286,728,-0.32250977,1.1837769,-0.21514893
1605202530286,729,0.053710938,1.1849976,-0.17901611
1605202530287,730,0.19702148,0.92889404,-0.13482666
1605202530287,731,0.053710938,1.1849976,-0.17901611
1605202530288,732,-0.056884766,0.5621948,-0.04547119
1605202530288,733,0.16552734,0.88446045,-0.04083252
1605202530288,734,-0.2019043,0.56707764,0.16082764
1605202530289,735,-0.056884766,0.5621948,-0.04547119
1605202530289,736,0.30273438,0.9125366,-0.005432129
1605202530289,737,-0.39331055,0.87957764,0.47503662
1605202530290,738,-0.2019043,0.56707764,0.16082764
1605202530291,739,0.083984375,1.270935,-0.27227783
1605202530291,740,-0.45117188,0.9359741,0.2098999
1605202530291,741,-0.39331055,0.87957764,0.47503662
1605202530292,742,-0.45117188,0.9359741,0.2098999
1605202530292,743,-0.32250977,1.1837769,-0.21514893
1605202530293,744,0.053710938,1.1849976,-0.17901611
1605202530294,745,-0.056884766,0.5621948,-0.04547119
1605202530294,746,-0.2019043,0.56707764,0.16082764
1605202530295,747,-0.39331055,0.87957764,0.47503662
1605202530295,748,-0.45117188,0.9359741,0.2098999
1605202532817,749,0.17407227,1.3651733,0.2189331
1605202532817,750,0.17407227,1.3651733,0.2189331
1605202532817,751,0.17407227,1.3651733,0.2189331
1605202532818,752,-0.5517578,0.805603,-0.08428955
1605202532820,753,-0.5517578,0.805603,-0.08428955
1605202532820,754,-0.5517578,0.805603,-0.08428955
1605202532820,755,0.46142578,1.041687,-0.09698486
1605202532820,756,0.22363281,0.9682007,0.08294678
1605202532821,757,0.46142578,1.041687,-0.09698486
1605202532824,758,0.10888672,0.885437,-0.284729
1605202532824,759,0.22363281,0.9682007,0.08294678
1605202532824,760,0.46142578,1.041687,-0.09698486
1605202532826,761,0.10888672,0.885437,-0.284729
1605202532826,762,0.22363281,0.9682007,0.08294678
1605202532826,763,0.32421875,0.92474365,-0.15118408
1605202532827,764,0.32421875,0.92474365,-0.15118408
1605202532828,765,0.2524414,0.97283936,-0.027893066
1605202532829,766,0.2524414,0.97283936,-0.027893066
1605202532830,767,0.3010254,0.8685913,0.03338623
1605202532831,768,0.3010254,0.8685913,0.03338623
1605202532832,769,0.08984375,0.92718506,-0.0068969727
1605202532832,770,0.08984375,0.92718506,-0.0068969727
1605202532833,771,0.10888672,0.885437,-0.284729
1605202532834,772,-0.16699219,1.0570679,-0.11090088
1605202532834,773,-0.16699219,1.0570679,-0.11090088
1605202532835,774,0.32421875,0.92474365,-0.15118408
1605202532836,775,-0.044433594,0.86517334,0.0067749023
1605202532836,776,-0.044433594,0.86517334,0.0067749023
1605202532837,777,0.2524414,0.97283936,-0.027893066
1605202532837,778,0.3010254,0.8685913,0.03338623
1605202532838,779,0.041259766,1.0150757,0.2140503
1605202532839,780,0.08984375,0.92718506,-0.0068969727
1605202532840,781,-0.08325195,0.6137085,0.14007568
1605202532841,782,-0.16699219,1.0570679,-0.11090088
1605202532841,783,0.041259766,1.0150757,0.2140503
1605202532842,784,-0.28979492,0.75531006,0.3366089
1605202532843,785,-0.044433594,0.86517334,0.0067749023
1605202532843,786,-0.08325195,0.6137085,0.14007568
1605202532844,787,0.041259766,1.0150757,0.2140503
1605202532845,788,-0.36376953,0.8908081,0.5307007
1605202532845,789,-0.28979492,0.75531006,0.3366089
1605202532845,790,-0.08325195,0.6137085,0.14007568
1605202532847,791,-0.36376953,0.8908081,0.5307007
1605202532848,792,-0.28979492,0.75531006,0.3366089
1605202532849,793,-0.65600586,0.35443115,0.2987671
1605202532850,794,-0.65600586,0.35443115,0.2987671
1605202532850,795,-0.36376953,0.8908081,0.5307007
1605202532851,796,-0.8000488,0.5668335,0.44696045
1605202532851,797,-0.8000488,0.5668335,0.44696045
1605202532852,798,-0.65600586,0.35443115,0.2987671
1605202532852,799,-1.201416,0.34979248,0.5661011
1605202532853,800,-1.201416,0.34979248,0.5661011
1605202532854,801,-0.8000488,0.5668335,0.44696045
1605202532855,802,-1.107666,0.5429077,0.46575928
1605202532855,803,-1.201416,0.34979248,0.5661011
1605202532856,804,-1.107666,0.5429077,0.46575928
1605202532857,805,-0.9992676,0.40618896,0.45062256
1605202532858,806,-1.107666,0.5429077,0.46575928
1605202532858,807,-0.9992676,0.40618896,0.45062256
1605202532859,808,-0.9992676,0.40618896,0.45062256
1605202532860,809,-0.88500977,0.39691162,0.51116943
1605202532860,810,-0.88500977,0.39691162,0.51116943
1605202532862,811,-0.88500977,0.39691162,0.51116943
1605202532862,812,-0.81591797,0.2597046,0.21990967
1605202532863,813,-0.81591797,0.2597046,0.21990967
1605202532863,814,-0.81591797,0.2597046,0.21990967
1605202532863,815,-0.76782227,0.3295288,0.028259277
1605202532863,816,-0.76782227,0.3295288,0.028259277
1605202532865,817,-0.8330078,0.31072998,0.01727295
1605202532865,818,-0.76782227,0.3295288,0.028259277
1605202532865,819,-0.8330078,0.31072998,0.01727295
1605202532867,820,-0.954834,0.23406982,-0.09234619
1605202532868,821,-0.8330078,0.31072998,0.01727295
1605202532868,822,-0.954834,0.23406982,-0.09234619
1605202532868,823,-0.98876953,0.14031982,-0.18756104
1605202532868,824,-0.954834,0.23406982,-0.09234619
1605202532869,825,-0.98876953,0.14031982,-0.18756104
1605202532869,826,-0.91796875,0.1317749,-0.2925415
1605202532870,827,-0.91796875,0.1317749,-0.2925415
1605202532870,828,-0.98876953,0.14031982,-0.18756104
1605202532871,829,-0.8796387,0.22918701,-0.2617798
1605202532873,830,-0.8796387,0.22918701,-0.2617798
1605202532874,831,-0.91796875,0.1317749,-0.2925415
1605202532874,832,-0.7687988,0.32489014,-0.3711548
1605202532874,833,-0.7687988,0.32489014,-0.3711548
1605202532874,834,-0.9152832,0.49993896,-0.37530518
1605202532874,835,-0.8796387,0.22918701,-0.2617798
1605202532875,836,-0.9152832,0.49993896,-0.37530518
1605202532875,837,-0.9584961,0.48724365,-0.30963135
1605202532876,838,-0.7687988,0.32489014,-0.3711548
1605202532876,839,-0.9584961,0.48724365,-0.30963135
1605202532876,840,-0.8696289,0.4869995,-0.2456665
1605202532877,841,-0.9152832,0.49993896,-0.37530518
1605202532878,842,-0.8696289,0.4869995,-0.2456665
1605202532879,843,-0.9584961,0.48724365,-0.30963135
1605202532879,844,-0.8696289,0.4869995,-0.2456665
1605202535395,845,-0.8754883,0.58270264,-0.21026611
1605202535395,846,-0.8754883,0.58270264,-0.21026611
1605202535396,847,-0.95166016,0.56536865,-0.121154785
1605202535397,848,-0.95166016,0.56536865,-0.121154785
1605202535397,849,-0.8754883,0.58270264,-0.21026611
1605202535397,850,-0.86865234,0.5158081,-0.07501221
1605202535397,851,-0.85424805,0.49847412,-0.044006348
1605202535397,852,-0.86865234,0.5158081,-0.07501221
1605202535398,853,-0.8696289,0.42547607,0.013366699
1605202535398,854,-0.95166016,0.56536865,-0.121154785
1605202535399,855,-0.84399414,0.46258545,0.06878662
1605202535399,856,-0.86865234,0.5158081,-0.07501221
1605202535400,857,-0.85424805,0.49847412,-0.044006348
1605202535400,858,-0.80615234,0.42425537,0.16595459
1605202535400,859,-0.85424805,0.49847412,-0.044006348
1605202535400,860,-0.8696289,0.42547607,0.013366699
1605202535401,861,-0.8696289,0.42547607,0.013366699
1605202535401,862,-0.8630371,0.43060303,0.23797607
1605202535402,863,-0.94799805,0.40252686,0.42230225
1605202535402,864,-0.84399414,0.46258545,0.06878662
1605202535402,865,-0.84399414,0.46258545,0.06878662
1605202535406,866,-0.9433594,0.53289795,0.51361084
1605202535406,867,-0.80615234,0.42425537,0.16595459
1605202535406,868,-0.80615234,0.42425537,0.16595459
1605202535406,869,-0.8630371,0.43060303,0.23797607
1605202535406,870,-0.7976074,0.309021,0.44744873
1605202535406,871,-0.89404297,0.5092163,0.3427124
1605202535406,872,-0.94799805,0.40252686,0.42230225
1605202535407,873,-0.8630371,0.43060303,0.23797607
1605202535407,874,-0.8535156,0.59906006,0.44207764
1605202535408,875,-0.94799805,0.40252686,0.42230225
1605202535408,876,-0.9433594,0.53289795,0.51361084
1605202535409,877,-0.7819824,0.555603,0.47650146
1605202535410,878,-0.9433594,0.53289795,0.51361084
1605202535410,879,-0.7519531,0.65448,0.46429443
1605202535410,880,-0.7976074,0.309021,0.44744873
1605202535410,881,-0.7976074,0.309021,0.44744873
1605202535411,882,-0.89404297,0.5092163,0.3427124
1605202535411,883,-0.89404297,0.5092163,0.3427124
1605202535412,884,-0.8535156,0.59906006,0.44207764
1605202535413,885,-0.5583496,0.8241577,0.3781128
1605202535413,886,-0.8535156,0.59906006,0.44207764
1605202535413,887,-0.7819824,0.555603,0.47650146
1605202535414,888,-0.1640625,0.69818115,0.15618896
1605202535415,889,-0.7519531,0.65448,0.46429443
1605202535415,890,0.2290039,0.46722412,-0.057434082
1605202535415,891,-0.7819824,0.555603,0.47650146
1605202535416,892,-0.5583496,0.8241577,0.3781128
1605202535416,893,-0.7519531,0.65448,0.46429443
1605202535419,894,0.00390625,0.9491577,0.07928467
1605202535420,895,-0.1640625,0.69818115,0.15618896
1605202535422,896,0.09008789,1.069519,0.058532715
1605202535422,897,-0.5583496,0.8241577,0.3781128
1605202535422,898,0.2290039,0.46722412,-0.057434082
1605202535422,899,-0.1640625,0.69818115,0.15618896
1605202535422,900,0.00390625,0.9491577,0.07928467
1605202535422,901,0.2290039,0.46722412,-0.057434082
1605202535424,902,0.09008789,1.069519,0.058532715
1605202535424,903,0.00390625,0.9491577,0.07928467
1605202535424,904,0.36914062,0.93670654,-0.56500244
1605202535425,905,0.36914062,0.93670654,-0.56500244
1605202535425,906,-0.017822266,0.96087646,0.098083496
1605202535425,907,0.09008789,1.069519,0.058532715
1605202535426,908,0.29833984,0.9188843,-0.3196411
1605202535426,909,0.36914062,0.93670654,-0.56500244
1605202535427,910,0.21289062,1.2767944,0.055847168
1605202535427,911,-0.017822266,0.96087646,0.098083496
1605202535428,912,-0.017822266,0.96087646,0.098083496
1605202535428,913,0.17749023,0.9696655,-0.2263794
1605202535429,914,0.29833984,0.9188843,-0.3196411
1605202535429,915,0.29833984,0.9188843,-0.3196411
1605202535429,916,0.21289062,1.2767944,0.055847168
1605202535430,917,0.36499023,1.366394,0.13446045
1605202535431,918,0.21289062,1.2767944,0.055847168
1605202535431,919,0.17749023,0.9696655,-0.2263794
1605202535431,920,0.010986328,0.5770874,0.12200928
1605202535432,921,0.36499023,1.366394,0.13446045
1605202535432,922,0.021728516,0.4694214,-0.0029907227
1605202535433,923,0.17749023,0.9696655,-0.2263794
1605202535433,924,-0.19677734,0.8414917,0.082458496
1605202535434,925,0.36499023,1.366394,0.13446045
1605202535434,926,0.010986328,0.5770874,0.12200928
1605202535435,927,0.010986328,0.5770874,0.12200928
1605202535435,928,0.021728516,0.4694214,-0.0029907227
1605202535436,929,-0.5698242,1.7472534,0.526062
1605202535436,930,0.021728516,0.4694214,-0.0029907227
1605202535436,931,0.44970703,0.55804443,-0.18585205
1605202535437,932,-0.19677734,0.8414917,0.082458496
1605202535437,933,0.2019043,1.1342163,0.11639404
1605202535438,934,-0.5698242,1.7472534,0.526062
1605202535439,935,-0.19677734,0.8414917,0.082458496
1605202535440,936,0.44970703,0.55804443,-0.18585205
1605202535440,937,0.2019043,1.1342163,0.11639404
1605202535441,938,-0.5698242,1.7472534,0.526062
1605202535441,939,0.44970703,0.55804443,-0.18585205
1605202535442,940,0.2019043,1.1342163,0.11639404
1605202537980,941,-0.31884766,1.0036011,-0.06793213
1605202537980,942,-0.31884766,1.0036011,-0.06793213
1605202537980,943,-0.31884766,1.0036011,-0.06793213
1605202537980,944,0.13769531,0.9706421,-0.11553955
1605202537983,945,0.13769531,0.9706421,-0.11553955
1605202537983,946,0.11425781,0.9567261,-0.13287354
1605202537983,947,0.13769531,0.9706421,-0.11553955
1605202537983,948,-0.057128906,0.930603,-0.08477783
1605202537987,949,0.11425781,0.9567261,-0.13287354
1605202537987,950,0.11425781,0.9567261,-0.13287354
1605202537987,951,0.03125,0.9345093,-0.25079346
1605202537987,952,-0.057128906,0.930603,-0.08477783
1605202537987,953,-0.057128906,0.930603,-0.08477783
1605202537987,954,0.033447266,0.9594116,-0.09918213
1605202537987,955,0.03125,0.9345093,-0.25079346
1605202537987,956,0.03125,0.9345093,-0.25079346
1605202537987,957,0.15966797,1.0282593,-0.29473877
1605202537987,958,0.033447266,0.9594116,-0.09918213
1605202537991,959,0.033447266,0.9594116,-0.09918213
1605202537991,960,0.18701172,1.1425171,-0.41070557
1605202537991,961,0.15966797,1.0282593,-0.29473877
1605202537991,962,-0.17089844,0.901062,-0.10797119
1605202537994,963,0.18701172,1.1425171,-0.41070557
1605202537995,964,0.15966797,1.0282593,-0.29473877
1605202537995,965,-0.19848633,0.7748413,0.1774292
1605202537995,966,-0.17089844,0.901062,-0.10797119
1605202537995,967,0.18701172,1.1425171,-0.41070557
1605202537995,968,0.072509766,0.83636475,-0.11651611
1605202537997,969,-0.17089844,0.901062,-0.10797119
1605202537997,970,-0.19848633,0.7748413,0.1774292
1605202537997,971,-0.19848633,0.7748413,0.1774292
1605202537997,972,0.072509766,0.83636475,-0.11651611
1605202537997,973,-0.061523438,0.84490967,0.027770996
1605202537997,974,-0.061523438,0.84490967,0.027770996
1605202537997,975,-0.08178711,1.135437,0.011413574
1605202537998,976,-0.08178711,1.135437,0.011413574
1605202537998,977,0.072509766,0.83636475,-0.11651611
1605202538002,978,0.025390625,0.96209717,-0.06842041
1605202538002,979,0.025390625,0.96209717,-0.06842041
1605202538002,980,0.2421875,1.0458374,0.11785889
1605202538002,981,0.2421875,1.0458374,0.11785889
1605202538002,982,-0.061523438,0.84490967,0.027770996
1605202538004,983,-0.17456055,1.1412964,-0.26275635
1605202538004,984,-0.17456055,1.1412964,-0.26275635
1605202538004,985,-0.08178711,1.135437,0.011413574
1605202538004,986,-0.123535156,0.8776245,0.05633545
1605202538004,987,-0.123535156,0.8776245,0.05633545
1605202538004,988,0.025390625,0.96209717,-0.06842041
1605202538007,989,0.59472656,1.0162964,-0.31866455
1605202538007,990,0.59472656,1.0162964,-0.31866455
1605202538008,991,0.2421875,1.0458374,0.11785889
1605202538008,992,0.012451172,0.88934326,-0.07965088
1605202538009,993,0.012451172,0.88934326,-0.07965088
1605202538009,994,-0.17456055,1.1412964,-0.26275635
1605202538010,995,-0.123535156,0.8776245,0.05633545
1605202538016,996,0.59472656,1.0162964,-0.31866455
1605202538016,997,0.16455078,0.8908081,-0.23931885
1605202538016,998,0.16455078,0.8908081,-0.23931885
1605202538016,999,0.012451172,0.88934326,-0.07965088
1605202538016,1000,0.34472656,0.89715576,-0.19342041
1605202538025,1001,0.34472656,0.89715576,-0.19342041
1605202538025,1002,0.16455078,0.8908081,-0.23931885
1605202538025,1003,0.18969727,0.82611084,-0.18585205
1605202538025,1004,0.34472656,0.89715576,-0.19342041
1605202538025,1005,0.18969727,0.82611084,-0.18585205
1605202538025,1006,0.18969727,0.82611084,-0.18585205
1605202538025,1007,0.34985352,0.84051514,-0.23516846
1605202538025,1008,0.34985352,0.84051514,-0.23516846
1605202538025,1009,0.2746582,0.9657593,-0.22857666
1605202538025,1010,0.4243164,1.0895386,-0.25323486
1605202538026,1011,0.34985352,0.84051514,-0.23516846
1605202538026,1012,0.2746582,0.9657593,-0.22857666
1605202538027,1013,0.17041016,1.1500854,0.011657715
1605202538027,1014,0.4243164,1.0895386,-0.25323486
1605202538028,1015,0.12426758,1.1176147,-0.031066895
1605202538028,1016,0.2746582,0.9657593,-0.22857666
1605202538028,1017,0.17041016,1.1500854,0.011657715
1605202538028,1018,0.37524414,1.069519,-0.30548096
1605202538028,1019,0.4243164,1.0895386,-0.25323486
1605202538028,1020,0.09008789,0.9862671,-0.050598145
1605202538028,1021,0.17041016,1.1500854,0.011657715
1605202538028,1022,0.072021484,0.8619995,0.1005249
1605202538029,1023,0.12426758,1.1176147,-0.031066895
1605202538029,1024,0.12426758,1.1176147,-0.031066895
1605202538029,1025,-0.15698242,0.70599365,0.18011475
1605202538029,1026,0.37524414,1.069519,-0.30548096
1605202538030,1027,0.37524414,1.069519,-0.30548096
1605202538031,1028,0.09008789,0.9862671,-0.050598145
1605202538031,1029,-0.10620117,0.6117554,0.029968262
1605202538031,1030,0.09008789,0.9862671,-0.050598145
1605202538032,1031,0.072021484,0.8619995,0.1005249
1605202538032,1032,0.072021484,0.8619995,0.1005249
1605202538033,1033,-0.15698242,0.70599365,0.18011475
1605202538033,1034,-0.15698242,0.70599365,0.18011475
1605202538033,1035,-0.10620117,0.6117554,0.029968262
1605202538034,1036,-0.10620117,0.6117554,0.029968262
1605202540567,1037,0.10571289,0.7987671,-0.25177002
1605202540570,1038,0.10571289,0.7987671,-0.25177002
1605202540574,1039,-0.6845703,1.2970581,-0.43341064
1605202540577,1040,-0.6845703,1.2970581,-0.43341064
1605202540580,1041,0.34765625,1.1598511,-0.20977783
1605202540581,1042,0.10571289,0.7987671,-0.25177002
1605202540582,1043,0.6447754,1.0380249,-0.20245361
1605202540582,1044,0.34765625,1.1598511,-0.20977783
1605202540583,1045,-0.13720703,1.0009155,-0.07208252
1605202540584,1046,0.6447754,1.0380249,-0.20245361
1605202540585,1047,0.039794922,0.8949585,-0.028869629
1605202540586,1048,-0.13720703,1.0009155,-0.07208252
1605202540587,1049,0.49194336,0.9154663,-0.39678955
1605202540587,1050,0.039794922,0.8949585,-0.028869629
1605202540587,1051,-0.6845703,1.2970581,-0.43341064
1605202540588,1052,0.111816406,0.94573975,-0.25128174
1605202540589,1053,0.34765625,1.1598511,-0.20977783
1605202540590,1054,0.15698242,0.9154663,-0.16680908
1605202540590,1055,0.49194336,0.9154663,-0.39678955
1605202540590,1056,0.24633789,0.9398804,-0.1272583
1605202540591,1057,0.111816406,0.94573975,-0.25128174
1605202540592,1058,0.14428711,0.9113159,-0.22003174
1605202540593,1059,0.15698242,0.9154663,-0.16680908
1605202540594,1060,0.12866211,0.9227905,-0.11090088
1605202540595,1061,0.24633789,0.9398804,-0.1272583
1605202540596,1062,0.15673828,0.93573,-0.043273926
1605202540596,1063,0.14428711,0.9113159,-0.22003174
1605202540596,1064,0.14428711,0.9371948,-0.07940674
1605202540597,1065,0.6447754,1.0380249,-0.20245361
1605202540598,1066,0.12866211,0.9227905,-0.11090088
1605202540598,1067,0.23632812,0.9476929,-0.105285645
1605202540599,1068,-0.13720703,1.0009155,-0.07208252
1605202540600,1069,0.15673828,0.93573,-0.043273926
1605202540600,1070,0.18359375,0.9574585,0.03656006
1605202540601,1071,0.039794922,0.8949585,-0.028869629
1605202540601,1072,0.14428711,0.9371948,-0.07940674
1605202540602,1073,0.1965332,1.0790405,-0.058410645
1605202540602,1074,0.49194336,0.9154663,-0.39678955
1605202540603,1075,-0.04345703,1.1442261,-0.04058838
1605202540603,1076,0.23632812,0.9476929,-0.105285645
1605202540605,1077,0.05419922,0.98602295,-0.1350708
1605202540606,1078,0.111816406,0.94573975,-0.25128174
1605202540606,1079,0.18359375,0.9574585,0.03656006
1605202540606,1080,0.10205078,0.885437,-0.17315674
1605202540606,1081,0.15698242,0.9154663,-0.16680908
1605202540606,1082,0.1965332,1.0790405,-0.058410645
1605202540606,1083,-0.13256836,0.91937256,-0.06890869
1605202540607,1084,0.24633789,0.9398804,-0.1272583
1605202540608,1085,-0.04345703,1.1442261,-0.04058838
1605202540608,1086,-0.23413086,0.93792725,0.16375732
1605202540608,1087,0.14428711,0.9113159,-0.22003174
1605202540610,1088,0.05419922,0.98602295,-0.1350708
1605202540610,1089,0.12866211,0.9227905,-0.11090088
1605202540610,1090,-0.08886719,0.7201538,0.070007324
1605202540610,1091,0.10205078,0.885437,-0.17315674
1605202540610,1092,0.15673828,0.93573,-0.043273926
1605202540611,1093,-0.18945312,0.83587646,0.015808105
1605202540611,1094,-0.13256836,0.91937256,-0.06890869
1605202540612,1095,0.14428711,0.9371948,-0.07940674
1605202540612,1096,-0.23413086,0.93792725,0.16375732
1605202540612,1097,0.23632812,0.9476929,-0.105285645
1605202540613,1098,-0.37524414,1.0499878,-0.005432129
1605202540613,1099,-0.08886719,0.7201538,0.070007324
1605202540614,1100,0.18359375,0.9574585,0.03656006
1605202540614,1101,-0.31054688,1.1950073,-0.05670166
1605202540615,1102,-0.18945312,0.83587646,0.015808105
1605202540615,1103,0.1965332,1.0790405,-0.058410645
1605202540615,1104,0.0034179688,0.8590698,-0.3735962
1605202540617,1105,-0.37524414,1.0499878,-0.005432129
1605202540618,1106,-0.04345703,1.1442261,-0.04058838
1605202540618,1107,0.48901367,0.97991943,0.093444824
1605202540618,1108,0.05419922,0.98602295,-0.1350708
1605202540619,1109,-0.31054688,1.1950073,-0.05670166
1605202540619,1110,0.04345703,1.0075073,-0.1638794
1605202540622,1111,0.0034179688,0.8590698,-0.3735962
1605202540622,1112,0.0390625,0.92303467,-0.10821533
1605202540623,1113,0.10205078,0.885437,-0.17315674
1605202540623,1114,0.3046875,0.86761475,-0.23858643
1605202540623,1115,-0.13256836,0.91937256,-0.06890869
1605202540623,1116,0.48901367,0.97991943,0.093444824
1605202540623,1117,0.13256836,0.98968506,-0.12750244
1605202540624,1118,0.04345703,1.0075073,-0.1638794
1605202540625,1119,-0.23413086,0.93792725,0.16375732
1605202540625,1120,0.0390625,0.92303467,-0.10821533
1605202540625,1121,-0.08886719,0.7201538,0.070007324
1605202540637,1122,0.3046875,0.86761475,-0.23858643
1605202540638,1123,-0.18945312,0.83587646,0.015808105
1605202540638,1124,0.13256836,0.98968506,-0.12750244
1605202540638,1125,-0.37524414,1.0499878,-0.005432129
1605202540638,1126,-0.31054688,1.1950073,-0.05670166
1605202540638,1127,0.0034179688,0.8590698,-0.3735962
1605202540639,1128,0.48901367,0.97991943,0.093444824
1605202540639,1129,0.04345703,1.0075073,-0.1638794
1605202540640,1130,0.0390625,0.92303467,-0.10821533
1605202540641,1131,0.3046875,0.86761475,-0.23858643
1605202540642,1132,0.13256836,0.98968506,-0.12750244
1605202543152,1133,0.13647461,0.9105835,-0.18389893
1605202543154,1134,0.13647461,0.9105835,-0.18389893
1605202543154,1135,0.32421875,0.8956909,-0.24371338
1605202543155,1136,0.32421875,0.8956909,-0.24371338
1605202543156,1137,0.13769531,0.930603,-0.26885986
1605202543157,1138,0.13769531,0.930603,-0.26885986
1605202543158,1139,0.15942383,0.91156006,-0.18878174
1605202543159,1140,0.15942383,0.91156006,-0.18878174
1605202543160,1141,0.2578125,0.89837646,-0.16192627
1605202543161,1142,0.2578125,0.89837646,-0.16192627
1605202543164,1143,0.22363281,0.94158936,-0.21636963
1605202543164,1144,0.13647461,0.9105835,-0.18389893
1605202543164,1145,0.22363281,0.94158936,-0.21636963
1605202543167,1146,0.19946289,0.8859253,-0.17852783
1605202543168,1147,0.32421875,0.8956909,-0.24371338
1605202543168,1148,0.19946289,0.8859253,-0.17852783
1605202543168,1149,0.0625,0.9242554,-0.2078247
1605202543168,1150,0.13769531,0.930603,-0.26885986
1605202543169,1151,0.0625,0.9242554,-0.2078247
1605202543169,1152,-0.20458984,1.1464233,-0.5178833
1605202543170,1153,-0.3017578,1.1473999,-0.17437744
1605202543171,1154,-0.20458984,1.1464233,-0.5178833
1605202543172,1155,0.15942383,0.91156006,-0.18878174
1605202543172,1156,-0.3251953,0.9503784,0.43084717
1605202543173,1157,-0.3017578,1.1473999,-0.17437744
1605202543174,1158,0.2578125,0.89837646,-0.16192627
1605202543174,1159,-0.3251953,0.9503784,0.43084717
1605202543175,1160,-0.3334961,0.48284912,-0.3069458
1605202543176,1161,0.22363281,0.94158936,-0.21636963
1605202543176,1162,-0.3334961,0.48284912,-0.3069458
1605202543177,1163,0.1953125,0.416687,-0.1951294
1605202543178,1164,0.19946289,0.8859253,-0.17852783
1605202543178,1165,0.1953125,0.416687,-0.1951294
1605202543179,1166,-0.22167969,1.0839233,-0.15093994
1605202543179,1167,0.0625,0.9242554,-0.2078247
1605202543180,1168,-0.5895996,1.999939,0.12005615
1605202543182,1169,-0.22167969,1.0839233,-0.15093994
1605202543183,1170,-0.029541016,1.3004761,-0.5820923
1605202543183,1171,-0.021484375,0.3336792,0.29388428
1605202543183,1172,-0.5895996,1.999939,0.12005615
1605202543184,1173,-0.029541016,1.3004761,-0.5820923
1605202543186,1174,-0.4091797,-0.101867676,0.08270264
1605202543187,1175,-0.021484375,0.3336792,0.29388428
1605202543190,1176,0.29248047,0.977478,-0.34161377
1605202543190,1177,-0.4091797,-0.101867676,0.08270264
1605202543190,1178,-0.20458984,1.1464233,-0.5178833
1605202543191,1179,-0.060546875,1.999939,0.17376709
1605202543192,1180,0.29248047,0.977478,-0.34161377
1605202543192,1181,-0.3017578,1.1473999,-0.17437744
1605202543193,1182,0.20825195,1.0436401,-0.2468872
1605202543193,1183,-0.060546875,1.999939,0.17376709
1605202543193,1184,-0.3251953,0.9503784,0.43084717
1605202543194,1185,-0.30981445,0.31585693,0.3324585
1605202543194,1186,0.20825195,1.0436401,-0.2468872
1605202543194,1187,-0.3334961,0.48284912,-0.3069458
1605202543196,1188,-0.30981445,0.31585693,0.3324585
1605202543196,1189,-0.31884766,0.35565186,0.06976318
1605202543196,1190,0.1953125,0.416687,-0.1951294
1605202543197,1191,0.10449219,1.4667358,-0.08843994
1605202543198,1192,0.22973633,1.7692261,-0.43121338
1605202543199,1193,-0.075927734,0.7680054,-0.109436035
1605202543200,1194,-0.2290039,0.36273193,0.41278076
1605202543201,1195,-0.31884766,0.35565186,0.06976318
1605202543202,1196,0.4404297,0.45941162,-0.48077393
1605202543202,1197,-0.22167969,1.0839233,-0.15093994
1605202543202,1198,0.10449219,1.4667358,-0.08843994
1605202543202,1199,-0.5895996,1.999939,0.12005615
1605202543203,1200,-0.016601562,1.7614136,-0.5239868
1605202543204,1201,-0.029541016,1.3004761,-0.5820923
1605202543204,1202,0.22973633,1.7692261,-0.43121338
1605202543204,1203,-0.021484375,0.3336792,0.29388428
1605202543205,1204,0.48608398,1.137146,-0.34576416
1605202543206,1205,-0.4091797,-0.101867676,0.08270264
1605202543206,1206,-0.075927734,0.7680054,-0.109436035
1605202543207,1207,-0.027832031,0.5062866,0.21087646
1605202543207,1208,0.29248047,0.977478,-0.34161377
1605202543207,1209,-0.2290039,0.36273193,0.41278076
1605202543208,1210,0.18237305,0.17816162,-0.08477783
1605202543208,1211,0.4404297,0.45941162,-0.48077393
1605202543209,1212,-0.060546875,1.999939,0.17376709
1605202543209,1213,-0.016601562,1.7614136,-0.5239868
1605202543210,1214,0.20825195,1.0436401,-0.2468872
1605202543210,1215,0.48608398,1.137146,-0.34576416
1605202543211,1216,-0.027832031,0.5062866,0.21087646
1605202543211,1217,-0.30981445,0.31585693,0.3324585
1605202543212,1218,0.18237305,0.17816162,-0.08477783
1605202543212,1219,-0.31884766,0.35565186,0.06976318
1605202543213,1220,0.10449219,1.4667358,-0.08843994
1605202543214,1221,0.22973633,1.7692261,-0.43121338
1605202543215,1222,-0.075927734,0.7680054,-0.109436035
1605202543216,1223,-0.2290039,0.36273193,0.41278076
1605202543216,1224,0.4404297,0.45941162,-0.48077393
1605202543217,1225,-0.016601562,1.7614136,-0.5239868
1605202543217,1226,0.48608398,1.137146,-0.34576416
1605202543218,1227,-0.027832031,0.5062866,0.21087646
1605202543219,1228,0.18237305,0.17816162,-0.08477783
1605202545734,1229,0.2866211,1.8058472,-0.4907837
1605202545735,1230,0.2866211,1.8058472,-0.4907837
1605202545736,1231,-0.084228516,1.6813354,-0.49346924
1605202545738,1232,-0.084228516,1.6813354,-0.49346924
1605202545738,1233,-0.1003418,0.48016357,-0.15753174
1605202545739,1234,-0.1003418,0.48016357,-0.15753174
1605202545741,1235,0.6152344,-0.19317627,0.06976318
1605202545741,1236,0.2866211,1.8058472,-0.4907837
1605202545742,1237,0.6152344,-0.19317627,0.06976318
1605202545744,1238,-0.084228516,1.6813354,-0.49346924
1605202545744,1239,-0.25561523,0.41351318,0.018493652
1605202545745,1240,-0.1003418,0.48016357,-0.15753174
1605202545746,1241,-0.15185547,1.999939,-0.77227783
1605202545747,1242,0.6152344,-0.19317627,0.06976318
1605202545749,1243,-0.25561523,0.41351318,0.018493652
1605202545749,1244,-0.2783203,1.5939331,-0.08746338
1605202545750,1245,-0.25561523,0.41351318,0.018493652
1605202545751,1246,-0.15185547,1.999939,-0.77227783
1605202545751,1247,-0.15185547,1.999939,-0.77227783
1605202545752,1248,0.5234375,0.7404175,-0.0881958
1605202545753,1249,-0.2783203,1.5939331,-0.08746338
1605202545753,1250,-0.008544922,-0.42364502,0.14520264
1605202545754,1251,0.5234375,0.7404175,-0.0881958
1605202545755,1252,-0.46191406,0.27923584,-0.02130127
1605202545755,1253,-0.2783203,1.5939331,-0.08746338
1605202545755,1254,-0.0925293,1.999939,0.2518921
1605202545756,1255,0.5234375,0.7404175,-0.0881958
1605202545757,1256,0.06518555,0.90374756,-0.22467041
1605202545757,1257,-0.008544922,-0.42364502,0.14520264
1605202545758,1258,0.057861328,1.5363159,-0.33013916
1605202545758,1259,-0.46191406,0.27923584,-0.02130127
1605202545759,1260,-0.35058594,0.3517456,0.16375732
1605202545760,1261,-0.0925293,1.999939,0.2518921
1605202545761,1262,0.076171875,0.45550537,-0.1663208
1605202545761,1263,0.06518555,0.90374756,-0.22467041
1605202545763,1264,-0.008544922,-0.42364502,0.14520264
1605202545763,1265,0.057861328,1.5363159,-0.33013916
1605202545764,1266,-0.031982422,1.0595093,-0.15826416
1605202545765,1267,-0.46191406,0.27923584,-0.02130127
1605202545766,1268,-0.35058594,0.3517456,0.16375732
1605202545766,1269,-0.22045898,1.999939,-0.4866333
1605202545767,1270,-0.0925293,1.999939,0.2518921
1605202545769,1271,0.076171875,0.45550537,-0.1663208
1605202545769,1272,-0.080322266,0.9730835,-0.16778564
1605202545770,1273,0.06518555,0.90374756,-0.22467041
1605202545771,1274,0.13378906,0.26654053,0.30755615
1605202545772,1275,-0.031982422,1.0595093,-0.15826416
1605202545773,1276,0.057861328,1.5363159,-0.33013916
1605202545774,1277,-0.115722656,0.13665771,0.1564331
1605202545775,1278,-0.22045898,1.999939,-0.4866333
1605202545775,1279,-0.35058594,0.3517456,0.16375732
1605202545776,1280,-0.12475586,1.3771362,-0.22686768
1605202545778,1281,-0.080322266,0.9730835,-0.16778564
1605202545778,1282,0.076171875,0.45550537,-0.1663208
1605202545778,1283,-1.0480957,1.8595581,-0.49713135
1605202545779,1284,0.13378906,0.26654053,0.30755615
1605202545780,1285,-0.031982422,1.0595093,-0.15826416
1605202545781,1286,-0.4453125,1.1796265,-0.070129395
1605202545781,1287,-0.115722656,0.13665771,0.1564331
1605202545781,1288,0.24365234,0.447937,-0.053527832
1605202545781,1289,-0.12475586,1.3771362,-0.22686768
1605202545782,1290,-0.22045898,1.999939,-0.4866333
1605202545783,1291,-1.0480957,1.8595581,-0.49713135
1605202545783,1292,-0.036621094,0.16741943,0.5326538
1605202545785,1293,-0.080322266,0.9730835,-0.16778564
1605202545785,1294,-0.4453125,1.1796265,-0.070129395
1605202545785,1295,-0.66064453,1.0473022,-0.6694946
1605202545785,1296,0.13378906,0.26654053,0.30755615
1605202545786,1297,0.24365234,0.447937,-0.053527832
1605202545787,1298,-0.93481445,1.8080444,0.14910889
1605202545787,1299,-0.115722656,0.13665771,0.1564331
1605202545788,1300,-0.09326172,1.302185,-0.025939941
1605202545789,1301,-0.036621094,0.16741943,0.5326538
1605202545789,1302,-0.12475586,1.3771362,-0.22686768
1605202545790,1303,0.33544922,0.5285034,-0.07159424
1605202545791,1304,-1.0480957,1.8595581,-0.49713135
1605202545792,1305,-0.66064453,1.0473022,-0.6694946
1605202545792,1306,-0.44433594,0.34002686,0.17376709
1605202545792,1307,-0.93481445,1.8080444,0.14910889
1605202545793,1308,-0.4453125,1.1796265,-0.070129395
1605202545794,1309,-0.09326172,1.302185,-0.025939941
1605202545794,1310,0.24365234,0.447937,-0.053527832
1605202545795,1311,-0.13647461,1.2055054,-0.440979
1605202545795,1312,0.33544922,0.5285034,-0.07159424
1605202545795,1313,0.2368164,1.3007202,-0.42926025
1605202545796,1314,-0.036621094,0.16741943,0.5326538
1605202545797,1315,-0.44433594,0.34002686,0.17376709
1605202545797,1316,-0.66064453,1.0473022,-0.6694946
1605202545798,1317,-0.93481445,1.8080444,0.14910889
1605202545799,1318,-0.13647461,1.2055054,-0.440979
1605202545799,1319,0.2368164,1.3007202,-0.42926025
1605202545799,1320,-0.09326172,1.302185,-0.025939941
1605202545800,1321,0.33544922,0.5285034,-0.07159424
1605202545801,1322,-0.44433594,0.34002686,0.17376709
1605202545802,1323,-0.13647461,1.2055054,-0.440979
1605202545803,1324,0.2368164,1.3007202,-0.42926025
1605202548116,1325,0.080078125,1.244812,0.07904053
1605202548116,1326,0.080078125,1.244812,0.07904053
1605202548118,1327,0.15209961,0.6166382,-0.13189697
1605202548118,1328,0.15209961,0.6166382,-0.13189697
1605202548118,1329,0.17553711,0.33221436,-0.10772705
1605202548119,1330,0.17553711,0.33221436,-0.10772705
1605202548120,1331,0.080078125,1.244812,0.07904053
1605202548120,1332,0.014404297,1.1991577,-0.5479126
1605202548121,1333,0.15209961,0.6166382,-0.13189697
1605202548122,1334,0.47070312,1.453064,-0.47833252
1605202548123,1335,0.17553711,0.33221436,-0.10772705
1605202548124,1336,-0.16894531,1.0560913,0.27069092
1605202548124,1337,0.014404297,1.1991577,-0.5479126
1605202548125,1338,0.10229492,0.22991943,-0.17364502
1605202548126,1339,0.014404297,1.1991577,-0.5479126
1605202548126,1340,0.47070312,1.453064,-0.47833252
1605202548127,1341,0.47070312,1.453064,-0.47833252
1605202548128,1342,-0.16894531,1.0560913,0.27069092
1605202548129,1343,-0.16894531,1.0560913,0.27069092
1605202548129,1344,0.10229492,0.22991943,-0.17364502
1605202548130,1345,0.10229492,0.22991943,-0.17364502
1605202548130,1346,0.27294922,0.6757202,-0.27911377
1605202548131,1347,0.27294922,0.6757202,-0.27911377
1605202548132,1348,-0.09008789,1.9650269,-0.6001587
1605202548132,1349,-0.09008789,1.9650269,-0.6001587
1605202548133,1350,-0.32470703,1.2545776,-0.3255005
1605202548133,1351,-0.32470703,1.2545776,-0.3255005
1605202548134,1352,0.06323242,0.34417725,0.18426514
1605202548134,1353,0.06323242,0.34417725,0.18426514
1605202548135,1354,0.10083008,-0.21612549,0.25775146
1605202548136,1355,0.10083008,-0.21612549,0.25775146
1605202548137,1356,0.27294922,0.6757202,-0.27911377
1605202548137,1357,-0.07763672,1.2533569,0.1906128
1605202548137,1358,-0.07763672,1.2533569,0.1906128
1605202548137,1359,-1.0654297,1.999939,-0.04864502
1605202548137,1360,-1.0654297,1.999939,-0.04864502
1605202548138,1361,-0.15332031,0.6703491,0.47113037
1605202548139,1362,-0.09008789,1.9650269,-0.6001587
1605202548139,1363,0.2614746,0.2838745,-0.0713501
1605202548140,1364,-0.15332031,0.6703491,0.47113037
1605202548140,1365,-0.32470703,1.2545776,-0.3255005
1605202548140,1366,-0.38134766,0.20697021,0.416687
1605202548141,1367,0.06323242,0.34417725,0.18426514
1605202548141,1368,0.2614746,0.2838745,-0.0713501
1605202548141,1369,-0.16357422,1.999939,-0.105041504
1605202548142,1370,-0.38134766,0.20697021,0.416687
1605202548142,1371,0.10083008,-0.21612549,0.25775146
1605202548143,1372,-0.4880371,1.1137085,0.113708496
1605202548143,1373,-0.16357422,1.999939,-0.105041504
1605202548143,1374,-0.07763672,1.2533569,0.1906128
1605202548144,1375,0.46875,-0.105529785,0.45526123
1605202548145,1376,-0.4880371,1.1137085,0.113708496
1605202548145,1377,-0.12597656,0.354187,-0.55792236
1605202548145,1378,0.46875,-0.105529785,0.45526123
1605202548146,1379,-1.0654297,1.999939,-0.04864502
1605202548147,1380,-0.43115234,1.999939,-0.11968994
1605202548147,1381,-0.12597656,0.354187,-0.55792236
1605202548147,1382,-0.15332031,0.6703491,0.47113037
1605202548148,1383,-0.43115234,1.999939,-0.11968994
1605202548148,1384,0.2614746,0.2838745,-0.0713501
1605202548148,1385,0.77441406,1.0551147,-0.6712036
1605202548149,1386,0.77441406,1.0551147,-0.6712036
1605202548150,1387,-0.38134766,0.20697021,0.416687
1605202548150,1388,-0.35327148,0.74798584,0.1942749
1605202548150,1389,-0.35327148,0.74798584,0.1942749
1605202548151,1390,-0.16357422,1.999939,-0.105041504
1605202548151,1391,-0.19677734,0.5560913,0.23699951
1605202548152,1392,-0.19677734,0.5560913,0.23699951
1605202548152,1393,-0.4880371,1.1137085,0.113708496
1605202548153,1394,0.2368164,1.2096558,-0.7061157
1605202548153,1395,0.2368164,1.2096558,-0.7061157
1605202548153,1396,0.46875,-0.105529785,0.45526123
1605202548154,1397,0.48486328,1.4743042,-0.21270752
1605202548155,1398,0.48486328,1.4743042,-0.21270752
1605202548155,1399,-0.12597656,0.354187,-0.55792236
1605202548155,1400,-0.17285156,0.7470093,-0.3098755
1605202548155,1401,-0.17285156,0.7470093,-0.3098755
1605202548157,1402,0.020019531,0.3673706,0.082458496
1605202548157,1403,-0.43115234,1.999939,-0.11968994
1605202548158,1404,0.020019531,0.3673706,0.082458496
1605202548158,1405,0.29077148,0.6810913,-0.36431885
1605202548158,1406,0.77441406,1.0551147,-0.6712036
1605202548159,1407,0.29077148,0.6810913,-0.36431885
1605202548159,1408,0.10620117,1.8761597,-0.22833252
1605202548159,1409,-0.35327148,0.74798584,0.1942749
1605202548159,1410,0.390625,0.9989624,-0.49346924
1605202548160,1411,-0.19677734,0.5560913,0.23699951
1605202548160,1412,0.10620117,1.8761597,-0.22833252
1605202548160,1413,0.2368164,1.2096558,-0.7061157
1605202548161,1414,0.390625,0.9989624,-0.49346924
1605202548161,1415,0.48486328,1.4743042,-0.21270752
1605202548162,1416,-0.17285156,0.7470093,-0.3098755
1605202548163,1417,0.020019531,0.3673706,0.082458496
1605202548164,1418,0.29077148,0.6810913,-0.36431885
1605202548164,1419,0.10620117,1.8761597,-0.22833252
1605202548165,1420,0.390625,0.9989624,-0.49346924
1605202550705,1421,-0.3244629,0.3944702,0.0040893555
1605202550707,1422,-0.3244629,0.3944702,0.0040893555
1605202550711,1423,-0.005126953,0.28900146,0.024841309
1605202550713,1424,-0.005126953,0.28900146,0.024841309
1605202550717,1425,-0.4345703,1.999939,0.066345215
1605202550720,1426,-0.4345703,1.999939,0.066345215
1605202550723,1427,-0.84155273,0.93133545,0.21820068
1605202550726,1428,-0.84155273,0.93133545,0.21820068
1605202550730,1429,0.036621094,0.21551514,0.1708374
1605202550733,1430,0.036621094,0.21551514,0.1708374
1605202550737,1431,-0.04272461,0.3204956,-0.030090332
1605202550741,1432,-0.04272461,0.3204956,-0.030090332
1605202550743,1433,-0.296875,1.2929077,-0.35186768
1605202550746,1434,-0.296875,1.2929077,-0.35186768
1605202550747,1435,-0.3244629,0.3944702,0.0040893555
1605202550747,1436,-0.68603516,1.9767456,-0.5286255
1605202550750,1437,-0.68603516,1.9767456,-0.5286255
1605202550750,1438,-0.005126953,0.28900146,0.024841309
1605202550750,1439,-0.5292969,0.82977295,0.13446045
1605202550750,1440,-0.5292969,0.82977295,0.13446045
1605202550750,1441,0.49267578,0.37322998,0.020935059
1605202550752,1442,0.49267578,0.37322998,0.020935059
1605202550753,1443,-0.0703125,0.49163818,-0.10040283
1605202550754,1444,-0.0703125,0.49163818,-0.10040283
1605202550754,1445,-0.4345703,1.999939,0.066345215
1605202550755,1446,-0.63134766,1.5905151,-0.4727173
1605202550755,1447,-0.63134766,1.5905151,-0.4727173
1605202550756,1448,0.03100586,1.3131714,-0.15240479
1605202550757,1449,-0.84155273,0.93133545,0.21820068
1605202550757,1450,0.03100586,1.3131714,-0.15240479
1605202550759,1451,0.24633789,0.69158936,-0.37091064
1605202550759,1452,0.036621094,0.21551514,0.1708374
1605202550759,1453,0.24633789,0.69158936,-0.37091064
1605202550761,1454,-0.076171875,0.80096436,0.18597412
1605202550761,1455,-0.04272461,0.3204956,-0.030090332
1605202550761,1456,-0.076171875,0.80096436,0.18597412
1605202550763,1457,0.23022461,1.0109253,-0.36260986
1605202550763,1458,-0.296875,1.2929077,-0.35186768
1605202550764,1459,0.23022461,1.0109253,-0.36260986
1605202550764,1460,0.20825195,1.336853,-0.13946533
1605202550765,1461,0.20825195,1.336853,-0.13946533
1605202550766,1462,0.30249023,0.8505249,-0.26812744
1605202550766,1463,0.30249023,0.8505249,-0.26812744
1605202550767,1464,0.13916016,0.4376831,-0.20977783
1605202550768,1465,0.13916016,0.4376831,-0.20977783
1605202550768,1466,-0.095458984,0.73773193,0.09246826
1605202550769,1467,-0.095458984,0.73773193,0.09246826
1605202550770,1468,0.18481445,1.4733276,-0.6958618
1605202550770,1469,-0.68603516,1.9767456,-0.5286255
1605202550772,1470,0.18481445,1.4733276,-0.6958618
1605202550773,1471,0.55322266,1.09906,-0.16558838
1605202550773,1472,-0.5292969,0.82977295,0.13446045
1605202550773,1473,0.55322266,1.09906,-0.16558838
1605202550774,1474,0.0012207031,0.7560425,0.023864746
1605202550774,1475,0.49267578,0.37322998,0.020935059
1605202550775,1476,0.0012207031,0.7560425,0.023864746
1605202550776,1477,-0.08886719,0.6112671,0.113220215
1605202550777,1478,-0.0703125,0.49163818,-0.10040283
1605202550780,1479,-0.08886719,0.6112671,0.113220215
1605202550780,1480,0.39086914,1.0646362,-0.3394165
1605202550781,1481,-0.63134766,1.5905151,-0.4727173
1605202550781,1482,0.39086914,1.0646362,-0.3394165
1605202550781,1483,0.03100586,1.3131714,-0.15240479
1605202550781,1484,0.28735352,1.1442261,-0.20220947
1605202550782,1485,0.28735352,1.1442261,-0.20220947
1605202550782,1486,0.24633789,0.69158936,-0.37091064
1605202550782,1487,-0.06298828,1.008728,-0.41973877
1605202550785,1488,-0.076171875,0.80096436,0.18597412
1605202550785,1489,-0.06298828,1.008728,-0.41973877
1605202550785,1490,-0.09277344,0.74383545,-0.14923096
1605202550785,1491,-0.17211914,0.73358154,0.25726318
1605202550786,1492,-0.09277344,0.74383545,-0.14923096
1605202550787,1493,0.23022461,1.0109253,-0.36260986
1605202550787,1494,-0.7126465,1.3629761,-0.0635376
1605202550787,1495,-0.17211914,0.73358154,0.25726318
1605202550788,1496,-0.6760254,0.9755249,0.2489624
1605202550788,1497,0.20825195,1.336853,-0.13946533
1605202550789,1498,-0.7126465,1.3629761,-0.0635376
1605202550789,1499,-0.05493164,0.4232788,0.18939209
1605202550790,1500,0.30249023,0.8505249,-0.26812744
1605202550790,1501,-0.6760254,0.9755249,0.2489624
1605202550791,1502,0.13916016,0.4376831,-0.20977783
1605202550791,1503,-0.05493164,0.4232788,0.18939209
1605202550792,1504,-0.095458984,0.73773193,0.09246826
1605202550793,1505,0.18481445,1.4733276,-0.6958618
1605202550794,1506,0.55322266,1.09906,-0.16558838
1605202550795,1507,0.0012207031,0.7560425,0.023864746
1605202550795,1508,-0.08886719,0.6112671,0.113220215
1605202550796,1509,0.39086914,1.0646362,-0.3394165
1605202550797,1510,0.28735352,1.1442261,-0.20220947
1605202550798,1511,-0.06298828,1.008728,-0.41973877
1605202550799,1512,-0.09277344,0.74383545,-0.14923096
1605202550800,1513,-0.17211914,0.73358154,0.25726318
1605202550801,1514,-0.7126465,1.3629761,-0.0635376
1605202550802,1515,-0.6760254,0.9755249,0.2489624
1605202550802,1516,-0.05493164,0.4232788,0.18939209
1605202553286,1517,-0.06542969,0.5001831,0.10687256
1605202553289,1518,-0.06542969,0.5001831,0.10687256
1605202553291,1519,-0.1262207,1.1144409,0.18353271
1605202553293,1520,-0.1262207,1.1144409,0.18353271
1605202553297,1521,-0.37280273,1.6491089,-0.45465088
1605202553300,1522,-0.37280273,1.6491089,-0.45465088
1605202553302,1523,-0.8376465,1.0599976,0.46966553
1605202553304,1524,-0.8376465,1.0599976,0.46966553
1605202553304,1525,0.41308594,0.7670288,-0.09967041
1605202553307,1526,-0.06542969,0.5001831,0.10687256
1605202553307,1527,0.024658203,0.48675537,0.3295288
1605202553311,1528,0.41308594,0.7670288,-0.09967041
1605202553311,1529,0.10498047,0.9857788,-0.29742432
1605202553311,1530,-0.1262207,1.1144409,0.18353271
1605202553313,1531,0.024658203,0.48675537,0.3295288
1605202553314,1532,-0.37280273,1.6491089,-0.45465088
1605202553314,1533,-1.0512695,1.2050171,-0.0017700195
1605202553314,1534,0.10498047,0.9857788,-0.29742432
1605202553315,1535,0.6335449,1.1344604,-0.15533447
1605202553317,1536,-1.0512695,1.2050171,-0.0017700195
1605202553317,1537,0.32226562,0.87323,0.097839355
1605202553318,1538,0.6335449,1.1344604,-0.15533447
1605202553318,1539,-0.13256836,0.9118042,0.21258545
1605202553320,1540,-0.8376465,1.0599976,0.46966553
1605202553320,1541,0.32226562,0.87323,0.097839355
1605202553321,1542,-0.068359375,0.79364014,-0.12701416
1605202553321,1543,0.41308594,0.7670288,-0.09967041
1605202553322,1544,0.2788086,1.1647339,-0.027404785
1605202553323,1545,0.024658203,0.48675537,0.3295288
1605202553325,1546,0.42797852,1.0907593,-0.105529785
1605202553325,1547,0.10498047,0.9857788,-0.29742432
1605202553325,1548,-0.13256836,0.9118042,0.21258545
1605202553327,1549,0.107421875,0.8253784,-0.16217041
1605202553328,1550,-0.068359375,0.79364014,-0.12701416
1605202553328,1551,-0.2770996,0.8727417,0.017028809
1605202553330,1552,0.2788086,1.1647339,-0.027404785
1605202553331,1553,-1.0512695,1.2050171,-0.0017700195
1605202553332,1554,-0.09082031,1.0089722,0.09295654
1605202553333,1555,0.42797852,1.0907593,-0.105529785
1605202553333,1556,0.6335449,1.1344604,-0.15533447
1605202553333,1557,0.107421875,0.8253784,-0.16217041
1605202553334,1558,0.32226562,0.87323,0.097839355
1605202553336,1559,-0.2770996,0.8727417,0.017028809
1605202553336,1560,-0.13256836,0.9118042,0.21258545
1605202553337,1561,-0.5319824,1.3622437,0.13250732
1605202553337,1562,-0.09082031,1.0089722,0.09295654
1605202553337,1563,-0.080078125,0.62664795,0.22088623
1605202553338,1564,-0.5319824,1.3622437,0.13250732
1605202553341,1565,-0.080078125,0.62664795,0.22088623
1605202553341,1566,-0.34838867,0.60980225,0.18890381
1605202553342,1567,-0.34838867,0.60980225,0.18890381
1605202553342,1568,-0.5793457,0.58221436,0.29364014
1605202553342,1569,-0.5793457,0.58221436,0.29364014
1605202553344,1570,-0.068359375,0.79364014,-0.12701416
1605202553344,1571,-0.39941406,0.9203491,0.2682495
1605202553344,1572,-0.39941406,0.9203491,0.2682495
1605202553345,1573,0.2788086,1.1647339,-0.027404785
1605202553345,1574,-0.4321289,1.2965698,0.24310303
1605202553346,1575,-0.4321289,1.2965698,0.24310303
1605202553346,1576,0.42797852,1.0907593,-0.105529785
1605202553348,1577,0.107421875,0.8253784,-0.16217041
1605202553348,1578,0.1352539,0.9032593,0.09173584
1605202553349,1579,0.1352539,0.9032593,0.09173584
1605202553351,1580,-0.2770996,0.8727417,0.017028809
1605202553351,1581,0.32885742,1.0109253,-0.034240723
1605202553351,1582,0.32885742,1.0109253,-0.034240723
1605202553352,1583,-0.15722656,0.8331909,-0.027648926
1605202553353,1584,-0.15722656,0.8331909,-0.027648926
1605202553354,1585,-0.09082031,1.0089722,0.09295654
1605202553356,1586,0.1105957,0.93182373,-0.18170166
1605202553356,1587,0.1105957,0.93182373,-0.18170166
1605202553356,1588,-0.5319824,1.3622437,0.13250732
1605202553357,1589,0.17749023,1.0333862,-0.01373291
1605202553357,1590,0.17749023,1.0333862,-0.01373291
1605202553359,1591,-0.080078125,0.62664795,0.22088623
1605202553359,1592,-0.17260742,0.91278076,-0.116760254
1605202553359,1593,-0.17260742,0.91278076,-0.116760254
1605202553360,1594,-0.34838867,0.60980225,0.18890381
1605202553361,1595,0.2163086,1.0216675,-0.11920166
1605202553362,1596,0.2163086,1.0216675,-0.11920166
1605202553362,1597,-0.5793457,0.58221436,0.29364014
1605202553365,1598,0.018066406,1.3495483,-0.30010986
1605202553365,1599,0.018066406,1.3495483,-0.30010986
1605202553366,1600,-0.39941406,0.9203491,0.2682495
1605202553367,1601,-0.25927734,0.67645264,0.34246826
1605202553367,1602,-0.4321289,1.2965698,0.24310303
1605202553367,1603,-0.25927734,0.67645264,0.34246826
1605202553367,1604,0.1352539,0.9032593,0.09173584
1605202553368,1605,0.32885742,1.0109253,-0.034240723
1605202553370,1606,-0.15722656,0.8331909,-0.027648926
1605202553373,1607,0.1105957,0.93182373,-0.18170166
1605202553373,1608,0.17749023,1.0333862,-0.01373291
1605202553373,1609,-0.17260742,0.91278076,-0.116760254
1605202553374,1610,0.2163086,1.0216675,-0.11920166
1605202553376,1611,0.018066406,1.3495483,-0.30010986
1605202553377,1612,-0.25927734,0.67645264,0.34246826
1605202555871,1613,-0.014160156,0.45037842,-0.005432129
1605202555874,1614,-0.014160156,0.45037842,-0.005432129
1605202555878,1615,-0.13354492,0.81585693,0.20013428
1605202555881,1616,-0.13354492,0.81585693,0.20013428
1605202555885,1617,-0.14672852,1.6935425,0.06365967
1605202555887,1618,-0.14672852,1.6935425,0.06365967
1605202555890,1619,-0.45996094,0.94573975,0.41619873
1605202555894,1620,-0.45996094,0.94573975,0.41619873
1605202555897,1621,0.11694336,0.5192261,0.0016479492
1605202555901,1622,0.11694336,0.5192261,0.0016479492
1605202555902,1623,-0.17822266,0.68792725,0.1564331
1605202555904,1624,-0.17822266,0.68792725,0.1564331
1605202555905,1625,-0.47851562,1.178894,0.2453003
1605202555906,1626,-0.47851562,1.178894,0.2453003
1605202555907,1627,-0.014160156,0.45037842,-0.005432129
1605202555908,1628,-0.41479492,1.1144409,0.2333374
1605202555909,1629,-0.13354492,0.81585693,0.20013428
1605202555910,1630,-0.41479492,1.1144409,0.2333374
1605202555911,1631,-0.33813477,0.68792725,0.09906006
1605202555913,1632,-0.33813477,0.68792725,0.09906006
1605202555913,1633,-0.31396484,0.680603,0.12420654
1605202555913,1634,-0.14672852,1.6935425,0.06365967
1605202555914,1635,-0.31396484,0.680603,0.12420654
1605202555915,1636,-0.45996094,0.94573975,0.41619873
1605202555916,1637,-0.37524414,1.1488647,0.00579834
1605202555918,1638,0.11694336,0.5192261,0.0016479492
1605202555918,1639,-0.07543945,0.9476929,0.15252686
1605202555919,1640,-0.17822266,0.68792725,0.1564331
1605202555920,1641,-0.37524414,1.1488647,0.00579834
1605202555921,1642,-0.47851562,1.178894,0.2453003
1605202555921,1643,-0.07543945,0.9476929,0.15252686
1605202555922,1644,-0.41479492,1.1144409,0.2333374
1605202555922,1645,0.36938477,1.2504272,-0.21295166
1605202555923,1646,0.36938477,1.2504272,-0.21295166
1605202555923,1647,-0.07470703,0.7953491,0.08660889
1605202555926,1648,-0.07470703,0.7953491,0.08660889
1605202555927,1649,-0.33813477,0.68792725,0.09906006
1605202555927,1650,-0.10961914,0.87127686,-0.24395752
1605202555927,1651,-0.10961914,0.87127686,-0.24395752
1605202555927,1652,-0.31396484,0.680603,0.12420654
1605202555928,1653,0.43603516,0.9550171,-0.28009033
1605202555929,1654,0.34326172,0.89178467,-0.21832275
1605202555929,1655,-0.37524414,1.1488647,0.00579834
1605202555930,1656,0.43603516,0.9550171,-0.28009033
1605202555932,1657,0.16796875,0.8746948,-0.17193604
1605202555932,1658,0.34326172,0.89178467,-0.21832275
1605202555933,1659,-0.07543945,0.9476929,0.15252686
1605202555933,1660,0.16796875,0.8746948,-0.17193604
1605202555933,1661,0.29907227,0.9088745,-0.13140869
1605202555934,1662,0.36938477,1.2504272,-0.21295166
1605202555934,1663,0.29907227,0.9088745,-0.13140869
1605202555934,1664,0.1977539,1.0206909,-0.2810669
1605202555935,1665,-0.07470703,0.7953491,0.08660889
1605202555936,1666,0.1977539,1.0206909,-0.2810669
1605202555937,1667,0.23583984,0.9249878,-0.3027954
1605202555937,1668,-0.10961914,0.87127686,-0.24395752
1605202555937,1669,0.25170898,0.638855,-0.23297119
1605202555939,1670,0.23583984,0.9249878,-0.3027954
1605202555939,1671,0.43603516,0.9550171,-0.28009033
1605202555939,1672,0.27197266,0.7753296,-0.18951416
1605202555941,1673,0.25170898,0.638855,-0.23297119
1605202555942,1674,0.34326172,0.89178467,-0.21832275
1605202555942,1675,0.4020996,1.2741089,-0.16143799
1605202555942,1676,0.27197266,0.7753296,-0.18951416
1605202555943,1677,0.16796875,0.8746948,-0.17193604
1605202555944,1678,0.4020996,1.2741089,-0.16143799
1605202555945,1679,0.29907227,0.9088745,-0.13140869
1605202555945,1680,0.13623047,1.2267456,-0.12432861
1605202555945,1681,0.13623047,1.2267456,-0.12432861
1605202555945,1682,0.1977539,1.0206909,-0.2810669
1605202555946,1683,-0.028564453,0.7575073,-0.082092285
1605202555947,1684,0.23583984,0.9249878,-0.3027954
1605202555947,1685,0.35253906,0.98651123,-0.10699463
1605202555952,1686,0.25170898,0.638855,-0.23297119
1605202555953,1687,0.28955078,0.9994507,-0.061340332
1605202555962,1688,-0.028564453,0.7575073,-0.082092285
1605202555962,1689,0.27197266,0.7753296,-0.18951416
1605202555962,1690,0.4020996,1.2741089,-0.16143799
1605202555963,1691,-0.03125,1.2702026,0.038757324
1605202555964,1692,0.13623047,1.2267456,-0.12432861
1605202555964,1693,0.030761719,1.0309448,0.1071167
1605202555964,1694,0.35253906,0.98651123,-0.10699463
1605202555964,1695,-0.028564453,0.7575073,-0.082092285
1605202555965,1696,-0.032470703,0.72821045,0.09637451
1605202555967,1697,0.28955078,0.9994507,-0.061340332
1605202555969,1698,0.35253906,0.98651123,-0.10699463
1605202555970,1699,0.12133789,0.62664795,0.10272217
1605202555970,1700,0.28955078,0.9994507,-0.061340332
1605202555970,1701,-0.03125,1.2702026,0.038757324
1605202555971,1702,0.030761719,1.0309448,0.1071167
1605202555972,1703,-0.03125,1.2702026,0.038757324
1605202555972,1704,-0.032470703,0.72821045,0.09637451
1605202555973,1705,0.030761719,1.0309448,0.1071167
1605202555973,1706,0.12133789,0.62664795,0.10272217
1605202555974,1707,-0.032470703,0.72821045,0.09637451
1605202555975,1708,0.12133789,0.62664795,0.10272217
1605202558450,1709,-0.36645508,0.90130615,-0.2498169
1605202558451,1710,-0.2475586,1.2352905,-0.15655518
1605202558452,1711,-0.36645508,0.90130615,-0.2498169
1605202558453,1712,-0.2475586,1.2352905,-0.15655518
1605202558453,1713,-0.36645508,0.90130615,-0.2498169
1605202558454,1714,0.2783203,1.0829468,-0.19781494
1605202558455,1715,0.099365234,0.70477295,0.046569824
1605202558456,1716,-0.2475586,1.2352905,-0.15655518
1605202558456,1717,0.2783203,1.0829468,-0.19781494
1605202558457,1718,0.2783203,1.0829468,-0.19781494
1605202558458,1719,0.099365234,0.70477295,0.046569824
1605202558458,1720,0.21069336,0.902771,-0.08746338
1605202558459,1721,0.099365234,0.70477295,0.046569824
1605202558460,1722,0.21069336,0.902771,-0.08746338
1605202558461,1723,0.1796875,1.2128296,-0.23980713
1605202558462,1724,0.1796875,1.2128296,-0.23980713
1605202558463,1725,0.23168945,0.9682007,-0.25787354
1605202558464,1726,0.23168945,0.9682007,-0.25787354
1605202558464,1727,0.17700195,0.6598511,-0.17681885
1605202558465,1728,0.17700195,0.6598511,-0.17681885
1605202558465,1729,0.21069336,0.902771,-0.08746338
1605202558466,1730,0.16186523,1.0775757,-0.13067627
1605202558466,1731,0.13623047,0.993103,0.046569824
1605202558467,1732,0.17919922,0.84295654,-0.1951294
1605202558468,1733,0.1796875,1.2128296,-0.23980713
1605202558469,1734,0.35620117,0.87713623,-0.11138916
1605202558470,1735,0.16186523,1.0775757,-0.13067627
1605202558470,1736,0.23168945,0.9682007,-0.25787354
1605202558470,1737,0.23730469,1.0817261,-0.059387207
1605202558471,1738,0.17700195,0.6598511,-0.17681885
1605202558471,1739,0.13623047,0.993103,0.046569824
1605202558471,1740,-0.23144531,1.2335815,-0.09698486
1605202558472,1741,0.17919922,0.84295654,-0.1951294
1605202558472,1742,-0.015380859,1.0145874,-0.094055176
1605202558473,1743,0.16186523,1.0775757,-0.13067627
1605202558473,1744,0.35620117,0.87713623,-0.11138916
1605202558473,1745,0.034423828,0.7758179,-0.12701416
1605202558474,1746,0.13623047,0.993103,0.046569824
1605202558474,1747,0.23730469,1.0817261,-0.059387207
1605202558474,1748,-0.0041503906,0.9977417,-0.0491333
1605202558475,1749,-0.23144531,1.2335815,-0.09698486
1605202558476,1750,-0.15942383,1.0348511,-0.08135986
1605202558476,1751,0.17919922,0.84295654,-0.1951294
1605202558481,1752,-0.015380859,1.0145874,-0.094055176
1605202558481,1753,-0.3605957,0.87664795,0.062927246
1605202558481,1754,0.35620117,0.87713623,-0.11138916
1605202558481,1755,0.034423828,0.7758179,-0.12701416
1605202558482,1756,-0.2253418,0.73895264,0.14910889
1605202558482,1757,-0.0041503906,0.9977417,-0.0491333
1605202558482,1758,0.23730469,1.0817261,-0.059387207
1605202558482,1759,-0.15942383,1.0348511,-0.08135986
1605202558482,1760,-0.28466797,0.7975464,0.18817139
1605202558482,1761,-0.3605957,0.87664795,0.062927246
1605202558482,1762,-0.23144531,1.2335815,-0.09698486
1605202558482,1763,-0.2253418,0.73895264,0.14910889
1605202558482,1764,-0.3413086,0.92230225,0.19012451
1605202558482,1765,-0.28466797,0.7975464,0.18817139
1605202558482,1766,-0.015380859,1.0145874,-0.094055176
1605202558483,1767,-0.3413086,0.92230225,0.19012451
1605202558483,1768,-0.23339844,1.309021,0.04534912
1605202558483,1769,-0.23339844,1.309021,0.04534912
1605202558483,1770,0.034423828,0.7758179,-0.12701416
1605202558484,1771,-0.107421875,0.8024292,0.12982178
1605202558484,1772,-0.107421875,0.8024292,0.12982178
1605202558485,1773,-0.0041503906,0.9977417,-0.0491333
1605202558485,1774,0.34765625,0.9467163,-0.1116333
1605202558485,1775,-0.15942383,1.0348511,-0.08135986
1605202558485,1776,-0.040283203,0.9411011,-0.08062744
1605202558485,1777,0.34765625,0.9467163,-0.1116333
1605202558486,1778,-0.3605957,0.87664795,0.062927246
1605202558486,1779,-0.040283203,0.9411011,-0.08062744
1605202558486,1780,0.16821289,0.8656616,-0.28155518
1605202558487,1781,0.16821289,0.8656616,-0.28155518
1605202558487,1782,-0.2253418,0.73895264,0.14910889
1605202558487,1783,0.42773438,0.9437866,-0.3164673
1605202558488,1784,0.42773438,0.9437866,-0.3164673
1605202558488,1785,-0.28466797,0.7975464,0.18817139
1605202558488,1786,0.12231445,0.8986206,-0.18414307
1605202558489,1787,0.12231445,0.8986206,-0.18414307
1605202558489,1788,-0.3413086,0.92230225,0.19012451
1605202558489,1789,0.2800293,0.93963623,-0.15045166
1605202558489,1790,0.2800293,0.93963623,-0.15045166
1605202558490,1791,-0.23339844,1.309021,0.04534912
1605202558490,1792,0.3005371,0.9125366,-0.18780518
1605202558491,1793,0.3005371,0.9125366,-0.18780518
1605202558491,1794,0.23583984,1.0084839,-0.28619385
1605202558492,1795,-0.107421875,0.8024292,0.12982178
1605202558492,1796,0.23583984,1.0084839,-0.28619385
1605202558493,1797,0.34765625,0.9467163,-0.1116333
1605202558496,1798,-0.040283203,0.9411011,-0.08062744
1605202558496,1799,0.16821289,0.8656616,-0.28155518
1605202558497,1800,0.42773438,0.9437866,-0.3164673
1605202558497,1801,0.12231445,0.8986206,-0.18414307
1605202558498,1802,0.2800293,0.93963623,-0.15045166
1605202558498,1803,0.3005371,0.9125366,-0.18780518
1605202558499,1804,0.23583984,1.0084839,-0.28619385
1605202561041,1805,0.09033203,0.92401123,-0.25567627
1605202561041,1806,0.09033203,0.92401123,-0.25567627
1605202561041,1807,0.09033203,0.92401123,-0.25567627
1605202561042,1808,-0.025634766,0.8776245,-0.1116333
1605202561042,1809,-0.025634766,0.8776245,-0.1116333
1605202561042,1810,-0.17358398,1.0038452,-0.008117676
1605202561044,1811,-0.17358398,1.0038452,-0.008117676
1605202561044,1812,-0.025634766,0.8776245,-0.1116333
1605202561045,1813,-0.27661133,1.0197144,0.054626465
1605202561046,1814,-0.27661133,1.0197144,0.054626465
1605202561050,1815,-0.17358398,1.0038452,-0.008117676
1605202561050,1816,-0.3173828,0.7692261,0.05609131
1605202561053,1817,-0.3173828,0.7692261,0.05609131
1605202561053,1818,-0.11767578,0.64520264,0.020446777
1605202561057,1819,-0.27661133,1.0197144,0.054626465
1605202561059,1820,-0.05908203,1.3461304,0.08441162
1605202561059,1821,-0.3173828,0.7692261,0.05609131
1605202561062,1822,-0.11767578,0.64520264,0.020446777
1605202561066,1823,-0.11767578,0.64520264,0.020446777
1605202561069,1824,-0.05908203,1.3461304,0.08441162
1605202561071,1825,-0.05908203,1.3461304,0.08441162
1605202561071,1826,-0.49658203,1.1288452,-0.06939697
1605202561073,1827,-0.49658203,1.1288452,-0.06939697
1605202561074,1828,-0.20336914,0.7418823,0.06512451
1605202561075,1829,-0.20336914,0.7418823,0.06512451
1605202561075,1830,-0.107910156,0.9418335,0.15106201
1605202561076,1831,-0.49658203,1.1288452,-0.06939697
1605202561077,1832,-0.1940918,0.8432007,-0.020080566
1605202561077,1833,-0.107910156,0.9418335,0.15106201
1605202561079,1834,-0.20654297,0.9130249,-0.028137207
1605202561079,1835,-0.20336914,0.7418823,0.06512451
1605202561079,1836,-0.23999023,0.9640503,-0.06573486
1605202561081,1837,-0.1940918,0.8432007,-0.020080566
1605202561081,1838,-0.14990234,0.9730835,-0.16949463
1605202561081,1839,-0.107910156,0.9418335,0.15106201
1605202561082,1840,-0.20654297,0.9130249,-0.028137207
1605202561083,1841,-0.1940918,0.8432007,-0.020080566
1605202561084,1842,-0.23999023,0.9640503,-0.06573486
1605202561085,1843,-0.20654297,0.9130249,-0.028137207
1605202561086,1844,-0.14990234,0.9730835,-0.16949463
1605202561087,1845,-0.23999023,0.9640503,-0.06573486
1605202561088,1846,-0.099853516,1.0011597,-0.13018799
1605202561089,1847,-0.14990234,0.9730835,-0.16949463
1605202561090,1848,-0.099853516,1.0011597,-0.13018799
1605202561092,1849,-0.12890625,0.9711304,-0.19805908
1605202561092,1850,-0.099853516,1.0011597,-0.13018799
1605202561093,1851,-0.12890625,0.9711304,-0.19805908
1605202561093,1852,-0.016113281,0.9940796,-0.17901611
1605202561094,1853,-0.016113281,0.9940796,-0.17901611
1605202561095,1854,0.34106445,0.9279175,-0.22735596
1605202561095,1855,0.34106445,0.9279175,-0.22735596
1605202561096,1856,0.24853516,0.89276123,-0.19390869
1605202561097,1857,0.24853516,0.89276123,-0.19390869
1605202561097,1858,0.22241211,0.92401123,-0.11138916
1605202561098,1859,0.22241211,0.92401123,-0.11138916
1605202561099,1860,-0.12890625,0.9711304,-0.19805908
1605202561099,1861,0.3137207,0.8539429,-0.26715088
1605202561100,1862,-0.016113281,0.9940796,-0.17901611
1605202561100,1863,0.3137207,0.8539429,-0.26715088
1605202561101,1864,0.2915039,0.93963623,-0.23028564
1605202561102,1865,0.34106445,0.9279175,-0.22735596
1605202561102,1866,0.2915039,0.93963623,-0.23028564
1605202561103,1867,0.27026367,0.9508667,-0.27886963
1605202561103,1868,0.24853516,0.89276123,-0.19390869
1605202561104,1869,0.27026367,0.9508667,-0.27886963
1605202561104,1870,0.22241211,0.92401123,-0.11138916
1605202561105,1871,0.23266602,0.7518921,-0.23321533
1605202561105,1872,0.23266602,0.7518921,-0.23321533
1605202561106,1873,0.24633789,0.7484741,-0.22857666
1605202561107,1874,0.3137207,0.8539429,-0.26715088
1605202561107,1875,0.24633789,0.7484741,-0.22857666
1605202561108,1876,0.2915039,0.93963623,-0.23028564
1605202561109,1877,0.24414062,1.0575562,-0.22027588
1605202561109,1878,0.24414062,1.0575562,-0.22027588
1605202561110,1879,0.39648438,1.1000366,-0.2300415
1605202561111,1880,0.27026367,0.9508667,-0.27886963
1605202561111,1881,0.39648438,1.1000366,-0.2300415
1605202561111,1882,0.19238281,0.9664917,-0.1729126
1605202561111,1883,0.23266602,0.7518921,-0.23321533
1605202561112,1884,0.19238281,0.9664917,-0.1729126
1605202561113,1885,-0.103271484,0.7592163,-0.07989502
1605202561113,1886,0.24633789,0.7484741,-0.22857666
1605202561113,1887,-0.103271484,0.7592163,-0.07989502
1605202561114,1888,0.53125,1.2526245,0.047790527
1605202561114,1889,0.24414062,1.0575562,-0.22027588
1605202561114,1890,0.53125,1.2526245,0.047790527
1605202561116,1891,0.1459961,1.1293335,0.0040893555
1605202561116,1892,0.39648438,1.1000366,-0.2300415
1605202561117,1893,0.1459961,1.1293335,0.0040893555
1605202561117,1894,-0.103515625,0.9371948,0.22821045
1605202561118,1895,0.19238281,0.9664917,-0.1729126
1605202561118,1896,-0.103515625,0.9371948,0.22821045
1605202561119,1897,-0.103271484,0.7592163,-0.07989502
1605202561120,1898,0.53125,1.2526245,0.047790527
1605202561122,1899,0.1459961,1.1293335,0.0040893555
1605202561123,1900,-0.103515625,0.9371948,0.22821045
1605202563620,1901,-0.032958984,0.6774292,0.20526123
1605202563620,1902,-0.032958984,0.6774292,0.20526123
1605202563621,1903,-0.020019531,0.59246826,0.120788574
1605202563621,1904,-0.032958984,0.6774292,0.20526123
1605202563622,1905,-0.020019531,0.59246826,0.120788574
1605202563622,1906,-0.18847656,1.0848999,-0.09576416
1605202563624,1907,-0.18847656,1.0848999,-0.09576416
1605202563624,1908,-0.5053711,0.9454956,-0.2053833
1605202563624,1909,-0.020019531,0.59246826,0.120788574
1605202563625,1910,0.33447266,1.2706909,-0.18560791
1605202563626,1911,-0.18847656,1.0848999,-0.09576416
1605202563626,1912,0.47265625,0.8673706,-0.14776611
1605202563627,1913,-0.5053711,0.9454956,-0.2053833
1605202563630,1914,0.33447266,1.2706909,-0.18560791
1605202563630,1915,-0.5053711,0.9454956,-0.2053833
1605202563631,1916,0.47265625,0.8673706,-0.14776611
1605202563631,1917,-0.15527344,0.83099365,-0.02545166
1605202563634,1918,0.2800293,0.8475952,-0.26397705
1605202563634,1919,0.33447266,1.2706909,-0.18560791
1605202563635,1920,-0.15527344,0.83099365,-0.02545166
1605202563635,1921,0.30908203,1.1188354,-0.331604
1605202563635,1922,0.47265625,0.8673706,-0.14776611
1605202563636,1923,0.21459961,0.9359741,-0.08648682
1605202563638,1924,0.15771484,0.85369873,-0.1572876
1605202563639,1925,-0.15527344,0.83099365,-0.02545166
1605202563639,1926,0.23608398,0.98724365,-0.047180176
1605202563639,1927,0.2800293,0.8475952,-0.26397705
1605202563639,1928,0.15966797,0.9332886,-0.090148926
1605202563639,1929,0.2800293,0.8475952,-0.26397705
1605202563641,1930,0.30908203,1.1188354,-0.331604
1605202563641,1931,0.1965332,0.9059448,-0.086242676
1605202563643,1932,0.29052734,0.887146,-0.11529541
1605202563643,1933,0.30908203,1.1188354,-0.331604
1605202563644,1934,0.21459961,0.9359741,-0.08648682
1605202563645,1935,0.28222656,0.91864014,-0.10845947
1605202563645,1936,0.15771484,0.85369873,-0.1572876
1605202563646,1937,0.21459961,0.9359741,-0.08648682
1605202563646,1938,0.23608398,0.98724365,-0.047180176
1605202563647,1939,0.1352539,0.98602295,-0.0413208
1605202563648,1940,0.15771484,0.85369873,-0.1572876
1605202563648,1941,0.15966797,0.9332886,-0.090148926
1605202563648,1942,-0.036865234,1.2040405,-0.042785645
1605202563648,1943,-0.1352539,1.0873413,-0.065979004
1605202563649,1944,-0.041992188,0.8944702,-0.11505127
1605202563651,1945,0.1965332,0.9059448,-0.086242676
1605202563651,1946,0.23608398,0.98724365,-0.047180176
1605202563651,1947,0.29052734,0.887146,-0.11529541
1605202563652,1948,0.28222656,0.91864014,-0.10845947
1605202563652,1949,0.15966797,0.9332886,-0.090148926
1605202563652,1950,-0.10668945,0.74554443,-0.036193848
1605202563652,1951,0.1352539,0.98602295,-0.0413208
1605202563654,1952,-0.3486328,0.9191284,0.1293335
1605202563655,1953,0.1965332,0.9059448,-0.086242676
1605202563655,1954,-0.036865234,1.2040405,-0.042785645
1605202563655,1955,-0.19580078,1.0883179,0.26654053
1605202563655,1956,0.29052734,0.887146,-0.11529541
1605202563655,1957,-0.1352539,1.0873413,-0.065979004
1605202563655,1958,-0.080566406,0.701355,0.20965576
1605202563657,1959,-0.041992188,0.8944702,-0.11505127
1605202563657,1960,0.28222656,0.91864014,-0.10845947
1605202563657,1961,-0.2602539,0.7074585,0.23944092
1605202563658,1962,-0.10668945,0.74554443,-0.036193848
1605202563659,1963,0.1352539,0.98602295,-0.0413208
1605202563660,1964,-0.3486328,0.9191284,0.1293335
1605202563661,1965,-0.036865234,1.2040405,-0.042785645
1605202563661,1966,-0.3359375,1.3554077,-0.020568848
1605202563661,1967,-0.19580078,1.0883179,0.26654053
1605202563662,1968,0.0041503906,0.8200073,0.20721436
1605202563663,1969,-0.1352539,1.0873413,-0.065979004
1605202563663,1970,-0.080566406,0.701355,0.20965576
1605202563663,1971,0.34936523,0.8602905,-0.42315674
1605202563664,1972,-0.2602539,0.7074585,0.23944092
1605202563665,1973,-0.42651367,1.0790405,0.06341553
1605202563665,1974,-0.3359375,1.3554077,-0.020568848
1605202563666,1975,-0.041992188,0.8944702,-0.11505127
1605202563666,1976,0.0041503906,0.8200073,0.20721436
1605202563667,1977,0.2849121,0.92523193,-0.29693604
1605202563667,1978,-0.10668945,0.74554443,-0.036193848
1605202563667,1979,0.34936523,0.8602905,-0.42315674
1605202563669,1980,-0.42651367,1.0790405,0.06341553
1605202563669,1981,0.21972656,0.9110718,-0.23834229
1605202563670,1982,-0.3486328,0.9191284,0.1293335
1605202563670,1983,0.016357422,0.92059326,-0.22955322
1605202563670,1984,0.2849121,0.92523193,-0.29693604
1605202563670,1985,-0.19580078,1.0883179,0.26654053
1605202563671,1986,0.21972656,0.9110718,-0.23834229
1605202563671,1987,-0.080566406,0.701355,0.20965576
1605202563671,1988,0.016357422,0.92059326,-0.22955322
1605202563672,1989,-0.2602539,0.7074585,0.23944092
1605202563673,1990,-0.3359375,1.3554077,-0.020568848
1605202563673,1991,0.0041503906,0.8200073,0.20721436
1605202563674,1992,0.34936523,0.8602905,-0.42315674
1605202563675,1993,-0.42651367,1.0790405,0.06341553
1605202563676,1994,0.2849121,0.92523193,-0.29693604
1605202563676,1995,0.21972656,0.9110718,-0.23834229
1605202563677,1996,0.016357422,0.92059326,-0.22955322
1605202566206,1997,0.28198242,0.94696045,-0.29742432
1605202566206,1998,0.28198242,0.94696045,-0.29742432
1605202566206,1999,0.28198242,0.94696045,-0.29742432
1605202566207,2000,0.2993164,0.9503784,-0.24127197
1605202566207,2001,0.2993164,0.9503784,-0.24127197
1605202566207,2002,0.2993164,0.9503784,-0.24127197
1605202566209,2003,0.17041016,0.85736084,-0.1963501
1605202566209,2004,0.17041016,0.85736084,-0.1963501
1605202566209,2005,0.17041016,0.85736084,-0.1963501
1605202566210,2006,0.29345703,0.9562378,-0.11456299
1605202566211,2007,0.29345703,0.9562378,-0.11456299
1605202566212,2008,0.20996094,1.0836792,-0.2913208
1605202566213,2009,0.20996094,1.0836792,-0.2913208
1605202566214,2010,0.29345703,0.9562378,-0.11456299
1605202566215,2011,-0.00390625,1.0336304,-0.17462158
1605202566217,2012,0.20996094,1.0836792,-0.2913208
1605202566217,2013,0.15966797,0.8397827,-0.11456299
1605202566217,2014,-0.00390625,1.0336304,-0.17462158
1605202566218,2015,-0.00390625,1.0336304,-0.17462158
1605202566219,2016,0.15966797,0.8397827,-0.11456299
1605202566220,2017,0.15966797,0.8397827,-0.11456299
1605202566220,2018,-0.23803711,0.7785034,0.2218628
1605202566221,2019,-0.23803711,0.7785034,0.2218628
1605202566222,2020,-0.23803711,0.7785034,0.2218628
1605202566222,2021,-0.3635254,1.236023,0.11395264
1605202566223,2022,-0.3635254,1.236023,0.11395264
1605202566224,2023,-0.20483398,0.50579834,0.26922607
1605202566225,2024,-0.20483398,0.50579834,0.26922607
1605202566227,2025,-0.3635254,1.236023,0.11395264
1605202566227,2026,-0.022949219,0.6593628,0.44696045
1605202566228,2027,-0.022949219,0.6593628,0.44696045
1605202566229,2028,-0.20483398,0.50579834,0.26922607
1605202566229,2029,-0.033935547,0.99920654,0.2333374
1605202566230,2030,-0.033935547,0.99920654,0.2333374
1605202566230,2031,-0.022949219,0.6593628,0.44696045
1605202566231,2032,-0.5095215,1.4203491,0.04925537
1605202566233,2033,-0.033935547,0.99920654,0.2333374
1605202566233,2034,-0.5095215,1.4203491,0.04925537
1605202566233,2035,-0.53564453,0.8734741,0.49578857
1605202566235,2036,-0.53564453,0.8734741,0.49578857
1605202566235,2037,0.4284668,0.8209839,-0.030090332
1605202566236,2038,-0.5095215,1.4203491,0.04925537
1605202566236,2039,0.4284668,0.8209839,-0.030090332
1605202566237,2040,-0.15625,0.713562,0.2423706
1605202566238,2041,-0.53564453,0.8734741,0.49578857
1605202566239,2042,-0.15625,0.713562,0.2423706
1605202566240,2043,0.4284668,0.8209839,-0.030090332
1605202566240,2044,-0.30322266,1.0006714,0.053894043
1605202566240,2045,-0.30322266,1.0006714,0.053894043
1605202566241,2046,-0.35864258,1.0587769,-0.21173096
1605202566242,2047,-0.15625,0.713562,0.2423706
1605202566243,2048,0.1081543,1.0690308,-0.14141846
1605202566243,2049,-0.35864258,1.0587769,-0.21173096
1605202566247,2050,0.2487793,0.89520264,-0.30645752
1605202566247,2051,-0.30322266,1.0006714,0.053894043
1605202566248,2052,0.1081543,1.0690308,-0.14141846
1605202566248,2053,-0.35864258,1.0587769,-0.21173096
1605202566248,2054,0.13989258,0.93792725,-0.25811768
1605202566248,2055,0.2487793,0.89520264,-0.30645752
1605202566249,2056,0.1081543,1.0690308,-0.14141846
1605202566249,2057,0.12792969,0.9633179,-0.14459229
1605202566249,2058,0.2487793,0.89520264,-0.30645752
1605202566251,2059,0.13989258,0.93792725,-0.25811768
1605202566251,2060,0.13989258,0.93792725,-0.25811768
1605202566254,2061,0.12939453,0.96087646,-0.13922119
1605202566254,2062,0.12792969,0.9633179,-0.14459229
1605202566254,2063,0.12792969,0.9633179,-0.14459229
1605202566255,2064,0.26782227,0.87005615,-0.16998291
1605202566255,2065,0.12939453,0.96087646,-0.13922119
1605202566255,2066,0.17797852,0.9657593,-0.16314697
1605202566256,2067,0.12939453,0.96087646,-0.13922119
1605202566257,2068,0.26782227,0.87005615,-0.16998291
1605202566257,2069,0.1784668,0.90838623,-0.35650635
1605202566258,2070,0.26782227,0.87005615,-0.16998291
1605202566259,2071,0.17797852,0.9657593,-0.16314697
1605202566264,2072,0.2734375,0.8656616,-0.27374268
1605202566264,2073,0.17797852,0.9657593,-0.16314697
1605202566265,2074,0.1784668,0.90838623,-0.35650635
1605202566265,2075,0.22143555,0.9611206,-0.055236816
1605202566265,2076,0.1784668,0.90838623,-0.35650635
1605202566265,2077,0.2734375,0.8656616,-0.27374268
1605202566265,2078,0.20727539,0.90130615,-0.12774658
1605202566265,2079,0.22143555,0.9611206,-0.055236816
1605202566266,2080,0.2734375,0.8656616,-0.27374268
1605202566266,2081,0.24267578,0.8903198,-0.16070557
1605202566266,2082,0.20727539,0.90130615,-0.12774658
1605202566266,2083,0.32006836,0.93011475,-0.1963501
1605202566266,2084,0.22143555,0.9611206,-0.055236816
1605202566266,2085,0.24267578,0.8903198,-0.16070557
1605202566266,2086,0.17993164,1.0123901,-0.2805786
1605202566266,2087,0.20727539,0.90130615,-0.12774658
1605202566266,2088,0.32006836,0.93011475,-0.1963501
1605202566267,2089,0.17993164,1.0123901,-0.2805786
1605202566268,2090,0.24267578,0.8903198,-0.16070557
1605202566268,2091,0.32006836,0.93011475,-0.1963501
1605202566269,2092,0.17993164,1.0123901,-0.2805786
1605202568785,2093,-0.012451172,0.98309326,-0.18267822
1605202568786,2094,-0.012451172,0.98309326,-0.18267822
1605202568789,2095,-0.034423828,0.9430542,-0.25152588
1605202568790,2096,-0.034423828,0.9430542,-0.25152588
1605202568792,2097,-0.012451172,0.98309326,-0.18267822
1605202568797,2098,-0.19970703,1.0092163,-0.066711426
1605202568803,2099,-0.034423828,0.9430542,-0.25152588
1605202568804,2100,-0.19970703,1.0092163,-0.066711426
1605202568804,2101,-0.3076172,0.93963623,0.059753418
1605202568804,2102,-0.19970703,1.0092163,-0.066711426
1605202568805,2103,-0.3076172,0.93963623,0.059753418
1605202568805,2104,-0.3076172,0.93963623,0.059753418
1605202568805,2105,-0.15258789,0.79852295,0.04901123
1605202568805,2106,-0.15258789,0.79852295,0.04901123
1605202568805,2107,-0.15258789,0.79852295,0.04901123
1605202568806,2108,-0.19067383,0.81951904,0.06781006
1605202568806,2109,-0.19067383,0.81951904,0.06781006
1605202568807,2110,-0.08691406,1.0519409,0.029968262
1605202568810,2111,-0.36987305,1.0822144,-0.06964111
1605202568810,2112,-0.08691406,1.0519409,0.029968262
1605202568811,2113,-0.36987305,1.0822144,-0.06964111
1605202568812,2114,-0.2446289,0.9701538,0.11053467
1605202568815,2115,-0.2446289,0.9701538,0.11053467
1605202568815,2116,-0.19067383,0.81951904,0.06781006
1605202568816,2117,0.043701172,0.9281616,0.059265137
1605202568816,2118,0.043701172,0.9281616,0.059265137
1605202568816,2119,-0.08691406,1.0519409,0.029968262
1605202568817,2120,-0.13793945,0.8290405,0.06976318
1605202568817,2121,-0.36987305,1.0822144,-0.06964111
1605202568820,2122,-0.13793945,0.8290405,0.06976318
1605202568821,2123,-0.18359375,0.9286499,0.020446777
1605202568823,2124,-0.2446289,0.9701538,0.11053467
1605202568823,2125,-0.18359375,0.9286499,0.020446777
1605202568823,2126,-0.28320312,0.9545288,-0.03375244
1605202568825,2127,-0.28320312,0.9545288,-0.03375244
1605202568825,2128,-0.19970703,1.0304565,-0.042785645
1605202568826,2129,-0.19970703,1.0304565,-0.042785645
1605202568826,2130,0.043701172,0.9281616,0.059265137
1605202568826,2131,0.033203125,1.0101929,-0.20367432
1605202568827,2132,0.033203125,1.0101929,-0.20367432
1605202568829,2133,0.107177734,0.9796753,-0.23272705
1605202568829,2134,-0.13793945,0.8290405,0.06976318
1605202568829,2135,0.107177734,0.9796753,-0.23272705
1605202568829,2136,-0.18359375,0.9286499,0.020446777
1605202568829,2137,-0.012451172,0.88861084,-0.2522583
1605202568829,2138,-0.012451172,0.88861084,-0.2522583
1605202568830,2139,0.20507812,0.930603,-0.25933838
1605202568831,2140,-0.28320312,0.9545288,-0.03375244
1605202568831,2141,0.20507812,0.930603,-0.25933838
1605202568831,2142,0.25219727,0.9398804,-0.19342041
1605202568832,2143,-0.19970703,1.0304565,-0.042785645
1605202568832,2144,0.25219727,0.9398804,-0.19342041
1605202568832,2145,0.12841797,0.9437866,-0.09893799
1605202568833,2146,0.033203125,1.0101929,-0.20367432
1605202568833,2147,0.12841797,0.9437866,-0.09893799
1605202568836,2148,0.22314453,0.918396,-0.17437744
1605202568837,2149,0.22314453,0.918396,-0.17437744
1605202568837,2150,0.107177734,0.9796753,-0.23272705
1605202568849,2151,0.19360352,0.9332886,-0.12921143
1605202568851,2152,0.19360352,0.9332886,-0.12921143
1605202568851,2153,-0.012451172,0.88861084,-0.2522583
1605202568851,2154,0.14941406,0.94818115,-0.1885376
1605202568851,2155,0.20507812,0.930603,-0.25933838
1605202568851,2156,0.25073242,0.8834839,-0.30548096
1605202568851,2157,0.25219727,0.9398804,-0.19342041
1605202568851,2158,0.12841797,0.9437866,-0.09893799
1605202568851,2159,0.15161133,0.95111084,-0.12628174
1605202568851,2160,0.14941406,0.94818115,-0.1885376
1605202568851,2161,0.22314453,0.918396,-0.17437744
1605202568852,2162,0.13793945,0.9540405,-0.09307861
1605202568852,2163,0.25073242,0.8834839,-0.30548096
1605202568852,2164,0.18115234,0.9208374,-0.12164307
1605202568852,2165,0.15161133,0.95111084,-0.12628174
1605202568852,2166,0.19360352,0.9332886,-0.12921143
1605202568852,2167,0.1772461,0.94036865,-0.120910645
1605202568857,2168,0.13793945,0.9540405,-0.09307861
1605202568857,2169,0.14941406,0.94818115,-0.1885376
1605202568857,2170,0.20043945,0.9591675,-0.23712158
1605202568863,2171,0.18115234,0.9208374,-0.12164307
1605202568863,2172,0.25073242,0.8834839,-0.30548096
1605202568863,2173,-0.0871582,0.97772217,-0.33917236
1605202568864,2174,0.1772461,0.94036865,-0.120910645
1605202568864,2175,0.20043945,0.9591675,-0.23712158
1605202568864,2176,-0.0871582,0.97772217,-0.33917236
1605202568866,2177,-0.28881836,1.1242065,-0.0044555664
1605202568866,2178,-0.28881836,1.1242065,-0.0044555664
1605202568866,2179,0.15161133,0.95111084,-0.12628174
1605202568867,2180,-0.15576172,0.87908936,0.12591553
1605202568868,2181,-0.15576172,0.87908936,0.12591553
1605202568868,2182,0.13793945,0.9540405,-0.09307861
1605202568871,2183,0.18115234,0.9208374,-0.12164307
1605202568871,2184,0.1772461,0.94036865,-0.120910645
1605202568873,2185,0.20043945,0.9591675,-0.23712158
1605202568874,2186,-0.0871582,0.97772217,-0.33917236
1605202568875,2187,-0.28881836,1.1242065,-0.0044555664
1605202568876,2188,-0.15576172,0.87908936,0.12591553
1605202571368,2189,-0.1340332,0.82073975,0.062683105
1605202571368,2190,-0.1340332,0.82073975,0.062683105
1605202571369,2191,-0.1340332,0.82073975,0.062683105
1605202571369,2192,-0.11035156,0.85443115,0.14520264
1605202571370,2193,-0.11035156,0.85443115,0.14520264
1605202571370,2194,-0.11035156,0.85443115,0.14520264
1605202571371,2195,-0.04296875,0.934021,0.01727295
1605202571371,2196,-0.04296875,0.934021,0.01727295
1605202571371,2197,-0.04296875,0.934021,0.01727295
1605202571371,2198,-0.28686523,1.1542358,-0.070373535
1605202571372,2199,-0.28686523,1.1542358,-0.070373535
1605202571372,2200,-0.36889648,0.9616089,0.12713623
1605202571373,2201,-0.36889648,0.9616089,0.12713623
1605202571373,2202,0.1665039,1.0558472,0.18255615
1605202571374,2203,-0.06518555,0.76776123,0.059509277
1605202571374,2204,-0.28686523,1.1542358,-0.070373535
1605202571374,2205,0.1665039,1.0558472,0.18255615
1605202571375,2206,-0.14086914,0.89520264,0.045837402
1605202571376,2207,-0.06518555,0.76776123,0.059509277
1605202571376,2208,-0.3005371,0.95184326,-0.15875244
1605202571376,2209,-0.14086914,0.89520264,0.045837402
1605202571377,2210,-0.36889648,0.9616089,0.12713623
1605202571377,2211,-0.30029297,1.0419312,-0.14483643
1605202571377,2212,0.2529297,1.0770874,-0.20928955
1605202571378,2213,-0.3005371,0.95184326,-0.15875244
1605202571379,2214,0.2607422,0.8517456,-0.17755127
1605202571379,2215,0.1665039,1.0558472,0.18255615
1605202571380,2216,-0.30029297,1.0419312,-0.14483643
1605202571381,2217,0.0041503906,1.0326538,-0.07281494
1605202571381,2218,0.2529297,1.0770874,-0.20928955
1605202571381,2219,-0.06518555,0.76776123,0.059509277
1605202571383,2220,0.13330078,0.916687,-0.1416626
1605202571383,2221,0.2607422,0.8517456,-0.17755127
1605202571383,2222,-0.14086914,0.89520264,0.045837402
1605202571383,2223,0.3173828,0.92645264,-0.14337158
1605202571383,2224,0.0041503906,1.0326538,-0.07281494
1605202571384,2225,0.080566406,0.9591675,-0.09698486
1605202571384,2226,-0.3005371,0.95184326,-0.15875244
1605202571384,2227,0.13330078,0.916687,-0.1416626
1605202571384,2228,0.16113281,0.94329834,-0.22540283
1605202571385,2229,0.3173828,0.92645264,-0.14337158
1605202571385,2230,0.29492188,0.869812,-0.3406372
1605202571386,2231,-0.30029297,1.0419312,-0.14483643
1605202571386,2232,0.1159668,0.9633179,-0.07305908
1605202571386,2233,0.2529297,1.0770874,-0.20928955
1605202571387,2234,0.080566406,0.9591675,-0.09698486
1605202571387,2235,0.07299805,0.97528076,-0.024230957
1605202571387,2236,0.2607422,0.8517456,-0.17755127
1605202571388,2237,0.16113281,0.94329834,-0.22540283
1605202571388,2238,0.0041503906,1.0326538,-0.07281494
1605202571389,2239,0.2109375,0.90667725,-0.14898682
1605202571389,2240,0.13330078,0.916687,-0.1416626
1605202571389,2241,0.29492188,0.869812,-0.3406372
1605202571390,2242,0.1159668,0.9633179,-0.07305908
1605202571390,2243,0.3173828,0.92645264,-0.14337158
1605202571391,2244,0.07299805,0.97528076,-0.024230957
1605202571391,2245,0.22338867,0.95184326,-0.12921143
1605202571392,2246,0.2109375,0.90667725,-0.14898682
1605202571392,2247,0.25219727,0.918396,-0.190979
1605202571393,2248,0.080566406,0.9591675,-0.09698486
1605202571393,2249,0.22338867,0.95184326,-0.12921143
1605202571393,2250,0.16113281,0.94329834,-0.22540283
1605202571394,2251,0.12866211,0.88616943,-0.15460205
1605202571394,2252,0.25219727,0.918396,-0.190979
1605202571394,2253,0.29492188,0.869812,-0.3406372
1605202571395,2254,0.1159668,0.9633179,-0.07305908
1605202571395,2255,0.12866211,0.88616943,-0.15460205
1605202571395,2256,0.0017089844,0.98968506,-0.07891846
1605202571397,2257,0.0017089844,0.98968506,-0.07891846
1605202571398,2258,0.07299805,0.97528076,-0.024230957
1605202571398,2259,-0.26171875,1.1913452,-0.013244629
1605202571398,2260,-0.26171875,1.1913452,-0.013244629
1605202571399,2261,0.2109375,0.90667725,-0.14898682
1605202571399,2262,-0.076171875,1.0621948,0.06781006
1605202571400,2263,0.22338867,0.95184326,-0.12921143
1605202571400,2264,-0.076171875,1.0621948,0.06781006
1605202571401,2265,0.25219727,0.918396,-0.190979
1605202571401,2266,-0.16186523,0.6378784,0.1593628
1605202571401,2267,0.12866211,0.88616943,-0.15460205
1605202571402,2268,-0.014404297,0.7243042,0.21673584
1605202571402,2269,-0.13647461,1.2042847,0.23919678
1605202571403,2270,-0.16186523,0.6378784,0.1593628
1605202571403,2271,-0.014404297,0.7243042,0.21673584
1605202571404,2272,0.0017089844,0.98968506,-0.07891846
1605202571404,2273,-0.49658203,1.0358276,0.023864746
1605202571405,2274,0.099121094,0.89227295,0.2423706
1605202571405,2275,-0.13647461,1.2042847,0.23919678
1605202571406,2276,-0.26171875,1.1913452,-0.013244629
1605202571407,2277,-0.49658203,1.0358276,0.023864746
1605202571407,2278,-0.076171875,1.0621948,0.06781006
1605202571407,2279,0.099121094,0.89227295,0.2423706
1605202571408,2280,-0.16186523,0.6378784,0.1593628
1605202571409,2281,-0.014404297,0.7243042,0.21673584
1605202571410,2282,-0.13647461,1.2042847,0.23919678
1605202571410,2283,-0.49658203,1.0358276,0.023864746
1605202571411,2284,0.099121094,0.89227295,0.2423706
