# Sensor position: Chest
# Sensor side: Left
# Activity type: Movement
# Activity code: 9
# Subject id: s1655560
timestamp,seq,accel_x,accel_y,accel_z
1605203267128,0,-0.9172363,0.20037842,0.3114624
1605203267130,1,-0.9172363,0.20037842,0.3114624
1605203267130,2,-0.9621582,0.24139404,0.33587646
1605203267134,3,-0.9172363,0.20037842,0.3114624
1605203267137,4,-0.96313477,0.14129639,0.37982178
1605203267138,5,-0.9621582,0.24139404,0.33587646
1605203267142,6,-0.82299805,0.20721436,0.2982788
1605203267144,7,-0.96313477,0.14129639,0.37982178
1605203267146,8,-0.9621582,0.24139404,0.33587646
1605203267147,9,-0.9128418,0.055603027,0.36541748
1605203267148,10,-0.82299805,0.20721436,0.2982788
1605203267151,11,-1.0397949,-0.019348145,0.42132568
1605203267153,12,-0.9128418,0.055603027,0.36541748
1605203267155,13,-0.96313477,0.14129639,0.37982178
1605203267155,14,-1.0397949,-0.019348145,0.42132568
1605203267156,15,-0.9562988,0.12786865,0.31097412
1605203267164,16,-0.9169922,0.08807373,0.13739014
1605203267165,17,-0.9562988,0.12786865,0.31097412
1605203267165,18,-0.82299805,0.20721436,0.2982788
1605203267168,19,-0.9169922,0.08807373,0.13739014
1605203267168,20,-0.9128418,0.055603027,0.36541748
1605203267169,21,-1.0456543,0.061950684,0.11907959
1605203267169,22,-1.0456543,0.061950684,0.11907959
1605203267169,23,-1.0397949,-0.019348145,0.42132568
1605203267169,24,-0.8913574,0.13397217,0.10223389
1605203267169,25,-0.9562988,0.12786865,0.31097412
1605203267169,26,-0.8913574,0.13397217,0.10223389
1605203267171,27,-1.0874023,0.20013428,0.17572021
1605203267172,28,-0.9169922,0.08807373,0.13739014
1605203267172,29,-1.0874023,0.20013428,0.17572021
1605203267172,30,-0.9555664,0.17572021,0.18963623
1605203267174,31,-0.9555664,0.17572021,0.18963623
1605203267177,32,-1.0456543,0.061950684,0.11907959
1605203267178,33,-0.90405273,0.26507568,0.2826538
1605203267179,34,-0.8913574,0.13397217,0.10223389
1605203267180,35,-1.036377,0.21820068,0.1437378
1605203267181,36,-1.0874023,0.20013428,0.17572021
1605203267182,37,-0.9785156,0.1593628,0.10467529
1605203267184,38,-0.97314453,0.17401123,0.09979248
1605203267185,39,-0.9555664,0.17572021,0.18963623
1605203267185,40,-0.90405273,0.26507568,0.2826538
1605203267186,41,-0.9748535,0.16253662,0.11981201
1605203267187,42,-1.036377,0.21820068,0.1437378
1605203267188,43,-0.9980469,0.16375732,0.14666748
1605203267188,44,-0.9785156,0.1593628,0.10467529
1605203267189,45,-0.9897461,0.11663818,0.12371826
1605203267190,46,-0.97314453,0.17401123,0.09979248
1605203267191,47,-1.0109863,0.14105225,0.15008545
1605203267192,48,-0.90405273,0.26507568,0.2826538
1605203267192,49,-1.0009766,0.1930542,0.15985107
1605203267194,50,-1.036377,0.21820068,0.1437378
1605203267194,51,-0.9897461,0.11517334,0.14764404
1605203267194,52,-0.9748535,0.16253662,0.11981201
1605203267195,53,-0.9980469,0.16375732,0.14666748
1605203267196,54,-1.0043945,0.2062378,0.1329956
1605203267197,55,-0.9897461,0.11663818,0.12371826
1605203267197,56,-0.9909668,0.14398193,0.15106201
1605203267201,57,-1.0109863,0.14105225,0.15008545
1605203267202,58,-0.95874023,0.19256592,0.21258545
1605203267202,59,-1.0009766,0.1930542,0.15985107
1605203267204,60,-0.9362793,0.1539917,0.28778076
1605203267204,61,-0.9785156,0.1593628,0.10467529
1605203267204,62,-0.9897461,0.11517334,0.14764404
1605203267206,63,-0.97314453,0.17401123,0.09979248
1605203267207,64,-0.9814453,0.19573975,0.24261475
1605203267207,65,-1.0043945,0.2062378,0.1329956
1605203267207,66,-0.93652344,0.18841553,0.24212646
1605203267207,67,-0.9748535,0.2538452,0.26800537
1605203267209,68,-0.9748535,0.16253662,0.11981201
1605203267209,69,-0.9909668,0.14398193,0.15106201
1605203267209,70,-0.8930664,0.17840576,0.3283081
1605203267209,71,-0.9980469,0.16375732,0.14666748
1605203267210,72,-0.9362793,0.1852417,0.3151245
1605203267211,73,-0.95874023,0.19256592,0.21258545
1605203267211,74,-0.9897461,0.11663818,0.12371826
1605203267212,75,-0.9152832,0.22039795,0.3209839
1605203267212,76,-0.9362793,0.1539917,0.28778076
1605203267212,77,-1.0109863,0.14105225,0.15008545
1605203267213,78,-0.9814453,0.19573975,0.24261475
1605203267213,79,-1.0009766,0.1930542,0.15985107
1605203267214,80,-0.93652344,0.18841553,0.24212646
1605203267214,81,-0.9897461,0.11517334,0.14764404
1605203267218,82,-0.9748535,0.2538452,0.26800537
1605203267218,83,-1.0043945,0.2062378,0.1329956
1605203267219,84,-0.8930664,0.17840576,0.3283081
1605203267219,85,-0.9909668,0.14398193,0.15106201
1605203267221,86,-0.9362793,0.1852417,0.3151245
1605203267221,87,-0.95874023,0.19256592,0.21258545
1605203267223,88,-0.9152832,0.22039795,0.3209839
1605203267223,89,-0.9362793,0.1539917,0.28778076
1605203267223,90,-0.9814453,0.19573975,0.24261475
1605203267225,91,-0.93652344,0.18841553,0.24212646
1605203267226,92,-0.9748535,0.2538452,0.26800537
1605203267226,93,-0.8930664,0.17840576,0.3283081
1605203267227,94,-0.9362793,0.1852417,0.3151245
1605203267228,95,-0.9152832,0.22039795,0.3209839
1605203269715,96,-0.9692383,0.25360107,0.38323975
1605203269719,97,-0.9692383,0.25360107,0.38323975
1605203269723,98,-0.9116211,0.25823975,0.31195068
1605203269731,99,-0.9116211,0.25823975,0.31195068
1605203269732,100,-0.9692383,0.25360107,0.38323975
1605203269732,101,-0.9133301,0.32366943,0.29925537
1605203269733,102,-0.9133301,0.32366943,0.29925537
1605203269733,103,-0.9116211,0.25823975,0.31195068
1605203269733,104,-0.8774414,0.324646,0.27044678
1605203269739,105,-0.8774414,0.324646,0.27044678
1605203269739,106,-0.9133301,0.32366943,0.29925537
1605203269740,107,-0.8227539,0.28607178,0.18865967
1605203269743,108,-0.8227539,0.28607178,0.18865967
1605203269743,109,-0.8774414,0.324646,0.27044678
1605203269746,110,-1.0024414,0.16937256,0.1720581
1605203269749,111,-0.8227539,0.28607178,0.18865967
1605203269752,112,-1.1125488,-0.105285645,0.19207764
1605203269755,113,-1.0024414,0.16937256,0.1720581
1605203269758,114,-1.0788574,-0.19927979,0.20574951
1605203269762,115,-1.1125488,-0.105285645,0.19207764
1605203269765,116,-0.9694824,-0.10015869,0.17254639
1605203269769,117,-1.0788574,-0.19927979,0.20574951
1605203269773,118,-0.9343262,-0.11920166,0.1437378
1605203269776,119,-0.9694824,-0.10015869,0.17254639
1605203269780,120,-0.96240234,-0.2197876,0.13568115
1605203269783,121,-0.9343262,-0.11920166,0.1437378
1605203269786,122,-1.0458984,-0.20513916,0.18548584
1605203269789,123,-0.96240234,-0.2197876,0.13568115
1605203269792,124,-1.1564941,0.09466553,0.15350342
1605203269795,125,-1.0458984,-0.20513916,0.18548584
1605203269799,126,-0.84106445,0.1005249,0.043640137
1605203269802,127,-1.1564941,0.09466553,0.15350342
1605203269803,128,-1.2490234,-0.12921143,0.08734131
1605203269804,129,-0.84106445,0.1005249,0.043640137
1605203269806,130,-0.90600586,0.028259277,0.07244873
1605203269806,131,-1.0024414,0.16937256,0.1720581
1605203269807,132,-1.1125488,-0.105285645,0.19207764
1605203269810,133,-0.9038086,-0.04547119,0.21160889
1605203269810,134,-1.0788574,-0.19927979,0.20574951
1605203269811,135,-1.2490234,-0.12921143,0.08734131
1605203269811,136,-0.98217773,-0.077697754,0.32269287
1605203269811,137,-0.9694824,-0.10015869,0.17254639
1605203269811,138,-0.90600586,0.028259277,0.07244873
1605203269813,139,-0.9885254,-0.02911377,0.31365967
1605203269814,140,-0.9343262,-0.11920166,0.1437378
1605203269814,141,-0.9038086,-0.04547119,0.21160889
1605203269815,142,-1.125,-0.14312744,0.32196045
1605203269816,143,-0.96240234,-0.2197876,0.13568115
1605203269816,144,-0.98217773,-0.077697754,0.32269287
1605203269816,145,-0.9885254,-0.02911377,0.31365967
1605203269817,146,-0.92871094,-0.10455322,0.25286865
1605203269818,147,-1.125,-0.14312744,0.32196045
1605203269819,148,-0.9355469,-0.20172119,0.32684326
1605203269821,149,-0.92871094,-0.10455322,0.25286865
1605203269821,150,-1.0187988,-0.06304932,0.3300171
1605203269822,151,-1.0458984,-0.20513916,0.18548584
1605203269823,152,-0.954834,0.15960693,0.20062256
1605203269824,153,-0.9355469,-0.20172119,0.32684326
1605203269824,154,-1.1564941,0.09466553,0.15350342
1605203269826,155,-0.98217773,0.20770264,0.19525146
1605203269827,156,-1.0187988,-0.06304932,0.3300171
1605203269827,157,-0.84106445,0.1005249,0.043640137
1605203269828,158,-1.2490234,-0.12921143,0.08734131
1605203269829,159,-0.954834,0.15960693,0.20062256
1605203269829,160,-1.1540527,0.016540527,0.20526123
1605203269830,161,-0.98217773,0.20770264,0.19525146
1605203269831,162,-0.90600586,0.028259277,0.07244873
1605203269831,163,-0.9145508,0.028747559,0.11956787
1605203269831,164,-1.1540527,0.016540527,0.20526123
1605203269833,165,-0.9050293,0.030212402,0.28729248
1605203269834,166,-0.9038086,-0.04547119,0.21160889
1605203269835,167,-0.9145508,0.028747559,0.11956787
1605203269835,168,-0.92211914,-0.062805176,0.40570068
1605203269836,169,-0.98217773,-0.077697754,0.32269287
1605203269836,170,-0.9350586,-0.14508057,0.2802124
1605203269837,171,-0.9050293,0.030212402,0.28729248
1605203269838,172,-0.9885254,-0.02911377,0.31365967
1605203269838,173,-1.076416,0.012390137,0.42132568
1605203269839,174,-0.92211914,-0.062805176,0.40570068
1605203269840,175,-1.125,-0.14312744,0.32196045
1605203269840,176,-1.0090332,-0.11993408,0.34857178
1605203269843,177,-0.9350586,-0.14508057,0.2802124
1605203269843,178,-0.92871094,-0.10455322,0.25286865
1605203269843,179,-1.076416,0.012390137,0.42132568
1605203269844,180,-0.9355469,-0.20172119,0.32684326
1605203269844,181,-1.0187988,-0.06304932,0.3300171
1605203269844,182,-0.954834,0.15960693,0.20062256
1605203269846,183,-0.98217773,0.20770264,0.19525146
1605203269847,184,-1.0090332,-0.11993408,0.34857178
1605203269847,185,-1.1540527,0.016540527,0.20526123
1605203269848,186,-0.9145508,0.028747559,0.11956787
1605203269849,187,-0.9050293,0.030212402,0.28729248
1605203269850,188,-0.92211914,-0.062805176,0.40570068
1605203269851,189,-0.9350586,-0.14508057,0.2802124
1605203269852,190,-1.076416,0.012390137,0.42132568
1605203269853,191,-1.0090332,-0.11993408,0.34857178
1605203272301,192,-1.0671387,0.0016479492,0.35076904
1605203272302,193,-1.0671387,0.0016479492,0.35076904
1605203272302,194,-1.0671387,0.0016479492,0.35076904
1605203272302,195,-0.90966797,-0.28277588,0.15960693
1605203272305,196,-0.9614258,-0.1116333,0.2399292
1605203272310,197,-0.90966797,-0.28277588,0.15960693
1605203272311,198,-0.90966797,-0.28277588,0.15960693
1605203272312,199,-0.92333984,-0.23199463,0.2802124
1605203272314,200,-0.9614258,-0.1116333,0.2399292
1605203272316,201,-1.0874023,-0.028381348,0.26385498
1605203272320,202,-0.92333984,-0.23199463,0.2802124
1605203272332,203,-0.97998047,0.1281128,-0.0025024414
1605203272333,204,-0.9614258,-0.1116333,0.2399292
1605203272337,205,-0.92333984,-0.23199463,0.2802124
1605203272346,206,-1.0664062,0.13568115,0.11981201
1605203272347,207,-1.0874023,-0.028381348,0.26385498
1605203272347,208,-1.0874023,-0.028381348,0.26385498
1605203272348,209,-1.0258789,-0.14117432,0.04168701
1605203272353,210,-0.97998047,0.1281128,-0.0025024414
1605203272356,211,-0.9423828,-0.12774658,0.11248779
1605203272359,212,-1.0664062,0.13568115,0.11981201
1605203272363,213,-0.907959,-0.039611816,0.24945068
1605203272366,214,-1.0258789,-0.14117432,0.04168701
1605203272369,215,-1.1604004,-0.020812988,0.14398193
1605203272369,216,-0.97998047,0.1281128,-0.0025024414
1605203272369,217,-1.1286621,0.11273193,0.14031982
1605203272370,218,-0.9765625,0.15570068,0.1359253
1605203272372,219,-0.9423828,-0.12774658,0.11248779
1605203272373,220,-1.0664062,0.13568115,0.11981201
1605203272373,221,-0.9057617,0.17669678,0.19134521
1605203272373,222,-0.907959,-0.039611816,0.24945068
1605203272375,223,-0.89038086,0.31585693,0.32977295
1605203272375,224,-1.1604004,-0.020812988,0.14398193
1605203272378,225,-1.1286621,0.11273193,0.14031982
1605203272378,226,-0.9934082,0.19720459,0.387146
1605203272378,227,-0.9765625,0.15570068,0.1359253
1605203272378,228,-0.87402344,0.0836792,0.2584839
1605203272378,229,-1.0258789,-0.14117432,0.04168701
1605203272380,230,-0.9057617,0.17669678,0.19134521
1605203272380,231,-1.0014648,0.14154053,0.2880249
1605203272380,232,-0.9423828,-0.12774658,0.11248779
1605203272380,233,-0.89038086,0.31585693,0.32977295
1605203272381,234,-0.9020996,0.07733154,0.28729248
1605203272383,235,-0.9934082,0.19720459,0.387146
1605203272383,236,-0.907959,-0.039611816,0.24945068
1605203272383,237,-0.87402344,0.0836792,0.2584839
1605203272383,238,-0.99902344,0.14935303,0.32196045
1605203272383,239,-1.0014648,0.14154053,0.2880249
1605203272384,240,-0.9992676,0.15887451,0.33441162
1605203272384,241,-0.9020996,0.07733154,0.28729248
1605203272385,242,-1.1604004,-0.020812988,0.14398193
1605203272386,243,-0.9494629,-0.018371582,0.26068115
1605203272386,244,-0.99902344,0.14935303,0.32196045
1605203272386,245,-0.9992676,0.15887451,0.33441162
1605203272386,246,-1.1286621,0.11273193,0.14031982
1605203272387,247,-0.9707031,-0.04473877,0.26263428
1605203272388,248,-0.9765625,0.15570068,0.1359253
1605203272388,249,-0.85180664,-0.175354,0.21063232
1605203272389,250,-0.9494629,-0.018371582,0.26068115
1605203272389,251,-0.9057617,0.17669678,0.19134521
1605203272390,252,-1.0068359,-0.090148926,0.34881592
1605203272390,253,-0.9707031,-0.04473877,0.26263428
1605203272390,254,-0.89038086,0.31585693,0.32977295
1605203272391,255,-1.0842285,0.10076904,0.50286865
1605203272391,256,-0.85180664,-0.175354,0.21063232
1605203272391,257,-0.9934082,0.19720459,0.387146
1605203272392,258,-0.88061523,-0.03692627,0.19085693
1605203272392,259,-1.0068359,-0.090148926,0.34881592
1605203272393,260,-0.87402344,0.0836792,0.2584839
1605203272393,261,-1.1518555,-0.024963379,0.168396
1605203272393,262,-1.0014648,0.14154053,0.2880249
1605203272394,263,-1.0842285,0.10076904,0.50286865
1605203272394,264,-0.84375,-0.008361816,0.10491943
1605203272394,265,-0.9020996,0.07733154,0.28729248
1605203272394,266,-1.0510254,-0.040100098,0.09246826
1605203272395,267,-0.88061523,-0.03692627,0.19085693
1605203272395,268,-0.99902344,0.14935303,0.32196045
1605203272396,269,-1.0178223,-0.014465332,0.3312378
1605203272397,270,-1.0939941,-0.0947876,-0.116760254
1605203272398,271,-1.1518555,-0.024963379,0.168396
1605203272398,272,-0.9992676,0.15887451,0.33441162
1605203272399,273,-0.9494629,-0.018371582,0.26068115
1605203272399,274,-0.84375,-0.008361816,0.10491943
1605203272399,275,-0.9707031,-0.04473877,0.26263428
1605203272400,276,-1.0510254,-0.040100098,0.09246826
1605203272401,277,-0.85180664,-0.175354,0.21063232
1605203272401,278,-1.0178223,-0.014465332,0.3312378
1605203272401,279,-1.0068359,-0.090148926,0.34881592
1605203272402,280,-1.0939941,-0.0947876,-0.116760254
1605203272402,281,-1.0842285,0.10076904,0.50286865
1605203272403,282,-0.88061523,-0.03692627,0.19085693
1605203272404,283,-1.1518555,-0.024963379,0.168396
1605203272405,284,-0.84375,-0.008361816,0.10491943
1605203272405,285,-1.0510254,-0.040100098,0.09246826
1605203272406,286,-1.0178223,-0.014465332,0.3312378
1605203272406,287,-1.0939941,-0.0947876,-0.116760254
1605203274885,288,-1.079834,0.16790771,0.039978027
1605203274886,289,-1.005127,0.074645996,-0.043029785
1605203274890,290,-1.079834,0.16790771,0.039978027
1605203274894,291,-0.7973633,0.029968262,-0.1104126
1605203274898,292,-1.005127,0.074645996,-0.043029785
1605203274902,293,-1.2617188,-0.12310791,-0.016662598
1605203274905,294,-0.7973633,0.029968262,-0.1104126
1605203274909,295,-0.9655762,-0.11260986,-0.08135986
1605203274913,296,-1.2617188,-0.12310791,-0.016662598
1605203274916,297,-1.0478516,-0.18609619,-0.054748535
1605203274917,298,-0.9655762,-0.11260986,-0.08135986
1605203274921,299,-0.9592285,-0.112854004,-0.070373535
1605203274923,300,-1.0478516,-0.18609619,-0.054748535
1605203274927,301,-0.9338379,0.042419434,-0.05206299
1605203274928,302,-1.079834,0.16790771,0.039978027
1605203274928,303,-1.2834473,0.050964355,0.09197998
1605203274931,304,-0.9592285,-0.112854004,-0.070373535
1605203274932,305,-1.005127,0.074645996,-0.043029785
1605203274932,306,-0.9987793,-0.1807251,0.015319824
1605203274933,307,-0.8774414,-0.13189697,-0.014221191
1605203274936,308,-0.7973633,0.029968262,-0.1104126
1605203274938,309,-0.9772949,-0.2354126,-0.010070801
1605203274939,310,-1.2617188,-0.12310791,-0.016662598
1605203274943,311,-0.9682617,-0.16900635,-0.011047363
1605203274946,312,-0.9655762,-0.11260986,-0.08135986
1605203274950,313,-1.1833496,0.0692749,-0.06378174
1605203274953,314,-1.0478516,-0.18609619,-0.054748535
1605203274955,315,-1.1567383,0.11126709,-0.0256958
1605203274958,316,-0.9592285,-0.112854004,-0.070373535
1605203274960,317,-0.9658203,0.13494873,-0.023986816
1605203274961,318,-0.9338379,0.042419434,-0.05206299
1605203274962,319,-0.94970703,0.06781006,-0.08746338
1605203274963,320,-1.2834473,0.050964355,0.09197998
1605203274965,321,-0.9338379,0.042419434,-0.05206299
1605203274965,322,-1.0864258,0.06439209,-0.10455322
1605203274966,323,-0.9987793,-0.1807251,0.015319824
1605203274967,324,-1.1271973,-0.012512207,-0.074035645
1605203274968,325,-0.8774414,-0.13189697,-0.014221191
1605203274969,326,-0.94799805,0.17840576,-0.15533447
1605203274970,327,-0.9772949,-0.2354126,-0.010070801
1605203274971,328,-1.0849609,0.1515503,-0.14654541
1605203274972,329,-0.9682617,-0.16900635,-0.011047363
1605203274972,330,-0.86572266,0.18450928,-0.15093994
1605203274973,331,-1.2834473,0.050964355,0.09197998
1605203274974,332,-1.1833496,0.0692749,-0.06378174
1605203274976,333,-0.9987793,-0.1807251,0.015319824
1605203274977,334,-1.1567383,0.11126709,-0.0256958
1605203274977,335,-1.0004883,0.29730225,-0.026428223
1605203274978,336,-0.8774414,-0.13189697,-0.014221191
1605203274980,337,-1.1147461,-0.013244629,0.042907715
1605203274981,338,-0.9772949,-0.2354126,-0.010070801
1605203274981,339,-0.9658203,0.13494873,-0.023986816
1605203274983,340,-0.87939453,-0.07940674,0.13763428
1605203274983,341,-0.9682617,-0.16900635,-0.011047363
1605203274983,342,-0.94970703,0.06781006,-0.08746338
1605203274984,343,-0.9855957,0.1251831,0.07269287
1605203274985,344,-1.0864258,0.06439209,-0.10455322
1605203274986,345,-1.1833496,0.0692749,-0.06378174
1605203274986,346,-1.0810547,0.18133545,0.012878418
1605203274986,347,-1.1271973,-0.012512207,-0.074035645
1605203274988,348,-0.9836426,0.36712646,0.042663574
1605203274989,349,-0.94799805,0.17840576,-0.15533447
1605203274989,350,-1.1567383,0.11126709,-0.0256958
1605203274990,351,-1.1877441,-0.10357666,0.016296387
1605203274990,352,-1.0849609,0.1515503,-0.14654541
1605203274991,353,-0.9658203,0.13494873,-0.023986816
1605203274991,354,-0.8864746,-0.18243408,-0.08258057
1605203274991,355,-0.86572266,0.18450928,-0.15093994
1605203274993,356,-0.98535156,-0.1531372,-0.06964111
1605203274993,357,-1.0004883,0.29730225,-0.026428223
1605203274993,358,-0.94970703,0.06781006,-0.08746338
1605203274994,359,-1.1147461,-0.013244629,0.042907715
1605203274995,360,-1.003418,-0.18487549,-0.05596924
1605203274995,361,-1.0864258,0.06439209,-0.10455322
1605203274996,362,-0.87939453,-0.07940674,0.13763428
1605203274996,363,-1.1271973,-0.012512207,-0.074035645
1605203274997,364,-0.9855957,0.1251831,0.07269287
1605203274997,365,-0.94799805,0.17840576,-0.15533447
1605203274999,366,-1.0810547,0.18133545,0.012878418
1605203274999,367,-1.0849609,0.1515503,-0.14654541
1605203274999,368,-0.86572266,0.18450928,-0.15093994
1605203275000,369,-0.9836426,0.36712646,0.042663574
1605203275001,370,-1.0004883,0.29730225,-0.026428223
1605203275001,371,-1.1877441,-0.10357666,0.016296387
1605203275002,372,-0.8864746,-0.18243408,-0.08258057
1605203275003,373,-1.1147461,-0.013244629,0.042907715
1605203275003,374,-0.87939453,-0.07940674,0.13763428
1605203275004,375,-0.98535156,-0.1531372,-0.06964111
1605203275004,376,-0.9855957,0.1251831,0.07269287
1605203275006,377,-1.003418,-0.18487549,-0.05596924
1605203275006,378,-1.0810547,0.18133545,0.012878418
1605203275007,379,-0.9836426,0.36712646,0.042663574
1605203275007,380,-1.1877441,-0.10357666,0.016296387
1605203275009,381,-0.8864746,-0.18243408,-0.08258057
1605203275010,382,-0.98535156,-0.1531372,-0.06964111
1605203275012,383,-1.003418,-0.18487549,-0.05596924
1605203277465,384,-1.0773926,-0.010314941,0.018737793
1605203277468,385,-1.0773926,-0.010314941,0.018737793
1605203277471,386,-1.0773926,-0.010314941,0.018737793
1605203277471,387,-1.1098633,0.024597168,-0.008117676
1605203277471,388,-1.1098633,0.024597168,-0.008117676
1605203277474,389,-0.9523926,0.22283936,-0.013000488
1605203277478,390,-0.9523926,0.22283936,-0.013000488
1605203277480,391,-1.1098633,0.024597168,-0.008117676
1605203277482,392,-1.0048828,0.16693115,-6.1035156E-5
1605203277485,393,-0.9523926,0.22283936,-0.013000488
1605203277486,394,-1.0405273,0.15423584,0.19866943
1605203277490,395,-1.1811523,0.082214355,0.24847412
1605203277492,396,-1.0048828,0.16693115,-6.1035156E-5
1605203277494,397,-1.067627,0.048034668,9.1552734E-4
1605203277497,398,-1.0217285,0.15350342,-0.02520752
1605203277501,399,-1.0405273,0.15423584,0.19866943
1605203277503,400,-0.8520508,0.22015381,-0.038635254
1605203277506,401,-0.96728516,0.16546631,0.11077881
1605203277507,402,-1.1811523,0.082214355,0.24847412
1605203277509,403,-1.2089844,-0.015197754,0.0079956055
1605203277509,404,-1.067627,0.048034668,9.1552734E-4
1605203277510,405,-1.0048828,0.16693115,-6.1035156E-5
1605203277511,406,-1.0349121,0.14593506,0.0211792
1605203277512,407,-1.0405273,0.15423584,0.19866943
1605203277513,408,-0.9914551,0.13739014,-0.019104004
1605203277514,409,-1.1811523,0.082214355,0.24847412
1605203277515,410,-1.0,0.078063965,-0.047424316
1605203277516,411,-1.067627,0.048034668,9.1552734E-4
1605203277517,412,-0.9770508,0.06390381,0.032409668
1605203277518,413,-1.0217285,0.15350342,-0.02520752
1605203277518,414,-0.9897461,0.09222412,0.024353027
1605203277519,415,-1.0217285,0.15350342,-0.02520752
1605203277520,416,-1.0290527,0.08709717,0.012390137
1605203277521,417,-0.8520508,0.22015381,-0.038635254
1605203277522,418,-0.97998047,0.2975464,-0.0178833
1605203277522,419,-0.8520508,0.22015381,-0.038635254
1605203277523,420,-0.96728516,0.16546631,0.11077881
1605203277524,421,-1.0339355,0.12225342,-0.0713501
1605203277524,422,-0.96728516,0.16546631,0.11077881
1605203277525,423,-1.2089844,-0.015197754,0.0079956055
1605203277525,424,-0.8925781,0.18743896,-0.19830322
1605203277525,425,-1.2089844,-0.015197754,0.0079956055
1605203277526,426,-0.87597656,0.121520996,-0.05255127
1605203277529,427,-1.0349121,0.14593506,0.0211792
1605203277529,428,-1.0349121,0.14593506,0.0211792
1605203277529,429,-1.1958008,0.022155762,-0.015930176
1605203277530,430,-0.9914551,0.13739014,-0.019104004
1605203277530,431,-0.9914551,0.13739014,-0.019104004
1605203277530,432,-1.0,0.078063965,-0.047424316
1605203277531,433,-1.0,0.078063965,-0.047424316
1605203277532,434,-0.9770508,0.06390381,0.032409668
1605203277533,435,-0.9770508,0.06390381,0.032409668
1605203277534,436,-1.0385742,-0.077697754,-0.055480957
1605203277536,437,-0.9897461,0.09222412,0.024353027
1605203277536,438,-0.9897461,0.09222412,0.024353027
1605203277537,439,-1.1481934,0.022644043,-0.015686035
1605203277538,440,-1.0290527,0.08709717,0.012390137
1605203277538,441,-0.97998047,0.2975464,-0.0178833
1605203277539,442,-0.892334,-0.034729004,0.0065307617
1605203277540,443,-1.0290527,0.08709717,0.012390137
1605203277541,444,-1.0339355,0.12225342,-0.0713501
1605203277541,445,-0.9345703,-0.11529541,0.12615967
1605203277543,446,-0.8925781,0.18743896,-0.19830322
1605203277543,447,-0.97998047,0.2975464,-0.0178833
1605203277544,448,-1.1809082,-0.011291504,0.05657959
1605203277544,449,-1.0339355,0.12225342,-0.0713501
1605203277545,450,-0.9729004,0.2062378,0.050964355
1605203277546,451,-0.87597656,0.121520996,-0.05255127
1605203277547,452,-1.1958008,0.022155762,-0.015930176
1605203277547,453,-0.8925781,0.18743896,-0.19830322
1605203277549,454,-1.0385742,-0.077697754,-0.055480957
1605203277550,455,-1.0488281,0.03289795,0.051940918
1605203277550,456,-0.87597656,0.121520996,-0.05255127
1605203277551,457,-1.1481934,0.022644043,-0.015686035
1605203277551,458,-1.1958008,0.022155762,-0.015930176
1605203277551,459,-1.1169434,0.08880615,-0.024230957
1605203277551,460,-1.0385742,-0.077697754,-0.055480957
1605203277552,461,-0.892334,-0.034729004,0.0065307617
1605203277552,462,-0.9807129,0.12322998,0.11053467
1605203277553,463,-1.1481934,0.022644043,-0.015686035
1605203277553,464,-1.001709,0.0770874,0.21820068
1605203277554,465,-0.9345703,-0.11529541,0.12615967
1605203277554,466,-0.892334,-0.034729004,0.0065307617
1605203277556,467,-0.9345703,-0.11529541,0.12615967
1605203277556,468,-1.1809082,-0.011291504,0.05657959
1605203277556,469,-1.1809082,-0.011291504,0.05657959
1605203277556,470,-0.9729004,0.2062378,0.050964355
1605203277556,471,-0.9729004,0.2062378,0.050964355
1605203277557,472,-1.0488281,0.03289795,0.051940918
1605203277558,473,-1.0488281,0.03289795,0.051940918
1605203277558,474,-1.1169434,0.08880615,-0.024230957
1605203277558,475,-1.1169434,0.08880615,-0.024230957
1605203277559,476,-0.9807129,0.12322998,0.11053467
1605203277559,477,-0.9807129,0.12322998,0.11053467
1605203277560,478,-1.001709,0.0770874,0.21820068
1605203277560,479,-1.001709,0.0770874,0.21820068
1605203280050,480,-0.8876953,-0.21905518,0.14105225
1605203280056,481,-0.8876953,-0.21905518,0.14105225
1605203280056,482,-1.1638184,-0.074523926,0.10345459
1605203280057,483,-0.8876953,-0.21905518,0.14105225
1605203280057,484,-1.1638184,-0.074523926,0.10345459
1605203280061,485,-0.95214844,-0.039123535,0.1564331
1605203280061,486,-0.95214844,-0.039123535,0.1564331
1605203280061,487,-1.1638184,-0.074523926,0.10345459
1605203280063,488,-0.9108887,-0.12554932,0.27288818
1605203280066,489,-0.9108887,-0.12554932,0.27288818
1605203280070,490,-1.0546875,0.04071045,0.20599365
1605203280075,491,-0.88916016,-0.12799072,0.15570068
1605203280076,492,-0.95214844,-0.039123535,0.1564331
1605203280080,493,-0.9108887,-0.12554932,0.27288818
1605203280081,494,-1.0546875,0.04071045,0.20599365
1605203280083,495,-1.0546875,0.04071045,0.20599365
1605203280083,496,-1.1950684,0.05657959,0.20062256
1605203280084,497,-0.88916016,-0.12799072,0.15570068
1605203280084,498,-1.1950684,0.05657959,0.20062256
1605203280085,499,-1.1848145,0.07098389,0.16522217
1605203280088,500,-1.1848145,0.07098389,0.16522217
1605203280088,501,-0.88916016,-0.12799072,0.15570068
1605203280089,502,-1.1950684,0.05657959,0.20062256
1605203280089,503,-1.123291,0.08685303,0.035095215
1605203280101,504,-1.0322266,0.016784668,0.13201904
1605203280101,505,-1.1848145,0.07098389,0.16522217
1605203280101,506,-1.123291,0.08685303,0.035095215
1605203280101,507,-1.123291,0.08685303,0.035095215
1605203280101,508,-1.0322266,0.016784668,0.13201904
1605203280102,509,-0.8520508,-0.12945557,0.21136475
1605203280102,510,-1.0322266,0.016784668,0.13201904
1605203280103,511,-0.8520508,-0.12945557,0.21136475
1605203280103,512,-0.91186523,-0.038879395,0.16595459
1605203280103,513,-0.91186523,-0.038879395,0.16595459
1605203280104,514,-1.0249023,-0.029846191,0.14886475
1605203280104,515,-1.0200195,-0.054992676,0.1293335
1605203280106,516,-1.0249023,-0.029846191,0.14886475
1605203280106,517,-1.1342773,-0.046691895,0.15130615
1605203280106,518,-1.0200195,-0.054992676,0.1293335
1605203280106,519,-0.8520508,-0.12945557,0.21136475
1605203280106,520,-1.1501465,-0.028869629,0.2567749
1605203280107,521,-1.1342773,-0.046691895,0.15130615
1605203280107,522,-0.7314453,0.024597168,0.1605835
1605203280107,523,-1.1501465,-0.028869629,0.2567749
1605203280108,524,-0.92626953,0.08148193,0.078063965
1605203280108,525,-0.91186523,-0.038879395,0.16595459
1605203280109,526,-0.7314453,0.024597168,0.1605835
1605203280109,527,-1.0249023,-0.029846191,0.14886475
1605203280109,528,-1.1809082,0.019958496,0.14788818
1605203280110,529,-0.92626953,0.08148193,0.078063965
1605203280110,530,-0.98583984,0.012390137,0.07659912
1605203280112,531,-1.0200195,-0.054992676,0.1293335
1605203280113,532,-1.1809082,0.019958496,0.14788818
1605203280113,533,-0.97143555,-0.06744385,0.06536865
1605203280113,534,-1.1342773,-0.046691895,0.15130615
1605203280113,535,-0.9692383,-0.025939941,0.09954834
1605203280113,536,-0.98583984,0.012390137,0.07659912
1605203280113,537,-1.1003418,-0.00982666,0.035339355
1605203280113,538,-1.1501465,-0.028869629,0.2567749
1605203280113,539,-1.125,-0.105529785,0.17669678
1605203280113,540,-0.7314453,0.024597168,0.1605835
1605203280113,541,-0.97143555,-0.06744385,0.06536865
1605203280114,542,-0.92626953,0.08148193,0.078063965
1605203280114,543,-0.89575195,-0.10748291,0.28411865
1605203280114,544,-0.9692383,-0.025939941,0.09954834
1605203280115,545,-1.1809082,0.019958496,0.14788818
1605203280115,546,-1.0344238,-0.058898926,0.22991943
1605203280116,547,-0.98583984,0.012390137,0.07659912
1605203280116,548,-1.0144043,-0.074523926,0.2189331
1605203280116,549,-0.97143555,-0.06744385,0.06536865
1605203280117,550,-1.1003418,-0.00982666,0.035339355
1605203280118,551,-0.7766113,-0.116760254,0.30999756
1605203280118,552,-1.125,-0.105529785,0.17669678
1605203280118,553,-0.9692383,-0.025939941,0.09954834
1605203280118,554,-0.91015625,-0.20343018,0.36810303
1605203280119,555,-1.1003418,-0.00982666,0.035339355
1605203280119,556,-0.89575195,-0.10748291,0.28411865
1605203280119,557,-1.0874023,-0.116760254,0.27044678
1605203280119,558,-1.0344238,-0.058898926,0.22991943
1605203280120,559,-1.125,-0.105529785,0.17669678
1605203280120,560,-1.0195312,-0.023986816,0.22821045
1605203280121,561,-0.89575195,-0.10748291,0.28411865
1605203280121,562,-1.0144043,-0.074523926,0.2189331
1605203280121,563,-1.0344238,-0.058898926,0.22991943
1605203280122,564,-0.7766113,-0.116760254,0.30999756
1605203280122,565,-1.064209,-0.04815674,0.26190186
1605203280123,566,-1.0144043,-0.074523926,0.2189331
1605203280124,567,-0.91015625,-0.20343018,0.36810303
1605203280124,568,-0.7766113,-0.116760254,0.30999756
1605203280124,569,-1.0874023,-0.116760254,0.27044678
1605203280124,570,-0.91015625,-0.20343018,0.36810303
1605203280125,571,-1.0195312,-0.023986816,0.22821045
1605203280125,572,-1.0874023,-0.116760254,0.27044678
1605203280125,573,-1.064209,-0.04815674,0.26190186
1605203280126,574,-1.0195312,-0.023986816,0.22821045
1605203280126,575,-1.064209,-0.04815674,0.26190186
1605203282637,576,-1.0371094,0.0289917,0.35906982
1605203282640,577,-1.0371094,0.0289917,0.35906982
1605203282644,578,-1.043457,0.054626465,0.28216553
1605203282652,579,-1.0024414,0.15545654,0.21844482
1605203282652,580,-1.0371094,0.0289917,0.35906982
1605203282652,581,-1.043457,0.054626465,0.28216553
1605203282653,582,-1.0119629,0.20281982,0.19158936
1605203282654,583,-1.043457,0.054626465,0.28216553
1605203282656,584,-1.0351562,0.23968506,0.19671631
1605203282659,585,-1.0024414,0.15545654,0.21844482
1605203282665,586,-1.0119629,0.20281982,0.19158936
1605203282666,587,-1.0024414,0.15545654,0.21844482
1605203282666,588,-1.0129395,0.03729248,0.28216553
1605203282667,589,-1.0351562,0.23968506,0.19671631
1605203282668,590,-1.0119629,0.20281982,0.19158936
1605203282669,591,-0.8378906,-0.08868408,0.20794678
1605203282671,592,-1.0351562,0.23968506,0.19671631
1605203282671,593,-1.0,-0.06060791,0.15985107
1605203282672,594,-1.0129395,0.03729248,0.28216553
1605203282673,595,-0.9135742,-0.020812988,0.0914917
1605203282675,596,-0.8378906,-0.08868408,0.20794678
1605203282676,597,-1.0129395,0.03729248,0.28216553
1605203282677,598,-1.0,-0.06060791,0.15985107
1605203282679,599,-1.0090332,-0.039855957,0.08905029
1605203282680,600,-1.0507812,-0.016418457,0.078552246
1605203282681,601,-0.8378906,-0.08868408,0.20794678
1605203282682,602,-1.171875,-0.031799316,0.07611084
1605203282693,603,-1.1816406,0.13201904,0.14349365
1605203282693,604,-1.0,-0.06060791,0.15985107
1605203282693,605,-0.7844238,0.22650146,0.13104248
1605203282693,606,-0.9135742,-0.020812988,0.0914917
1605203282693,607,-1.0021973,0.012634277,0.109802246
1605203282693,608,-1.0090332,-0.039855957,0.08905029
1605203282693,609,-0.9135742,-0.020812988,0.0914917
1605203282694,610,-1.0507812,-0.016418457,0.078552246
1605203282694,611,-0.8901367,0.1071167,0.024108887
1605203282694,612,-1.171875,-0.031799316,0.07611084
1605203282694,613,-1.1816406,0.13201904,0.14349365
1605203282694,614,-0.7844238,0.22650146,0.13104248
1605203282694,615,-1.0598145,0.121276855,0.08416748
1605203282694,616,-1.0090332,-0.039855957,0.08905029
1605203282694,617,-1.1257324,-0.041809082,0.25042725
1605203282698,618,-1.0021973,0.012634277,0.109802246
1605203282698,619,-0.9111328,0.0040893555,0.17669678
1605203282698,620,-1.0507812,-0.016418457,0.078552246
1605203282698,621,-0.8901367,0.1071167,0.024108887
1605203282698,622,-1.171875,-0.031799316,0.07611084
1605203282698,623,-1.1394043,-0.0032348633,0.20404053
1605203282699,624,-1.1816406,0.13201904,0.14349365
1605203282700,625,-0.9440918,-0.012268066,0.1618042
1605203282700,626,-1.0598145,0.121276855,0.08416748
1605203282700,627,-0.7844238,0.22650146,0.13104248
1605203282701,628,-0.8967285,-0.11578369,0.27337646
1605203282701,629,-1.0021973,0.012634277,0.109802246
1605203282701,630,-1.1257324,-0.041809082,0.25042725
1605203282702,631,-1.1604004,-0.026428223,0.26971436
1605203282702,632,-0.8901367,0.1071167,0.024108887
1605203282703,633,-0.99438477,0.055114746,0.25823975
1605203282703,634,-1.0598145,0.121276855,0.08416748
1605203282704,635,-0.88427734,0.09246826,0.13153076
1605203282705,636,-0.9111328,0.0040893555,0.17669678
1605203282705,637,-1.0546875,0.101257324,0.1473999
1605203282705,638,-1.1257324,-0.041809082,0.25042725
1605203282705,639,-1.0288086,0.12200928,0.055847168
1605203282706,640,-1.0913086,0.020935059,0.18890381
1605203282709,641,-0.9111328,0.0040893555,0.17669678
1605203282712,642,-0.89746094,-0.039367676,0.2140503
1605203282713,643,-1.1394043,-0.0032348633,0.20404053
1605203282713,644,-0.8564453,-0.09503174,0.14642334
1605203282713,645,-1.1394043,-0.0032348633,0.20404053
1605203282716,646,-0.9440918,-0.012268066,0.1618042
1605203282717,647,-0.9440918,-0.012268066,0.1618042
1605203282717,648,-1.2160645,0.0099487305,0.11224365
1605203282717,649,-0.8967285,-0.11578369,0.27337646
1605203282717,650,-0.90722656,-0.02520752,0.046569824
1605203282718,651,-1.1604004,-0.026428223,0.26971436
1605203282718,652,-0.8967285,-0.11578369,0.27337646
1605203282718,653,-0.99438477,0.055114746,0.25823975
1605203282719,654,-1.1604004,-0.026428223,0.26971436
1605203282720,655,-0.99438477,0.055114746,0.25823975
1605203282720,656,-0.88427734,0.09246826,0.13153076
1605203282721,657,-0.88427734,0.09246826,0.13153076
1605203282722,658,-1.0546875,0.101257324,0.1473999
1605203282722,659,-1.0546875,0.101257324,0.1473999
1605203282722,660,-1.0288086,0.12200928,0.055847168
1605203282724,661,-1.0288086,0.12200928,0.055847168
1605203282724,662,-1.0913086,0.020935059,0.18890381
1605203282724,663,-1.0913086,0.020935059,0.18890381
1605203282725,664,-0.89746094,-0.039367676,0.2140503
1605203282725,665,-0.89746094,-0.039367676,0.2140503
1605203282725,666,-0.8564453,-0.09503174,0.14642334
1605203282726,667,-0.8564453,-0.09503174,0.14642334
1605203282726,668,-1.2160645,0.0099487305,0.11224365
1605203282726,669,-1.2160645,0.0099487305,0.11224365
1605203282726,670,-0.90722656,-0.02520752,0.046569824
1605203282727,671,-0.90722656,-0.02520752,0.046569824
1605203285221,672,-1.1152344,-0.07183838,0.11102295
1605203285221,673,-1.1152344,-0.07183838,0.11102295
1605203285221,674,-1.1152344,-0.07183838,0.11102295
1605203285224,675,-1.2575684,0.0036010742,0.1149292
1605203285227,676,-1.2575684,0.0036010742,0.1149292
1605203285231,677,-1.0375977,0.13812256,0.16888428
1605203285234,678,-1.0375977,0.13812256,0.16888428
1605203285238,679,-0.78027344,0.101745605,0.0680542
1605203285241,680,-0.78027344,0.101745605,0.0680542
1605203285243,681,-1.1472168,-0.004211426,0.054382324
1605203285244,682,-1.1472168,-0.004211426,0.054382324
1605203285245,683,-0.80566406,0.13397217,0.026550293
1605203285249,684,-0.80566406,0.13397217,0.026550293
1605203285251,685,-1.0476074,0.10858154,0.012878418
1605203285255,686,-1.0476074,0.10858154,0.012878418
1605203285258,687,-1.2758789,-0.033996582,0.09295654
1605203285262,688,-1.2758789,-0.033996582,0.09295654
1605203285265,689,-0.84594727,-0.050109863,0.0914917
1605203285269,690,-0.84594727,-0.050109863,0.0914917
1605203285272,691,-1.0429688,-0.0051879883,0.06829834
1605203285278,692,-1.0429688,-0.0051879883,0.06829834
1605203285281,693,-1.0708008,-0.026184082,0.053894043
1605203285282,694,-1.2575684,0.0036010742,0.1149292
1605203285282,695,-1.0708008,-0.026184082,0.053894043
1605203285286,696,-0.95996094,-0.059631348,0.168396
1605203285286,697,-0.95996094,-0.059631348,0.168396
1605203285286,698,-1.0375977,0.13812256,0.16888428
1605203285289,699,-1.0732422,-0.12164307,0.21722412
1605203285292,700,-0.78027344,0.101745605,0.0680542
1605203285294,701,-1.0217285,0.022399902,0.15081787
1605203285298,702,-1.1472168,-0.004211426,0.054382324
1605203285301,703,-0.78930664,0.010192871,0.14910889
1605203285302,704,-0.80566406,0.13397217,0.026550293
1605203285303,705,-1.029541,0.0048217773,0.1671753
1605203285304,706,-1.0476074,0.10858154,0.012878418
1605203285305,707,-1.0107422,0.03265381,0.15594482
1605203285307,708,-1.2758789,-0.033996582,0.09295654
1605203285308,709,-0.96850586,0.020690918,0.18621826
1605203285308,710,-1.0732422,-0.12164307,0.21722412
1605203285310,711,-0.84594727,-0.050109863,0.0914917
1605203285310,712,-0.97143555,-0.023986816,0.23553467
1605203285311,713,-1.0217285,0.022399902,0.15081787
1605203285311,714,-1.0429688,-0.0051879883,0.06829834
1605203285312,715,-1.0373535,-0.082336426,0.1828003
1605203285312,716,-0.78930664,0.010192871,0.14910889
1605203285313,717,-1.0708008,-0.026184082,0.053894043
1605203285314,718,-1.0014648,0.035095215,0.028259277
1605203285315,719,-1.029541,0.0048217773,0.1671753
1605203285315,720,-1.1843262,-0.034729004,0.08856201
1605203285317,721,-1.0107422,0.03265381,0.15594482
1605203285318,722,-1.1125488,-0.08477783,0.078552246
1605203285318,723,-0.95996094,-0.059631348,0.168396
1605203285319,724,-0.96850586,0.020690918,0.18621826
1605203285320,725,-1.0732422,-0.12164307,0.21722412
1605203285320,726,-1.1520996,-0.024963379,0.15350342
1605203285321,727,-0.97143555,-0.023986816,0.23553467
1605203285322,728,-0.951416,0.055847168,0.27581787
1605203285323,729,-1.0373535,-0.082336426,0.1828003
1605203285324,730,-0.8623047,0.08294678,0.19989014
1605203285325,731,-1.0217285,0.022399902,0.15081787
1605203285325,732,-1.0014648,0.035095215,0.028259277
1605203285326,733,-0.78930664,0.010192871,0.14910889
1605203285327,734,-1.1547852,-0.04498291,0.24334717
1605203285328,735,-1.1843262,-0.034729004,0.08856201
1605203285328,736,-1.029541,0.0048217773,0.1671753
1605203285329,737,-1.1125488,-0.08477783,0.078552246
1605203285330,738,-1.0107422,0.03265381,0.15594482
1605203285331,739,-0.96850586,0.020690918,0.18621826
1605203285332,740,-0.8676758,-0.031555176,0.199646
1605203285332,741,-0.97143555,-0.023986816,0.23553467
1605203285333,742,-0.9296875,0.04876709,0.30926514
1605203285334,743,-1.1520996,-0.024963379,0.15350342
1605203285335,744,-0.94384766,0.05218506,0.40960693
1605203285335,745,-1.0373535,-0.082336426,0.1828003
1605203285336,746,-0.951416,0.055847168,0.27581787
1605203285337,747,-1.0869141,-0.13580322,0.39813232
1605203285337,748,-1.0014648,0.035095215,0.028259277
1605203285338,749,-0.8623047,0.08294678,0.19989014
1605203285338,750,-0.7385254,-0.17388916,0.369812
1605203285338,751,-1.1843262,-0.034729004,0.08856201
1605203285340,752,-1.1125488,-0.08477783,0.078552246
1605203285340,753,-1.1547852,-0.04498291,0.24334717
1605203285340,754,-1.1520996,-0.024963379,0.15350342
1605203285341,755,-0.8676758,-0.031555176,0.199646
1605203285342,756,-0.951416,0.055847168,0.27581787
1605203285343,757,-0.9296875,0.04876709,0.30926514
1605203285345,758,-0.8623047,0.08294678,0.19989014
1605203285345,759,-0.94384766,0.05218506,0.40960693
1605203285346,760,-1.0869141,-0.13580322,0.39813232
1605203285346,761,-1.1547852,-0.04498291,0.24334717
1605203285347,762,-0.7385254,-0.17388916,0.369812
1605203285348,763,-0.8676758,-0.031555176,0.199646
1605203285349,764,-0.9296875,0.04876709,0.30926514
1605203285350,765,-0.94384766,0.05218506,0.40960693
1605203285351,766,-1.0869141,-0.13580322,0.39813232
1605203285352,767,-0.7385254,-0.17388916,0.369812
1605203287601,768,-1.0837402,-0.1350708,0.262146
1605203287602,769,-1.0837402,-0.1350708,0.262146
1605203287602,770,-0.9602051,-0.101135254,0.24456787
1605203287603,771,-1.0837402,-0.1350708,0.262146
1605203287604,772,-0.9602051,-0.101135254,0.24456787
1605203287604,773,-1.0297852,-0.09259033,0.24066162
1605203287606,774,-1.0297852,-0.09259033,0.24066162
1605203287607,775,-0.9602051,-0.101135254,0.24456787
1605203287607,776,-1.0700684,-0.034484863,0.2765503
1605203287607,777,-1.0297852,-0.09259033,0.24066162
1605203287610,778,-0.9025879,-0.14385986,0.2555542
1605203287611,779,-1.0700684,-0.034484863,0.2765503
1605203287612,780,-0.6838379,0.117614746,0.053894043
1605203287613,781,-1.0700684,-0.034484863,0.2765503
1605203287614,782,-0.9025879,-0.14385986,0.2555542
1605203287615,783,-1.1520996,0.05267334,0.124938965
1605203287616,784,-0.6838379,0.117614746,0.053894043
1605203287617,785,-0.9025879,-0.14385986,0.2555542
1605203287618,786,-1.1520996,0.05267334,0.124938965
1605203287621,787,-1.1774902,0.094177246,0.094177246
1605203287621,788,-0.6838379,0.117614746,0.053894043
1605203287622,789,-1.1831055,0.042663574,0.073913574
1605203287622,790,-1.1520996,0.05267334,0.124938965
1605203287623,791,-1.1774902,0.094177246,0.094177246
1605203287623,792,-1.1779785,-0.020324707,0.16278076
1605203287623,793,-1.1774902,0.094177246,0.094177246
1605203287624,794,-0.8894043,0.0033569336,0.3085327
1605203287625,795,-1.1831055,0.042663574,0.073913574
1605203287625,796,-0.7077637,0.046081543,0.25823975
1605203287626,797,-1.1779785,-0.020324707,0.16278076
1605203287627,798,-1.1831055,0.042663574,0.073913574
1605203287628,799,-1.1779785,-0.020324707,0.16278076
1605203287628,800,-0.8894043,0.0033569336,0.3085327
1605203287630,801,-1.1899414,0.022644043,0.3024292
1605203287631,802,-0.7077637,0.046081543,0.25823975
1605203287631,803,-0.8894043,0.0033569336,0.3085327
1605203287631,804,-1.1899414,0.022644043,0.3024292
1605203287632,805,-0.81884766,-0.0413208,0.26898193
1605203287632,806,-0.7077637,0.046081543,0.25823975
1605203287632,807,-0.81884766,-0.0413208,0.26898193
1605203287633,808,-1.1899414,0.022644043,0.3024292
1605203287634,809,-0.8613281,-0.12261963,0.33465576
1605203287634,810,-0.8613281,-0.12261963,0.33465576
1605203287635,811,-0.89624023,-0.25006104,0.37054443
1605203287636,812,-0.81884766,-0.0413208,0.26898193
1605203287636,813,-0.89624023,-0.25006104,0.37054443
1605203287637,814,-0.84033203,-0.20343018,0.3554077
1605203287637,815,-0.8613281,-0.12261963,0.33465576
1605203287638,816,-0.84033203,-0.20343018,0.3554077
1605203287638,817,-0.84375,-0.010314941,0.31658936
1605203287640,818,-0.84375,-0.010314941,0.31658936
1605203287640,819,-0.89624023,-0.25006104,0.37054443
1605203287640,820,-0.8720703,-0.010803223,0.3024292
1605203287642,821,-0.84033203,-0.20343018,0.3554077
1605203287642,822,-0.8720703,-0.010803223,0.3024292
1605203287642,823,-0.7524414,-0.0881958,0.37542725
1605203287643,824,-0.84375,-0.010314941,0.31658936
1605203287644,825,-0.7524414,-0.0881958,0.37542725
1605203287644,826,-0.6315918,-0.18536377,0.46063232
1605203287645,827,-0.8720703,-0.010803223,0.3024292
1605203287646,828,-0.6315918,-0.18536377,0.46063232
1605203287646,829,-0.6933594,-0.37530518,0.59198
1605203287647,830,-0.7524414,-0.0881958,0.37542725
1605203287647,831,-0.85961914,-0.3201294,0.638855
1605203287648,832,-0.6933594,-0.37530518,0.59198
1605203287649,833,-0.6315918,-0.18536377,0.46063232
1605203287650,834,-0.85961914,-0.3201294,0.638855
1605203287650,835,-0.6516113,-0.44415283,0.74261475
1605203287651,836,-0.6933594,-0.37530518,0.59198
1605203287651,837,-0.73413086,-0.23443604,0.66571045
1605203287651,838,-0.6516113,-0.44415283,0.74261475
1605203287653,839,-0.85961914,-0.3201294,0.638855
1605203287653,840,-0.7385254,-0.27252197,0.7601929
1605203287653,841,-0.73413086,-0.23443604,0.66571045
1605203287654,842,-0.8149414,-0.31134033,0.83636475
1605203287655,843,-0.6516113,-0.44415283,0.74261475
1605203287655,844,-0.7385254,-0.27252197,0.7601929
1605203287657,845,-0.8195801,-0.3579712,0.7682495
1605203287658,846,-0.73413086,-0.23443604,0.66571045
1605203287659,847,-0.8149414,-0.31134033,0.83636475
1605203287660,848,-1.1289062,-0.15386963,0.69818115
1605203287660,849,-0.7385254,-0.27252197,0.7601929
1605203287660,850,-0.8195801,-0.3579712,0.7682495
1605203287660,851,-1.3679199,-0.022766113,0.33636475
1605203287661,852,-0.8149414,-0.31134033,0.83636475
1605203287661,853,-1.1289062,-0.15386963,0.69818115
1605203287661,854,-0.6652832,0.16937256,0.11981201
1605203287662,855,-0.8195801,-0.3579712,0.7682495
1605203287662,856,-1.3679199,-0.022766113,0.33636475
1605203287662,857,-1.1289062,-0.15386963,0.69818115
1605203287663,858,-0.99731445,0.22601318,0.034118652
1605203287664,859,-0.6652832,0.16937256,0.11981201
1605203287664,860,-1.3679199,-0.022766113,0.33636475
1605203287664,861,-0.99731445,0.22601318,0.034118652
1605203287665,862,-0.6652832,0.16937256,0.11981201
1605203287666,863,-0.99731445,0.22601318,0.034118652
1605203290187,864,-1.0136719,0.08294678,0.008972168
1605203290191,865,-1.0136719,0.08294678,0.008972168
1605203290195,866,-0.9169922,0.15057373,-0.038391113
1605203290198,867,-0.9169922,0.15057373,-0.038391113
1605203290202,868,-0.97998047,0.2597046,-0.09649658
1605203290206,869,-0.97998047,0.2597046,-0.09649658
1605203290209,870,-0.98779297,0.26556396,-0.007873535
1605203290211,871,-0.98779297,0.26556396,-0.007873535
1605203290216,872,-1.0373535,0.12860107,-0.04937744
1605203290217,873,-1.0136719,0.08294678,0.008972168
1605203290217,874,-1.0373535,0.12860107,-0.04937744
1605203290218,875,-0.96362305,0.19500732,-0.0635376
1605203290222,876,-0.96362305,0.19500732,-0.0635376
1605203290226,877,-1.1064453,0.21868896,-0.06744385
1605203290230,878,-1.1064453,0.21868896,-0.06744385
1605203290233,879,-0.90478516,0.23822021,-0.09698486
1605203290237,880,-0.90478516,0.23822021,-0.09698486
1605203290242,881,-0.986084,0.23724365,-0.032287598
1605203290242,882,-0.986084,0.23724365,-0.032287598
1605203290242,883,-0.9169922,0.15057373,-0.038391113
1605203290244,884,-0.9807129,0.25531006,0.035827637
1605203290246,885,-0.97998047,0.2597046,-0.09649658
1605203290248,886,-0.95581055,0.28045654,-0.015197754
1605203290249,887,-0.98779297,0.26556396,-0.007873535
1605203290253,888,-1.0839844,0.31658936,-0.027893066
1605203290254,889,-1.0373535,0.12860107,-0.04937744
1605203290256,890,-1.0241699,0.23406982,-0.013000488
1605203290257,891,-0.96362305,0.19500732,-0.0635376
1605203290258,892,-0.85595703,0.11566162,0.0036010742
1605203290258,893,-0.9807129,0.25531006,0.035827637
1605203290259,894,-1.1064453,0.21868896,-0.06744385
1605203290260,895,-0.95581055,0.28045654,-0.015197754
1605203290261,896,-0.90478516,0.23822021,-0.09698486
1605203290262,897,-1.0839844,0.31658936,-0.027893066
1605203290262,898,-1.0493164,0.13763428,0.039001465
1605203290263,899,-1.0302734,0.10784912,0.04144287
1605203290265,900,-1.0241699,0.23406982,-0.013000488
1605203290265,901,-0.9460449,0.12762451,0.018005371
1605203290266,902,-0.986084,0.23724365,-0.032287598
1605203290267,903,-1.0351562,0.14422607,0.08123779
1605203290267,904,-0.9807129,0.25531006,0.035827637
1605203290269,905,-0.9975586,0.043640137,0.1864624
1605203290270,906,-0.95581055,0.28045654,-0.015197754
1605203290271,907,-0.9169922,-0.0071411133,0.6195679
1605203290271,908,-1.0839844,0.31658936,-0.027893066
1605203290272,909,-0.85595703,0.11566162,0.0036010742
1605203290273,910,-1.0241699,0.23406982,-0.013000488
1605203290274,911,-0.970459,-0.4036255,0.86834717
1605203290275,912,-0.85595703,0.11566162,0.0036010742
1605203290275,913,-1.0493164,0.13763428,0.039001465
1605203290276,914,-0.96606445,-0.4607544,0.85565186
1605203290277,915,-1.0493164,0.13763428,0.039001465
1605203290278,916,-1.0302734,0.10784912,0.04144287
1605203290278,917,-0.99609375,-0.5210571,0.8890991
1605203290280,918,-0.9460449,0.12762451,0.018005371
1605203290280,919,-0.9777832,-0.3899536,0.80511475
1605203290281,920,-1.0351562,0.14422607,0.08123779
1605203290281,921,-0.9279785,-0.31427002,0.6491089
1605203290282,922,-0.9975586,0.043640137,0.1864624
1605203290283,923,-1.0302734,0.10784912,0.04144287
1605203290283,924,-0.9169922,-0.0071411133,0.6195679
1605203290284,925,-0.75268555,-0.19561768,0.43499756
1605203290284,926,-0.970459,-0.4036255,0.86834717
1605203290285,927,-0.38354492,-0.07965088,0.2616577
1605203290287,928,-0.9460449,0.12762451,0.018005371
1605203290287,929,-0.96606445,-0.4607544,0.85565186
1605203290287,930,-0.5053711,0.13104248,0.23724365
1605203290288,931,-0.87280273,0.06976318,0.24139404
1605203290289,932,-1.0351562,0.14422607,0.08123779
1605203290290,933,-0.6694336,0.09051514,0.23406982
1605203290291,934,-0.95092773,-0.05718994,0.24554443
1605203290292,935,-0.9975586,0.043640137,0.1864624
1605203290293,936,-0.8720703,-0.054748535,0.14154053
1605203290299,937,-0.9169922,-0.0071411133,0.6195679
1605203290300,938,-0.99609375,-0.5210571,0.8890991
1605203290300,939,-0.970459,-0.4036255,0.86834717
1605203290300,940,-0.9777832,-0.3899536,0.80511475
1605203290301,941,-0.96606445,-0.4607544,0.85565186
1605203290301,942,-0.9279785,-0.31427002,0.6491089
1605203290301,943,-0.99609375,-0.5210571,0.8890991
1605203290303,944,-0.9777832,-0.3899536,0.80511475
1605203290304,945,-0.9279785,-0.31427002,0.6491089
1605203290305,946,-0.75268555,-0.19561768,0.43499756
1605203290305,947,-0.75268555,-0.19561768,0.43499756
1605203290306,948,-0.38354492,-0.07965088,0.2616577
1605203290306,949,-0.5053711,0.13104248,0.23724365
1605203290307,950,-0.38354492,-0.07965088,0.2616577
1605203290308,951,-0.87280273,0.06976318,0.24139404
1605203290308,952,-0.5053711,0.13104248,0.23724365
1605203290309,953,-0.87280273,0.06976318,0.24139404
1605203290314,954,-0.6694336,0.09051514,0.23406982
1605203290314,955,-0.6694336,0.09051514,0.23406982
1605203290315,956,-0.95092773,-0.05718994,0.24554443
1605203290315,957,-0.95092773,-0.05718994,0.24554443
1605203290315,958,-0.8720703,-0.054748535,0.14154053
1605203290315,959,-0.8720703,-0.054748535,0.14154053
1605203292766,960,-1.138916,-0.008117676,0.06317139
1605203292767,961,-1.138916,-0.008117676,0.06317139
1605203292768,962,-1.0366211,0.0026245117,0.12249756
1605203292768,963,-1.138916,-0.008117676,0.06317139
1605203292770,964,-1.0095215,0.1071167,0.2267456
1605203292770,965,-1.0366211,0.0026245117,0.12249756
1605203292771,966,-1.0366211,0.0026245117,0.12249756
1605203292772,967,-1.0095215,0.1071167,0.2267456
1605203292777,968,-1.0095215,0.1071167,0.2267456
1605203292778,969,-1.0812988,0.20941162,0.109802246
1605203292778,970,-1.0812988,0.20941162,0.109802246
1605203292778,971,-1.0812988,0.20941162,0.109802246
1605203292778,972,-0.9724121,0.117614746,0.070739746
1605203292778,973,-0.9724121,0.117614746,0.070739746
1605203292779,974,-1.0476074,0.07879639,0.04559326
1605203292779,975,-1.0476074,0.07879639,0.04559326
1605203292781,976,-0.9724121,0.117614746,0.070739746
1605203292781,977,-0.8762207,0.15863037,0.0036010742
1605203292782,978,-0.8762207,0.15863037,0.0036010742
1605203292783,979,-1.0476074,0.07879639,0.04559326
1605203292783,980,-1.0720215,0.08538818,0.14349365
1605203292783,981,-1.0720215,0.08538818,0.14349365
1605203292785,982,-0.8762207,0.15863037,0.0036010742
1605203292785,983,-1.0505371,0.023864746,0.2140503
1605203292786,984,-1.0505371,0.023864746,0.2140503
1605203292786,985,-1.0720215,0.08538818,0.14349365
1605203292787,986,-0.94384766,0.039245605,0.20111084
1605203292787,987,-0.94384766,0.039245605,0.20111084
1605203292788,988,-1.0505371,0.023864746,0.2140503
1605203292789,989,-1.1276855,-0.0037231445,0.23040771
1605203292789,990,-1.1276855,-0.0037231445,0.23040771
1605203292789,991,-0.94384766,0.039245605,0.20111084
1605203292800,992,-0.90185547,-0.025939941,0.18426514
1605203292800,993,-0.90185547,-0.025939941,0.18426514
1605203292800,994,-1.1276855,-0.0037231445,0.23040771
1605203292801,995,-0.90966797,-0.09185791,0.3451538
1605203292802,996,-0.90966797,-0.09185791,0.3451538
1605203292802,997,-0.9482422,-0.081848145,0.38201904
1605203292802,998,-0.90185547,-0.025939941,0.18426514
1605203292803,999,-0.9482422,-0.081848145,0.38201904
1605203292803,1000,-1.0446777,0.15985107,0.38763428
1605203292803,1001,-0.95214844,-0.09820557,0.29608154
1605203292803,1002,-1.0446777,0.15985107,0.38763428
1605203292803,1003,-0.95214844,-0.09820557,0.29608154
1605203292803,1004,-0.9814453,-0.0413208,0.2111206
1605203292803,1005,-0.9814453,-0.0413208,0.2111206
1605203292804,1006,-0.94970703,0.010437012,0.19769287
1605203292804,1007,-0.90966797,-0.09185791,0.3451538
1605203292804,1008,-0.94970703,0.010437012,0.19769287
1605203292804,1009,-0.9482422,-0.081848145,0.38201904
1605203292804,1010,-0.8745117,-0.041809082,0.26678467
1605203292804,1011,-0.8745117,-0.041809082,0.26678467
1605203292804,1012,-1.0446777,0.15985107,0.38763428
1605203292804,1013,-1.076416,-0.10211182,0.12420654
1605203292804,1014,-1.076416,-0.10211182,0.12420654
1605203292805,1015,-0.95214844,-0.09820557,0.29608154
1605203292805,1016,-1.1074219,-0.21246338,0.09832764
1605203292805,1017,-1.1074219,-0.21246338,0.09832764
1605203292805,1018,-1.1899414,-0.21221924,0.13006592
1605203292808,1019,-0.9814453,-0.0413208,0.2111206
1605203292809,1020,-1.1899414,-0.21221924,0.13006592
1605203292809,1021,-0.96972656,-0.15557861,0.10345459
1605203292810,1022,-0.94970703,0.010437012,0.19769287
1605203292810,1023,-0.96972656,-0.15557861,0.10345459
1605203292811,1024,-1.1577148,0.074401855,0.14813232
1605203292811,1025,-0.8745117,-0.041809082,0.26678467
1605203292811,1026,-1.1577148,0.074401855,0.14813232
1605203292811,1027,-1.076416,-0.10211182,0.12420654
1605203292811,1028,-0.8942871,0.1749878,0.1642456
1605203292814,1029,-1.1071777,-0.046203613,0.14276123
1605203292814,1030,-0.8942871,0.1749878,0.1642456
1605203292814,1031,-1.1074219,-0.21246338,0.09832764
1605203292814,1032,-1.1071777,-0.046203613,0.14276123
1605203292814,1033,-0.84472656,-0.039123535,0.051940918
1605203292814,1034,-1.1899414,-0.21221924,0.13006592
1605203292814,1035,-0.96972656,-0.15557861,0.10345459
1605203292815,1036,-0.84472656,-0.039123535,0.051940918
1605203292816,1037,-0.93969727,0.007751465,0.09686279
1605203292816,1038,-1.1577148,0.074401855,0.14813232
1605203292816,1039,-0.93969727,0.007751465,0.09686279
1605203292817,1040,-0.8942871,0.1749878,0.1642456
1605203292817,1041,-1.1010742,0.012634277,0.093688965
1605203292817,1042,-1.1010742,0.012634277,0.093688965
1605203292818,1043,-1.1804199,-0.08892822,0.20062256
1605203292819,1044,-1.1071777,-0.046203613,0.14276123
1605203292819,1045,-1.1804199,-0.08892822,0.20062256
1605203292820,1046,-0.9094238,-0.09234619,0.3139038
1605203292820,1047,-0.84472656,-0.039123535,0.051940918
1605203292821,1048,-0.99365234,0.02508545,0.26312256
1605203292821,1049,-0.9094238,-0.09234619,0.3139038
1605203292821,1050,-0.93969727,0.007751465,0.09686279
1605203292822,1051,-1.1010742,0.012634277,0.093688965
1605203292822,1052,-0.99365234,0.02508545,0.26312256
1605203292828,1053,-1.1804199,-0.08892822,0.20062256
1605203292828,1054,-0.9094238,-0.09234619,0.3139038
1605203292828,1055,-0.99365234,0.02508545,0.26312256
1605203295355,1056,-1.020752,-0.085998535,0.26361084
1605203295359,1057,-1.020752,-0.085998535,0.26361084
1605203295362,1058,-0.8388672,-0.11651611,0.31414795
1605203295366,1059,-0.8388672,-0.11651611,0.31414795
1605203295370,1060,-0.9421387,-0.18707275,0.3222046
1605203295374,1061,-0.9421387,-0.18707275,0.3222046
1605203295378,1062,-0.9597168,-0.047668457,0.27069092
1605203295381,1063,-0.9597168,-0.047668457,0.27069092
1605203295385,1064,-0.99853516,0.043884277,0.31536865
1605203295388,1065,-0.99853516,0.043884277,0.31536865
1605203295391,1066,-1.0737305,-0.019104004,0.26239014
1605203295394,1067,-1.0737305,-0.019104004,0.26239014
1605203295396,1068,-0.9770508,0.013366699,0.16131592
1605203295398,1069,-0.9770508,0.013366699,0.16131592
1605203295402,1070,-0.99121094,0.031677246,0.26019287
1605203295405,1071,-0.99121094,0.031677246,0.26019287
1605203295408,1072,-0.96313477,0.1149292,0.24188232
1605203295412,1073,-0.96313477,0.1149292,0.24188232
1605203295415,1074,-1.0183105,0.13348389,0.19891357
1605203295418,1075,-1.0183105,0.13348389,0.19891357
1605203295420,1076,-1.0102539,0.14544678,0.17572021
1605203295422,1077,-1.020752,-0.085998535,0.26361084
1605203295425,1078,-1.0544434,0.16107178,0.15032959
1605203295426,1079,-0.8388672,-0.11651611,0.31414795
1605203295430,1080,-0.9165039,-0.0037231445,0.22772217
1605203295431,1081,-0.9421387,-0.18707275,0.3222046
1605203295433,1082,-0.9680176,-0.12188721,0.20672607
1605203295436,1083,-0.9597168,-0.047668457,0.27069092
1605203295438,1084,-1.112793,-0.13922119,0.17523193
1605203295439,1085,-0.99853516,0.043884277,0.31536865
1605203295439,1086,-0.94628906,-0.19854736,0.08319092
1605203295440,1087,-1.0102539,0.14544678,0.17572021
1605203295441,1088,-0.9279785,-0.14801025,0.05706787
1605203295442,1089,-1.0544434,0.16107178,0.15032959
1605203295443,1090,-1.0410156,-0.13995361,0.04534912
1605203295444,1091,-1.0737305,-0.019104004,0.26239014
1605203295445,1092,-1.0227051,-0.12506104,0.043640137
1605203295447,1093,-0.9770508,0.013366699,0.16131592
1605203295447,1094,-1.1750488,-0.13189697,0.011657715
1605203295449,1095,-0.9165039,-0.0037231445,0.22772217
1605203295449,1096,-1.3100586,-0.1038208,0.105407715
1605203295450,1097,-0.99121094,0.031677246,0.26019287
1605203295450,1098,-0.9680176,-0.12188721,0.20672607
1605203295451,1099,-1.112793,-0.13922119,0.17523193
1605203295452,1100,-0.8093262,-0.101623535,0.15374756
1605203295453,1101,-0.94628906,-0.19854736,0.08319092
1605203295454,1102,-0.92211914,-0.024963379,0.12884521
1605203295456,1103,-0.9279785,-0.14801025,0.05706787
1605203295456,1104,-1.0754395,-0.10748291,0.14593506
1605203295457,1105,-0.96313477,0.1149292,0.24188232
1605203295458,1106,-1.0183105,0.13348389,0.19891357
1605203295459,1107,-1.0410156,-0.13995361,0.04534912
1605203295459,1108,-1.0102539,0.14544678,0.17572021
1605203295460,1109,-1.0227051,-0.12506104,0.043640137
1605203295461,1110,-1.0544434,0.16107178,0.15032959
1605203295462,1111,-0.9165039,-0.0037231445,0.22772217
1605203295463,1112,-1.1750488,-0.13189697,0.011657715
1605203295464,1113,-0.9453125,-0.03643799,0.12322998
1605203295464,1114,-1.3100586,-0.1038208,0.105407715
1605203295464,1115,-0.9680176,-0.12188721,0.20672607
1605203295465,1116,-0.90185547,-0.06060791,0.20843506
1605203295466,1117,-0.8093262,-0.101623535,0.15374756
1605203295466,1118,-1.112793,-0.13922119,0.17523193
1605203295467,1119,-0.9609375,-0.034484863,0.29364014
1605203295468,1120,-0.92211914,-0.024963379,0.12884521
1605203295468,1121,-0.94628906,-0.19854736,0.08319092
1605203295468,1122,-1.0463867,-0.14752197,0.35369873
1605203295469,1123,-1.0754395,-0.10748291,0.14593506
1605203295470,1124,-0.9279785,-0.14801025,0.05706787
1605203295470,1125,-1.0041504,-0.39849854,0.5194702
1605203295471,1126,-1.0410156,-0.13995361,0.04534912
1605203295471,1127,-0.9453125,-0.03643799,0.12322998
1605203295471,1128,-0.97631836,-0.22613525,0.3378296
1605203295472,1129,-1.0227051,-0.12506104,0.043640137
1605203295474,1130,-0.8378906,-0.17633057,0.29925537
1605203295474,1131,-0.90185547,-0.06060791,0.20843506
1605203295475,1132,-1.1750488,-0.13189697,0.011657715
1605203295476,1133,-1.0593262,-0.1741333,0.24969482
1605203295476,1134,-0.9609375,-0.034484863,0.29364014
1605203295477,1135,-1.3100586,-0.1038208,0.105407715
1605203295477,1136,-1.0463867,-0.14752197,0.35369873
1605203295478,1137,-0.8093262,-0.101623535,0.15374756
1605203295479,1138,-1.0041504,-0.39849854,0.5194702
1605203295479,1139,-0.92211914,-0.024963379,0.12884521
1605203295479,1140,-0.97631836,-0.22613525,0.3378296
1605203295479,1141,-1.0754395,-0.10748291,0.14593506
1605203295480,1142,-0.8378906,-0.17633057,0.29925537
1605203295481,1143,-0.9453125,-0.03643799,0.12322998
1605203295482,1144,-1.0593262,-0.1741333,0.24969482
1605203295483,1145,-0.90185547,-0.06060791,0.20843506
1605203295483,1146,-0.9609375,-0.034484863,0.29364014
1605203295484,1147,-1.0463867,-0.14752197,0.35369873
1605203295485,1148,-1.0041504,-0.39849854,0.5194702
1605203295486,1149,-0.97631836,-0.22613525,0.3378296
1605203295486,1150,-0.8378906,-0.17633057,0.29925537
1605203295487,1151,-1.0593262,-0.1741333,0.24969482
1605203297934,1152,-0.99121094,-0.11871338,0.30560303
1605203297934,1153,-0.99121094,-0.11871338,0.30560303
1605203297936,1154,-0.8701172,-0.14337158,0.35321045
1605203297937,1155,-0.8701172,-0.14337158,0.35321045
1605203297940,1156,-0.8339844,-0.038146973,0.28094482
1605203297940,1157,-0.99121094,-0.11871338,0.30560303
1605203297941,1158,-0.8339844,-0.038146973,0.28094482
1605203297941,1159,-1.2148438,0.09857178,0.26605225
1605203297942,1160,-1.2148438,0.09857178,0.26605225
1605203297943,1161,-0.9980469,0.11541748,0.19256592
1605203297945,1162,-0.9980469,0.11541748,0.19256592
1605203297946,1163,-0.8701172,-0.14337158,0.35321045
1605203297946,1164,-0.9406738,0.082214355,0.15716553
1605203297946,1165,-0.8339844,-0.038146973,0.28094482
1605203297947,1166,-0.9406738,0.082214355,0.15716553
1605203297947,1167,-1.2148438,0.09857178,0.26605225
1605203297949,1168,-0.9980469,0.11541748,0.19256592
1605203297949,1169,-1.0449219,0.0033569336,0.24261475
1605203297951,1170,-1.0449219,0.0033569336,0.24261475
1605203297952,1171,-0.9406738,0.082214355,0.15716553
1605203297952,1172,-0.96728516,0.04119873,0.28045654
1605203297953,1173,-0.96728516,0.04119873,0.28045654
1605203297953,1174,-1.0163574,-0.053527832,0.43743896
1605203297954,1175,-1.0449219,0.0033569336,0.24261475
1605203297955,1176,-1.0163574,-0.053527832,0.43743896
1605203297955,1177,-0.96728516,0.04119873,0.28045654
1605203297955,1178,-0.94311523,-0.19244385,0.49554443
1605203297956,1179,-0.94311523,-0.19244385,0.49554443
1605203297957,1180,-0.77368164,-0.20172119,0.42889404
1605203297957,1181,-1.0163574,-0.053527832,0.43743896
1605203297958,1182,-0.77368164,-0.20172119,0.42889404
1605203297959,1183,-0.94311523,-0.19244385,0.49554443
1605203297960,1184,-1.0148926,-0.10699463,0.42108154
1605203297962,1185,-1.0148926,-0.10699463,0.42108154
1605203297962,1186,-0.77368164,-0.20172119,0.42889404
1605203297963,1187,-0.88427734,-0.14361572,0.36810303
1605203297964,1188,-0.88427734,-0.14361572,0.36810303
1605203297965,1189,-1.0148926,-0.10699463,0.42108154
1605203297965,1190,-0.90966797,-0.10992432,0.42108154
1605203297965,1191,-0.89331055,-0.04888916,0.4381714
1605203297966,1192,-0.88427734,-0.14361572,0.36810303
1605203297966,1193,-0.90966797,-0.10992432,0.42108154
1605203297966,1194,-0.88012695,-0.05303955,0.35198975
1605203297968,1195,-0.90966797,-0.10992432,0.42108154
1605203297968,1196,-0.89331055,-0.04888916,0.4381714
1605203297968,1197,-1.0043945,-0.04498291,0.16326904
1605203297968,1198,-0.89331055,-0.04888916,0.4381714
1605203297969,1199,-0.88012695,-0.05303955,0.35198975
1605203297969,1200,-1.1621094,-0.04425049,0.11199951
1605203297970,1201,-1.0043945,-0.04498291,0.16326904
1605203297971,1202,-0.88012695,-0.05303955,0.35198975
1605203297972,1203,-1.204834,-0.06060791,0.17034912
1605203297981,1204,-1.1621094,-0.04425049,0.11199951
1605203297981,1205,-1.0043945,-0.04498291,0.16326904
1605203297981,1206,-0.8811035,0.07366943,0.30706787
1605203297982,1207,-1.1621094,-0.04425049,0.11199951
1605203297982,1208,-0.68847656,0.2892456,0.4232788
1605203297983,1209,-1.204834,-0.06060791,0.17034912
1605203297989,1210,-1.204834,-0.06060791,0.17034912
1605203297990,1211,-0.76782227,0.40570068,0.3607788
1605203297990,1212,-0.8811035,0.07366943,0.30706787
1605203297990,1213,-0.8979492,0.3324585,0.19793701
1605203297990,1214,-0.8811035,0.07366943,0.30706787
1605203297990,1215,-0.68847656,0.2892456,0.4232788
1605203297990,1216,-0.68847656,0.2892456,0.4232788
1605203297990,1217,-0.76782227,0.40570068,0.3607788
1605203297991,1218,-0.76782227,0.40570068,0.3607788
1605203297992,1219,-0.8979492,0.3324585,0.19793701
1605203297993,1220,-0.9484863,0.41619873,0.29730225
1605203297993,1221,-0.8979492,0.3324585,0.19793701
1605203297995,1222,-0.7519531,0.6659546,0.20819092
1605203297995,1223,-0.9484863,0.41619873,0.29730225
1605203297996,1224,-0.9484863,0.41619873,0.29730225
1605203297996,1225,-0.97924805,0.3397827,0.12615967
1605203297996,1226,-0.7519531,0.6659546,0.20819092
1605203297996,1227,-0.86279297,0.41522217,0.16790771
1605203297996,1228,-0.7519531,0.6659546,0.20819092
1605203297997,1229,-0.97924805,0.3397827,0.12615967
1605203297998,1230,-0.9484863,0.44158936,0.16375732
1605203297999,1231,-0.97924805,0.3397827,0.12615967
1605203298000,1232,-0.86279297,0.41522217,0.16790771
1605203298000,1233,-0.86279297,0.41522217,0.16790771
1605203298002,1234,-0.94750977,0.3986206,0.14251709
1605203298003,1235,-0.9484863,0.44158936,0.16375732
1605203298003,1236,-0.9484863,0.44158936,0.16375732
1605203298003,1237,-0.94750977,0.3986206,0.14251709
1605203298003,1238,-0.9362793,0.3764038,0.0993042
1605203298003,1239,-0.94750977,0.3986206,0.14251709
1605203298004,1240,-1.0632324,0.32977295,0.11102295
1605203298005,1241,-0.9362793,0.3764038,0.0993042
1605203298005,1242,-0.9362793,0.3764038,0.0993042
1605203298005,1243,-0.9855957,0.4869995,0.14178467
1605203298005,1244,-1.0632324,0.32977295,0.11102295
1605203298006,1245,-1.0632324,0.32977295,0.11102295
1605203298007,1246,-0.9855957,0.4869995,0.14178467
1605203298007,1247,-0.9855957,0.4869995,0.14178467
1605203300713,1248,-0.98291016,0.25213623,0.18841553
1605203300714,1249,-0.8100586,0.22503662,0.1437378
1605203300714,1250,-0.98291016,0.25213623,0.18841553
1605203300714,1251,-0.8664551,0.4857788,0.40447998
1605203300715,1252,-0.98291016,0.25213623,0.18841553
1605203300715,1253,-0.8100586,0.22503662,0.1437378
1605203300716,1254,-0.8664551,0.4857788,0.40447998
1605203300716,1255,-0.8730469,0.05633545,0.44891357
1605203300716,1256,-0.8730469,0.05633545,0.44891357
1605203300717,1257,-0.8100586,0.22503662,0.1437378
1605203300717,1258,-1.2202148,-0.17120361,0.24041748
1605203300717,1259,-0.8664551,0.4857788,0.40447998
1605203300717,1260,-0.861084,-0.24298096,0.2904663
1605203300718,1261,-1.2202148,-0.17120361,0.24041748
1605203300718,1262,-0.9699707,-0.24884033,0.28460693
1605203300719,1263,-0.8730469,0.05633545,0.44891357
1605203300719,1264,-0.83618164,-0.20709229,0.35614014
1605203300719,1265,-0.861084,-0.24298096,0.2904663
1605203300719,1266,-1.2202148,-0.17120361,0.24041748
1605203300720,1267,-1.0305176,-0.33380127,0.2904663
1605203300720,1268,-0.861084,-0.24298096,0.2904663
1605203300721,1269,-0.9699707,-0.24884033,0.28460693
1605203300721,1270,-0.9699707,-0.24884033,0.28460693
1605203300721,1271,-0.9963379,-0.29840088,0.17352295
1605203300721,1272,-0.83618164,-0.20709229,0.35614014
1605203300721,1273,-0.83618164,-0.20709229,0.35614014
1605203300722,1274,-1.1203613,-0.2564087,0.14105225
1605203300722,1275,-1.0305176,-0.33380127,0.2904663
1605203300722,1276,-1.0305176,-0.33380127,0.2904663
1605203300722,1277,-0.8666992,-0.17315674,0.21185303
1605203300723,1278,-0.9963379,-0.29840088,0.17352295
1605203300723,1279,-0.9963379,-0.29840088,0.17352295
1605203300723,1280,-0.96728516,-0.18487549,0.23651123
1605203300723,1281,-1.1203613,-0.2564087,0.14105225
1605203300723,1282,-1.1203613,-0.2564087,0.14105225
1605203300724,1283,-1.0012207,-0.14190674,0.19500732
1605203300724,1284,-0.8666992,-0.17315674,0.21185303
1605203300724,1285,-1.0935059,-0.117492676,0.05340576
1605203300724,1286,-0.8666992,-0.17315674,0.21185303
1605203300725,1287,-0.96728516,-0.18487549,0.23651123
1605203300725,1288,-0.93896484,-0.06378174,0.19989014
1605203300725,1289,-0.96728516,-0.18487549,0.23651123
1605203300725,1290,-1.0012207,-0.14190674,0.19500732
1605203300725,1291,-1.0825195,0.008239746,0.113708496
1605203300726,1292,-1.0012207,-0.14190674,0.19500732
1605203300726,1293,-0.9975586,-0.046447754,0.055114746
1605203300726,1294,-1.0935059,-0.117492676,0.05340576
1605203300727,1295,-1.0935059,-0.117492676,0.05340576
1605203300727,1296,-1.0163574,-0.0017700195,0.24993896
1605203300727,1297,-0.93896484,-0.06378174,0.19989014
1605203300728,1298,-1.1005859,-0.049865723,0.039245605
1605203300728,1299,-1.0825195,0.008239746,0.113708496
1605203300728,1300,-0.93896484,-0.06378174,0.19989014
1605203300728,1301,-1.0166016,0.04071045,-0.062561035
1605203300729,1302,-0.9975586,-0.046447754,0.055114746
1605203300729,1303,-1.0825195,0.008239746,0.113708496
1605203300729,1304,-1.0163574,-0.0017700195,0.24993896
1605203300729,1305,-1.1848145,0.028503418,-0.034973145
1605203300729,1306,-0.9975586,-0.046447754,0.055114746
1605203300729,1307,-1.1005859,-0.049865723,0.039245605
1605203300730,1308,-1.0163574,-0.0017700195,0.24993896
1605203300730,1309,-1.003418,-0.054260254,0.1461792
1605203300730,1310,-1.0166016,0.04071045,-0.062561035
1605203300730,1311,-1.1005859,-0.049865723,0.039245605
1605203300730,1312,-0.9963379,-0.1921997,0.32781982
1605203300731,1313,-1.1848145,0.028503418,-0.034973145
1605203300731,1314,-0.8918457,-0.43121338,0.2477417
1605203300731,1315,-1.0166016,0.04071045,-0.062561035
1605203300731,1316,-1.003418,-0.054260254,0.1461792
1605203300731,1317,-0.9301758,-0.13140869,0.32000732
1605203300732,1318,-0.9963379,-0.1921997,0.32781982
1605203300732,1319,-1.1848145,0.028503418,-0.034973145
1605203300732,1320,-0.907959,-0.061828613,0.2753296
1605203300733,1321,-0.8918457,-0.43121338,0.2477417
1605203300733,1322,-1.003418,-0.054260254,0.1461792
1605203300733,1323,-0.9091797,-0.07330322,0.28240967
1605203300733,1324,-0.9301758,-0.13140869,0.32000732
1605203300733,1325,-0.9963379,-0.1921997,0.32781982
1605203300733,1326,-1.0375977,0.1251831,0.3883667
1605203300734,1327,-0.907959,-0.061828613,0.2753296
1605203300734,1328,-0.8918457,-0.43121338,0.2477417
1605203300734,1329,-1.1643066,-0.24859619,0.19012451
1605203300734,1330,-0.9301758,-0.13140869,0.32000732
1605203300735,1331,-0.9091797,-0.07330322,0.28240967
1605203300735,1332,-1.0270996,-0.050598145,0.16107178
1605203300735,1333,-0.907959,-0.061828613,0.2753296
1605203300735,1334,-1.0375977,0.1251831,0.3883667
1605203300735,1335,-1.1271973,-0.1482544,0.15740967
1605203300736,1336,-0.9091797,-0.07330322,0.28240967
1605203300736,1337,-1.1643066,-0.24859619,0.19012451
1605203300737,1338,-1.0375977,0.1251831,0.3883667
1605203300737,1339,-1.0270996,-0.050598145,0.16107178
1605203300737,1340,-1.1643066,-0.24859619,0.19012451
1605203300737,1341,-1.1271973,-0.1482544,0.15740967
1605203300738,1342,-1.0270996,-0.050598145,0.16107178
1605203300738,1343,-1.1271973,-0.1482544,0.15740967
1605203303098,1344,-1.0661621,-0.24591064,0.2008667
1605203303099,1345,-1.0661621,-0.24591064,0.2008667
1605203303099,1346,-1.0661621,-0.24591064,0.2008667
1605203303099,1347,-1.0317383,-0.20269775,0.31732178
1605203303100,1348,-1.0317383,-0.20269775,0.31732178
1605203303100,1349,-1.0317383,-0.20269775,0.31732178
1605203303100,1350,-0.7890625,-0.11578369,0.28704834
1605203303101,1351,-0.7890625,-0.11578369,0.28704834
1605203303101,1352,-0.7890625,-0.11578369,0.28704834
1605203303101,1353,-0.89160156,0.14349365,0.34979248
1605203303101,1354,-0.89160156,0.14349365,0.34979248
1605203303102,1355,-0.9370117,0.11883545,0.3895874
1605203303102,1356,-0.89160156,0.14349365,0.34979248
1605203303102,1357,-0.9370117,0.11883545,0.3895874
1605203303102,1358,-0.9370117,0.11883545,0.3895874
1605203303102,1359,-1.0144043,0.06463623,0.26116943
1605203303102,1360,-1.0144043,0.06463623,0.26116943
1605203303103,1361,-1.0180664,-0.010803223,0.35028076
1605203303103,1362,-1.0180664,-0.010803223,0.35028076
1605203303103,1363,-1.0144043,0.06463623,0.26116943
1605203303104,1364,-0.8334961,0.13568115,0.45550537
1605203303104,1365,-0.8334961,0.13568115,0.45550537
1605203303104,1366,-1.0180664,-0.010803223,0.35028076
1605203303104,1367,-0.9584961,0.11810303,0.43670654
1605203303105,1368,-0.9584961,0.11810303,0.43670654
1605203303105,1369,-0.8334961,0.13568115,0.45550537
1605203303105,1370,-0.63256836,-0.07232666,0.5036011
1605203303106,1371,-0.63256836,-0.07232666,0.5036011
1605203303106,1372,-0.9584961,0.11810303,0.43670654
1605203303106,1373,-0.9753418,0.16107178,0.46331787
1605203303107,1374,-0.63256836,-0.07232666,0.5036011
1605203303107,1375,-0.9753418,0.16107178,0.46331787
1605203303107,1376,-1.0026855,0.02947998,0.2741089
1605203303107,1377,-0.9753418,0.16107178,0.46331787
1605203303108,1378,-1.0026855,0.02947998,0.2741089
1605203303108,1379,-1.0148926,0.06097412,0.2789917
1605203303108,1380,-1.0148926,0.06097412,0.2789917
1605203303108,1381,-1.0026855,0.02947998,0.2741089
1605203303108,1382,-0.90625,-0.11505127,0.354187
1605203303109,1383,-0.90625,-0.11505127,0.354187
1605203303109,1384,-0.92456055,0.0848999,0.33685303
1605203303109,1385,-1.0148926,0.06097412,0.2789917
1605203303110,1386,-1.0842285,-0.08306885,0.11102295
1605203303110,1387,-0.92456055,0.0848999,0.33685303
1605203303110,1388,-0.90625,-0.11505127,0.354187
1605203303111,1389,-1.0842285,-0.08306885,0.11102295
1605203303111,1390,-1.1374512,0.0211792,0.06463623
1605203303111,1391,-0.92456055,0.0848999,0.33685303
1605203303111,1392,-1.1130371,-0.0051879883,0.02947998
1605203303112,1393,-1.1374512,0.0211792,0.06463623
1605203303112,1394,-1.0842285,-0.08306885,0.11102295
1605203303113,1395,-1.0444336,-0.11968994,-0.0049438477
1605203303113,1396,-1.1130371,-0.0051879883,0.02947998
1605203303113,1397,-1.1374512,0.0211792,0.06463623
1605203303113,1398,-1.0444336,-0.11968994,-0.0049438477
1605203303113,1399,-1.1364746,-0.07550049,0.034118652
1605203303114,1400,-1.1364746,-0.07550049,0.034118652
1605203303114,1401,-1.1130371,-0.0051879883,0.02947998
1605203303114,1402,-1.1350098,-0.046203613,0.23919678
1605203303114,1403,-1.1350098,-0.046203613,0.23919678
1605203303115,1404,-1.0444336,-0.11968994,-0.0049438477
1605203303115,1405,-0.72021484,-0.117004395,0.1293335
1605203303115,1406,-1.1364746,-0.07550049,0.034118652
1605203303115,1407,-0.72021484,-0.117004395,0.1293335
1605203303116,1408,-0.9604492,0.029724121,0.14227295
1605203303116,1409,-1.1350098,-0.046203613,0.23919678
1605203303116,1410,-0.99658203,0.04827881,0.05633545
1605203303117,1411,-0.9604492,0.029724121,0.14227295
1605203303117,1412,-0.72021484,-0.117004395,0.1293335
1605203303117,1413,-0.99658203,0.04827881,0.05633545
1605203303118,1414,-0.94799805,-0.0056762695,0.07904053
1605203303118,1415,-0.94799805,-0.0056762695,0.07904053
1605203303118,1416,-1.0852051,-0.04425049,0.14764404
1605203303119,1417,-0.9604492,0.029724121,0.14227295
1605203303119,1418,-1.0852051,-0.04425049,0.14764404
1605203303119,1419,-1.182373,-0.061340332,0.2218628
1605203303119,1420,-0.99658203,0.04827881,0.05633545
1605203303120,1421,-1.182373,-0.061340332,0.2218628
1605203303120,1422,-0.94799805,-0.0056762695,0.07904053
1605203303120,1423,-0.8522949,0.16448975,0.14105225
1605203303121,1424,-1.0852051,-0.04425049,0.14764404
1605203303121,1425,-0.8522949,0.16448975,0.14105225
1605203303121,1426,-1.0668945,0.054626465,0.124938965
1605203303122,1427,-1.182373,-0.061340332,0.2218628
1605203303122,1428,-1.0668945,0.054626465,0.124938965
1605203303122,1429,-1.0285645,0.09246826,0.10491943
1605203303122,1430,-1.0285645,0.09246826,0.10491943
1605203303122,1431,-0.89404297,0.08148193,0.09075928
1605203303123,1432,-0.8522949,0.16448975,0.14105225
1605203303123,1433,-0.89404297,0.08148193,0.09075928
1605203303123,1434,-1.0615234,0.08319092,0.17718506
1605203303123,1435,-1.0668945,0.054626465,0.124938965
1605203303124,1436,-1.0615234,0.08319092,0.17718506
1605203303124,1437,-1.0285645,0.09246826,0.10491943
1605203303124,1438,-0.89404297,0.08148193,0.09075928
1605203303125,1439,-1.0615234,0.08319092,0.17718506
1605203305683,1440,-1.0793457,0.0021362305,0.2802124
1605203305683,1441,-1.0793457,0.0021362305,0.2802124
1605203305684,1442,-0.87231445,0.13031006,0.30560303
1605203305684,1443,-1.1323242,-0.10406494,0.26678467
1605203305686,1444,-0.86694336,-0.046936035,0.23699951
1605203305686,1445,-0.87231445,0.13031006,0.30560303
1605203305686,1446,-1.0793457,0.0021362305,0.2802124
1605203305688,1447,-0.87231445,0.13031006,0.30560303
1605203305689,1448,-1.1323242,-0.10406494,0.26678467
1605203305689,1449,-1.1323242,-0.10406494,0.26678467
1605203305689,1450,-0.86694336,-0.046936035,0.23699951
1605203305690,1451,-0.9489746,-0.11651611,0.33148193
1605203305697,1452,-0.86694336,-0.046936035,0.23699951
1605203305697,1453,-0.9597168,-0.16436768,0.36810303
1605203305701,1454,-0.9489746,-0.11651611,0.33148193
1605203305703,1455,-0.9489746,-0.11651611,0.33148193
1605203305703,1456,-1.1218262,0.0040893555,0.27850342
1605203305703,1457,-0.9597168,-0.16436768,0.36810303
1605203305706,1458,-0.9597168,-0.16436768,0.36810303
1605203305706,1459,-0.9326172,0.13494873,0.23309326
1605203305706,1460,-1.1218262,0.0040893555,0.27850342
1605203305706,1461,-1.1218262,0.0040893555,0.27850342
1605203305711,1462,-1.0900879,-0.007385254,0.17694092
1605203305713,1463,-0.9326172,0.13494873,0.23309326
1605203305713,1464,-0.9326172,0.13494873,0.23309326
1605203305713,1465,-1.0900879,-0.007385254,0.17694092
1605203305714,1466,-0.9433594,0.09442139,0.10101318
1605203305714,1467,-1.0900879,-0.007385254,0.17694092
1605203305714,1468,-0.94506836,0.1708374,0.1293335
1605203305714,1469,-0.9433594,0.09442139,0.10101318
1605203305714,1470,-0.9433594,0.09442139,0.10101318
1605203305714,1471,-1.0651855,0.24285889,0.17034912
1605203305714,1472,-0.94506836,0.1708374,0.1293335
1605203305714,1473,-0.94506836,0.1708374,0.1293335
1605203305715,1474,-1.0651855,0.24285889,0.17034912
1605203305715,1475,-0.94091797,0.20257568,0.24700928
1605203305716,1476,-1.0651855,0.24285889,0.17034912
1605203305716,1477,-0.94091797,0.20257568,0.24700928
1605203305717,1478,-1.0925293,0.13787842,0.3234253
1605203305718,1479,-1.0925293,0.13787842,0.3234253
1605203305718,1480,-0.94091797,0.20257568,0.24700928
1605203305720,1481,-0.7739258,-0.031066895,0.26800537
1605203305720,1482,-0.7739258,-0.031066895,0.26800537
1605203305721,1483,-1.0869141,0.03314209,0.25115967
1605203305722,1484,-1.0869141,0.03314209,0.25115967
1605203305725,1485,-1.0925293,0.13787842,0.3234253
1605203305726,1486,-0.9309082,0.008972168,0.22991943
1605203305726,1487,-0.9309082,0.008972168,0.22991943
1605203305726,1488,-0.7739258,-0.031066895,0.26800537
1605203305727,1489,-0.9934082,-0.057678223,0.25653076
1605203305728,1490,-1.0869141,0.03314209,0.25115967
1605203305728,1491,-0.9572754,-0.09088135,0.3427124
1605203305729,1492,-0.9934082,-0.057678223,0.25653076
1605203305730,1493,-1.0725098,-0.11871338,0.39178467
1605203305731,1494,-0.9572754,-0.09088135,0.3427124
1605203305735,1495,-0.96118164,0.07269287,0.3312378
1605203305735,1496,-0.9309082,0.008972168,0.22991943
1605203305736,1497,-1.0725098,-0.11871338,0.39178467
1605203305744,1498,-0.8972168,0.023864746,0.277771
1605203305744,1499,-0.9934082,-0.057678223,0.25653076
1605203305744,1500,-0.96118164,0.07269287,0.3312378
1605203305745,1501,-0.9572754,-0.09088135,0.3427124
1605203305745,1502,-0.8972168,0.023864746,0.277771
1605203305745,1503,-0.9863281,-0.08380127,0.25408936
1605203305745,1504,-1.0725098,-0.11871338,0.39178467
1605203305745,1505,-0.9863281,-0.08380127,0.25408936
1605203305745,1506,-0.9628906,-0.08013916,0.24993896
1605203305745,1507,-0.9628906,-0.08013916,0.24993896
1605203305746,1508,-0.96118164,0.07269287,0.3312378
1605203305746,1509,-0.73706055,-0.042297363,0.35125732
1605203305746,1510,-0.8972168,0.023864746,0.277771
1605203305747,1511,-0.73706055,-0.042297363,0.35125732
1605203305748,1512,-0.91503906,-0.16046143,0.3908081
1605203305748,1513,-0.9863281,-0.08380127,0.25408936
1605203305748,1514,-0.91503906,-0.16046143,0.3908081
1605203305748,1515,-1.4450684,-0.3567505,0.41082764
1605203305749,1516,-1.4450684,-0.3567505,0.41082764
1605203305749,1517,-0.9628906,-0.08013916,0.24993896
1605203305750,1518,-0.9550781,-0.21099854,0.25457764
1605203305750,1519,-0.73706055,-0.042297363,0.35125732
1605203305751,1520,-0.73291016,-0.2432251,0.23284912
1605203305751,1521,-0.91503906,-0.16046143,0.3908081
1605203305752,1522,-1.0136719,-0.3340454,0.2850952
1605203305752,1523,-1.4450684,-0.3567505,0.41082764
1605203305752,1524,-0.9550781,-0.21099854,0.25457764
1605203305752,1525,-0.9550781,-0.21099854,0.25457764
1605203305753,1526,-0.8913574,-0.16314697,0.22259521
1605203305753,1527,-0.73291016,-0.2432251,0.23284912
1605203305754,1528,-1.0593262,0.03656006,0.19476318
1605203305754,1529,-0.73291016,-0.2432251,0.23284912
1605203305755,1530,-1.0136719,-0.3340454,0.2850952
1605203305755,1531,-1.0136719,-0.3340454,0.2850952
1605203305756,1532,-0.8913574,-0.16314697,0.22259521
1605203305756,1533,-0.8913574,-0.16314697,0.22259521
1605203305758,1534,-1.0593262,0.03656006,0.19476318
1605203305758,1535,-1.0593262,0.03656006,0.19476318
1605203308471,1536,-1.3522949,-0.089416504,0.26727295
1605203308475,1537,-1.3522949,-0.089416504,0.26727295
1605203308476,1538,-0.79785156,-0.032287598,0.14422607
1605203308476,1539,-1.3522949,-0.089416504,0.26727295
1605203308479,1540,-0.79785156,-0.032287598,0.14422607
1605203308480,1541,-0.9609375,0.0836792,0.18182373
1605203308480,1542,-0.79785156,-0.032287598,0.14422607
1605203308482,1543,-0.9609375,0.0836792,0.18182373
1605203308486,1544,-0.9609375,0.0836792,0.18182373
1605203308486,1545,-0.9362793,0.11419678,0.25531006
1605203308486,1546,-0.9362793,0.11419678,0.25531006
1605203308487,1547,-0.9362793,0.11419678,0.25531006
1605203308489,1548,-1.0583496,0.19696045,0.18792725
1605203308490,1549,-1.0583496,0.19696045,0.18792725
1605203308492,1550,-1.0583496,0.19696045,0.18792725
1605203308495,1551,-0.91064453,0.25946045,0.14276123
1605203308496,1552,-0.91064453,0.25946045,0.14276123
1605203308496,1553,-0.95874023,0.2555542,0.121032715
1605203308497,1554,-0.91064453,0.25946045,0.14276123
1605203308501,1555,-0.95874023,0.2555542,0.121032715
1605203308501,1556,-0.95874023,0.2555542,0.121032715
1605203308501,1557,-1.0380859,0.2946167,0.10467529
1605203308503,1558,-1.0380859,0.2946167,0.10467529
1605203308505,1559,-0.9382324,0.22235107,0.2946167
1605203308506,1560,-1.0380859,0.2946167,0.10467529
1605203308506,1561,-0.9382324,0.22235107,0.2946167
1605203308508,1562,-0.87939453,0.07122803,0.38079834
1605203308509,1563,-0.87939453,0.07122803,0.38079834
1605203308512,1564,-0.9382324,0.22235107,0.2946167
1605203308513,1565,-0.9645996,0.21453857,0.2850952
1605203308513,1566,-0.9645996,0.21453857,0.2850952
1605203308515,1567,-0.9172363,0.2345581,0.31414795
1605203308516,1568,-0.87939453,0.07122803,0.38079834
1605203308516,1569,-0.9172363,0.2345581,0.31414795
1605203308517,1570,-1.0183105,0.08709717,0.3053589
1605203308518,1571,-0.9645996,0.21453857,0.2850952
1605203308520,1572,-1.0227051,0.07513428,0.30926514
1605203308522,1573,-0.9172363,0.2345581,0.31414795
1605203308522,1574,-1.0183105,0.08709717,0.3053589
1605203308524,1575,-0.9243164,0.2477417,0.26287842
1605203308526,1576,-1.0227051,0.07513428,0.30926514
1605203308528,1577,-0.92211914,0.24481201,0.33709717
1605203308529,1578,-0.9243164,0.2477417,0.26287842
1605203308531,1579,-1.1154785,0.086364746,0.28338623
1605203308533,1580,-0.92211914,0.24481201,0.33709717
1605203308534,1581,-0.736084,0.15545654,0.12615967
1605203308536,1582,-1.1154785,0.086364746,0.28338623
1605203308537,1583,-0.9951172,0.11883545,0.11395264
1605203308538,1584,-0.736084,0.15545654,0.12615967
1605203308540,1585,-1.0625,0.03265381,0.26531982
1605203308543,1586,-1.0183105,0.08709717,0.3053589
1605203308544,1587,-0.9951172,0.11883545,0.11395264
1605203308544,1588,-1.0197754,0.008972168,0.34661865
1605203308544,1589,-1.0227051,0.07513428,0.30926514
1605203308548,1590,-1.0625,0.03265381,0.26531982
1605203308548,1591,-0.8029785,0.035583496,0.27923584
1605203308549,1592,-0.9243164,0.2477417,0.26287842
1605203308549,1593,-1.0197754,0.008972168,0.34661865
1605203308549,1594,-1.2089844,-0.008361816,0.36517334
1605203308549,1595,-0.92211914,0.24481201,0.33709717
1605203308550,1596,-0.8029785,0.035583496,0.27923584
1605203308552,1597,-1.1154785,0.086364746,0.28338623
1605203308554,1598,-1.2089844,-0.008361816,0.36517334
1605203308555,1599,-0.736084,0.15545654,0.12615967
1605203308555,1600,-0.8642578,-0.003967285,0.31610107
1605203308560,1601,-0.9951172,0.11883545,0.11395264
1605203308561,1602,-0.8642578,-0.003967285,0.31610107
1605203308561,1603,-0.8952637,-0.11798096,0.3739624
1605203308561,1604,-1.0625,0.03265381,0.26531982
1605203308561,1605,-0.8952637,-0.11798096,0.3739624
1605203308561,1606,-0.98779297,-0.13067627,0.39593506
1605203308561,1607,-1.0197754,0.008972168,0.34661865
1605203308564,1608,-0.98779297,-0.13067627,0.39593506
1605203308564,1609,-1.0454102,0.14715576,0.3156128
1605203308564,1610,-0.8029785,0.035583496,0.27923584
1605203308565,1611,-1.0454102,0.14715576,0.3156128
1605203308566,1612,-1.2089844,-0.008361816,0.36517334
1605203308568,1613,-0.8642578,-0.003967285,0.31610107
1605203308570,1614,-0.8947754,0.11273193,0.33026123
1605203308571,1615,-0.8947754,0.11273193,0.33026123
1605203308573,1616,-1.0397949,0.08123779,0.29022217
1605203308577,1617,-1.0397949,0.08123779,0.29022217
1605203308578,1618,-0.8952637,-0.11798096,0.3739624
1605203308578,1619,-0.91430664,0.22845459,0.21697998
1605203308578,1620,-0.91430664,0.22845459,0.21697998
1605203308578,1621,-0.98779297,-0.13067627,0.39593506
1605203308578,1622,-0.9284668,0.15447998,0.25994873
1605203308579,1623,-1.0410156,0.047058105,0.32391357
1605203308581,1624,-0.9284668,0.15447998,0.25994873
1605203308583,1625,-1.0454102,0.14715576,0.3156128
1605203308584,1626,-1.0410156,0.047058105,0.32391357
1605203308586,1627,-0.8947754,0.11273193,0.33026123
1605203308588,1628,-1.0397949,0.08123779,0.29022217
1605203308590,1629,-0.91430664,0.22845459,0.21697998
1605203308592,1630,-0.9284668,0.15447998,0.25994873
1605203308594,1631,-1.0410156,0.047058105,0.32391357
1605203312147,1632,-0.9123535,0.053649902,0.26654053
1605203312155,1633,-1.0461426,-0.013977051,0.18084717
1605203312157,1634,-0.9123535,0.053649902,0.26654053
1605203312157,1635,-1.0690918,0.007507324,0.16497803
1605203312157,1636,-1.0461426,-0.013977051,0.18084717
1605203312158,1637,-0.94311523,-0.002746582,0.20648193
1605203312159,1638,-0.9123535,0.053649902,0.26654053
1605203312160,1639,-1.0690918,0.007507324,0.16497803
1605203312162,1640,-0.9675293,0.02557373,0.24139404
1605203312167,1641,-1.0612793,0.1852417,0.21038818
1605203312168,1642,-1.0461426,-0.013977051,0.18084717
1605203312168,1643,-0.94311523,-0.002746582,0.20648193
1605203312169,1644,-0.78027344,0.14007568,0.2489624
1605203312170,1645,-0.9675293,0.02557373,0.24139404
1605203312172,1646,-1.1003418,0.17840576,0.33172607
1605203312174,1647,-1.0612793,0.1852417,0.21038818
1605203312176,1648,-0.9880371,0.17767334,0.276062
1605203312178,1649,-0.78027344,0.14007568,0.2489624
1605203312178,1650,-0.8730469,0.16864014,0.27313232
1605203312180,1651,-1.0690918,0.007507324,0.16497803
1605203312181,1652,-0.93530273,0.10760498,0.28875732
1605203312183,1653,-0.94311523,-0.002746582,0.20648193
1605203312185,1654,-0.9387207,0.11566162,0.340271
1605203312188,1655,-0.9675293,0.02557373,0.24139404
1605203312189,1656,-1.1584473,0.18988037,0.29022217
1605203312189,1657,-1.1003418,0.17840576,0.33172607
1605203312192,1658,-1.0612793,0.1852417,0.21038818
1605203312193,1659,-0.9916992,0.2333374,0.2086792
1605203312193,1660,-0.9880371,0.17767334,0.276062
1605203312193,1661,-0.9572754,0.09246826,0.19622803
1605203312198,1662,-0.78027344,0.14007568,0.2489624
1605203312198,1663,-0.94750977,0.048034668,0.17718506
1605203312198,1664,-0.8730469,0.16864014,0.27313232
1605203312198,1665,-1.1003418,0.17840576,0.33172607
1605203312198,1666,-0.9345703,0.08099365,0.17010498
1605203312198,1667,-0.93530273,0.10760498,0.28875732
1605203312199,1668,-0.9880371,0.17767334,0.276062
1605203312202,1669,-0.9387207,0.11566162,0.340271
1605203312202,1670,-0.95458984,0.33709717,0.21234131
1605203312202,1671,-0.8730469,0.16864014,0.27313232
1605203312202,1672,-0.861084,0.37225342,0.23382568
1605203312202,1673,-1.1584473,0.18988037,0.29022217
1605203312205,1674,-0.9916992,0.2333374,0.2086792
1605203312205,1675,-0.93530273,0.10760498,0.28875732
1605203312205,1676,-1.0205078,0.47235107,0.22381592
1605203312205,1677,-0.9572754,0.09246826,0.19622803
1605203312206,1678,-0.80200195,0.44207764,0.17449951
1605203312206,1679,-0.94750977,0.048034668,0.17718506
1605203312206,1680,-0.9387207,0.11566162,0.340271
1605203312206,1681,-0.8786621,0.4298706,0.17767334
1605203312209,1682,-0.9345703,0.08099365,0.17010498
1605203312210,1683,-1.1584473,0.18988037,0.29022217
1605203312210,1684,-0.92163086,0.3300171,0.19598389
1605203312210,1685,-0.95458984,0.33709717,0.21234131
1605203312210,1686,-0.9916992,0.2333374,0.2086792
1605203312210,1687,-0.765625,0.22698975,0.16400146
1605203312211,1688,-0.9572754,0.09246826,0.19622803
1605203312214,1689,-0.861084,0.37225342,0.23382568
1605203312215,1690,-0.94750977,0.048034668,0.17718506
1605203312216,1691,-0.9345703,0.08099365,0.17010498
1605203312216,1692,-1.0205078,0.47235107,0.22381592
1605203312216,1693,-1.0800781,0.4093628,0.14984131
1605203312216,1694,-0.95458984,0.33709717,0.21234131
1605203312216,1695,-0.80200195,0.44207764,0.17449951
1605203312217,1696,-0.9511719,0.30413818,0.10394287
1605203312217,1697,-0.861084,0.37225342,0.23382568
1605203312218,1698,-0.8786621,0.4298706,0.17767334
1605203312218,1699,-0.92529297,0.25213623,0.09661865
1605203312219,1700,-1.0205078,0.47235107,0.22381592
1605203312222,1701,-0.99072266,0.32928467,0.113708496
1605203312222,1702,-0.92163086,0.3300171,0.19598389
1605203312222,1703,-0.80200195,0.44207764,0.17449951
1605203312223,1704,-1.1467285,0.42108154,0.2736206
1605203312223,1705,-0.8786621,0.4298706,0.17767334
1605203312223,1706,-0.765625,0.22698975,0.16400146
1605203312223,1707,-0.7885742,0.30950928,0.31732178
1605203312224,1708,-0.92163086,0.3300171,0.19598389
1605203312224,1709,-1.0800781,0.4093628,0.14984131
1605203312225,1710,-0.92285156,0.28948975,0.20697021
1605203312225,1711,-0.765625,0.22698975,0.16400146
1605203312226,1712,-0.9511719,0.30413818,0.10394287
1605203312228,1713,-1.0800781,0.4093628,0.14984131
1605203312228,1714,-0.9765625,0.3595581,0.23138428
1605203312230,1715,-0.92529297,0.25213623,0.09661865
1605203312230,1716,-0.9511719,0.30413818,0.10394287
1605203312231,1717,-0.99072266,0.32928467,0.113708496
1605203312232,1718,-0.92529297,0.25213623,0.09661865
1605203312233,1719,-1.1467285,0.42108154,0.2736206
1605203312234,1720,-0.99072266,0.32928467,0.113708496
1605203312235,1721,-0.7885742,0.30950928,0.31732178
1605203312236,1722,-1.1467285,0.42108154,0.2736206
1605203312236,1723,-0.7885742,0.30950928,0.31732178
1605203312238,1724,-0.92285156,0.28948975,0.20697021
1605203312238,1725,-0.92285156,0.28948975,0.20697021
1605203312239,1726,-0.9765625,0.3595581,0.23138428
1605203312239,1727,-0.9765625,0.3595581,0.23138428
1605203314577,1728,-0.86499023,0.24945068,0.291687
1605203314577,1729,-0.86499023,0.24945068,0.291687
1605203314578,1730,-0.86499023,0.24945068,0.291687
1605203314578,1731,-0.77441406,0.20599365,0.3241577
1605203314580,1732,-0.888916,0.074401855,0.45013428
1605203314582,1733,-0.77441406,0.20599365,0.3241577
1605203314583,1734,-0.77441406,0.20599365,0.3241577
1605203314584,1735,-0.9404297,-0.124816895,0.5319214
1605203314584,1736,-0.888916,0.074401855,0.45013428
1605203314584,1737,-1.0427246,0.054870605,0.41815186
1605203314584,1738,-0.888916,0.074401855,0.45013428
1605203314584,1739,-0.8820801,0.07928467,0.3217163
1605203314584,1740,-0.9404297,-0.124816895,0.5319214
1605203314584,1741,-0.9404297,-0.124816895,0.5319214
1605203314585,1742,-0.90527344,0.0072631836,0.30975342
1605203314585,1743,-1.0427246,0.054870605,0.41815186
1605203314586,1744,-0.8820801,0.07928467,0.3217163
1605203314586,1745,-0.90527344,0.0072631836,0.30975342
1605203314587,1746,-1.0427246,0.054870605,0.41815186
1605203314588,1747,-0.9328613,0.005065918,0.44622803
1605203314589,1748,-0.8786621,0.21575928,0.39422607
1605203314589,1749,-0.8820801,0.07928467,0.3217163
1605203314590,1750,-0.90527344,0.0072631836,0.30975342
1605203314591,1751,-1.0778809,0.15911865,0.29022217
1605203314591,1752,-0.9328613,0.005065918,0.44622803
1605203314592,1753,-1.0783691,0.1984253,0.2584839
1605203314592,1754,-0.9328613,0.005065918,0.44622803
1605203314593,1755,-0.9760742,0.17376709,0.30194092
1605203314593,1756,-0.8786621,0.21575928,0.39422607
1605203314593,1757,-0.8786621,0.21575928,0.39422607
1605203314593,1758,-0.97875977,0.070007324,0.51116943
1605203314594,1759,-1.0778809,0.15911865,0.29022217
1605203314597,1760,-1.0778809,0.15911865,0.29022217
1605203314597,1761,-0.6999512,0.12249756,0.43988037
1605203314597,1762,-1.0783691,0.1984253,0.2584839
1605203314597,1763,-1.0783691,0.1984253,0.2584839
1605203314597,1764,-1.1166992,0.2880249,0.43499756
1605203314598,1765,-0.9760742,0.17376709,0.30194092
1605203314598,1766,-0.9760742,0.17376709,0.30194092
1605203314598,1767,-0.8249512,0.09637451,0.35760498
1605203314598,1768,-0.97875977,0.070007324,0.51116943
1605203314598,1769,-0.97875977,0.070007324,0.51116943
1605203314598,1770,-0.8276367,0.046569824,0.4147339
1605203314598,1771,-0.6999512,0.12249756,0.43988037
1605203314598,1772,-0.6999512,0.12249756,0.43988037
1605203314598,1773,-0.87060547,0.09832764,0.4537964
1605203314598,1774,-1.1166992,0.2880249,0.43499756
1605203314599,1775,-1.1166992,0.2880249,0.43499756
1605203314599,1776,-1.0163574,0.2321167,0.3685913
1605203314599,1777,-0.8249512,0.09637451,0.35760498
1605203314599,1778,-0.8249512,0.09637451,0.35760498
1605203314600,1779,-0.7504883,0.32122803,0.28778076
1605203314600,1780,-0.8276367,0.046569824,0.4147339
1605203314600,1781,-0.8276367,0.046569824,0.4147339
1605203314601,1782,-0.90478516,0.28094482,0.37298584
1605203314601,1783,-0.87060547,0.09832764,0.4537964
1605203314601,1784,-0.8911133,0.45233154,0.3444214
1605203314602,1785,-1.0163574,0.2321167,0.3685913
1605203314602,1786,-0.87060547,0.09832764,0.4537964
1605203314603,1787,-0.7504883,0.32122803,0.28778076
1605203314604,1788,-0.74902344,0.39715576,0.39227295
1605203314604,1789,-1.0163574,0.2321167,0.3685913
1605203314604,1790,-0.7504883,0.32122803,0.28778076
1605203314605,1791,-0.8942871,0.40423584,0.37738037
1605203314605,1792,-0.90478516,0.28094482,0.37298584
1605203314605,1793,-0.90478516,0.28094482,0.37298584
1605203314606,1794,-0.7866211,0.24261475,0.28070068
1605203314606,1795,-0.8911133,0.45233154,0.3444214
1605203314606,1796,-0.8911133,0.45233154,0.3444214
1605203314607,1797,-0.9831543,0.27093506,0.2579956
1605203314607,1798,-0.74902344,0.39715576,0.39227295
1605203314607,1799,-0.74902344,0.39715576,0.39227295
1605203314607,1800,-1.015625,0.32122803,0.22064209
1605203314608,1801,-0.8942871,0.40423584,0.37738037
1605203314608,1802,-0.8942871,0.40423584,0.37738037
1605203314609,1803,-0.9313965,0.33465576,0.2333374
1605203314609,1804,-0.7866211,0.24261475,0.28070068
1605203314610,1805,-0.7866211,0.24261475,0.28070068
1605203314610,1806,-1.027832,0.48114014,0.4147339
1605203314610,1807,-0.9831543,0.27093506,0.2579956
1605203314611,1808,-0.9831543,0.27093506,0.2579956
1605203314611,1809,-1.015625,0.32122803,0.22064209
1605203314612,1810,-0.6147461,0.27166748,0.39007568
1605203314613,1811,-1.015625,0.32122803,0.22064209
1605203314614,1812,-0.9313965,0.33465576,0.2333374
1605203314615,1813,-0.9313965,0.33465576,0.2333374
1605203314615,1814,-1.027832,0.48114014,0.4147339
1605203314616,1815,-1.027832,0.48114014,0.4147339
1605203314616,1816,-1.0058594,0.40130615,0.33026123
1605203314617,1817,-0.6147461,0.27166748,0.39007568
1605203314618,1818,-0.6147461,0.27166748,0.39007568
1605203314618,1819,-0.83862305,0.31854248,0.30975342
1605203314619,1820,-1.0058594,0.40130615,0.33026123
1605203314619,1821,-1.0058594,0.40130615,0.33026123
1605203314619,1822,-0.83862305,0.31854248,0.30975342
1605203314620,1823,-0.83862305,0.31854248,0.30975342
1605203316760,1824,-0.7553711,0.28118896,0.34246826
1605203316760,1825,-0.7553711,0.28118896,0.34246826
1605203316760,1826,-0.7636719,0.31097412,0.4352417
1605203316761,1827,-0.7553711,0.28118896,0.34246826
1605203316761,1828,-0.7636719,0.31097412,0.4352417
1605203316761,1829,-0.83496094,0.28778076,0.4796753
1605203316762,1830,-0.7636719,0.31097412,0.4352417
1605203316763,1831,-0.8498535,0.04168701,0.5231323
1605203316764,1832,-0.83496094,0.28778076,0.4796753
1605203316764,1833,-0.9616699,-0.0044555664,0.55462646
1605203316766,1834,-0.8498535,0.04168701,0.5231323
1605203316766,1835,-0.83496094,0.28778076,0.4796753
1605203316766,1836,-0.9616699,-0.0044555664,0.55462646
1605203316766,1837,-0.8498535,0.04168701,0.5231323
1605203316766,1838,-0.9890137,0.089782715,0.5055542
1605203316767,1839,-0.9890137,0.089782715,0.5055542
1605203316767,1840,-0.9616699,-0.0044555664,0.55462646
1605203316768,1841,-0.9470215,0.04949951,0.4640503
1605203316769,1842,-0.9890137,0.089782715,0.5055542
1605203316769,1843,-0.8491211,0.03363037,0.40057373
1605203316771,1844,-0.9470215,0.04949951,0.4640503
1605203316771,1845,-0.9470215,0.04949951,0.4640503
1605203316771,1846,-0.8105469,-0.032043457,0.4208374
1605203316771,1847,-0.8491211,0.03363037,0.40057373
1605203316771,1848,-1.1281738,0.2802124,0.3241577
1605203316771,1849,-0.8491211,0.03363037,0.40057373
1605203316772,1850,-0.8105469,-0.032043457,0.4208374
1605203316772,1851,-1.0061035,0.09881592,0.21234131
1605203316773,1852,-0.8105469,-0.032043457,0.4208374
1605203316774,1853,-1.1281738,0.2802124,0.3241577
1605203316774,1854,-0.9692383,0.15765381,0.13421631
1605203316774,1855,-1.1281738,0.2802124,0.3241577
1605203316774,1856,-1.0334473,0.124694824,0.10345459
1605203316775,1857,-1.0061035,0.09881592,0.21234131
1605203316775,1858,-1.140625,-0.010070801,0.26727295
1605203316776,1859,-0.9692383,0.15765381,0.13421631
1605203316776,1860,-1.0061035,0.09881592,0.21234131
1605203316777,1861,-0.7426758,-0.0635376,0.21258545
1605203316777,1862,-1.0930176,0.04168701,0.20477295
1605203316777,1863,-1.0334473,0.124694824,0.10345459
1605203316778,1864,-0.9692383,0.15765381,0.13421631
1605203316778,1865,-0.98291016,0.036071777,0.26116943
1605203316779,1866,-1.140625,-0.010070801,0.26727295
1605203316779,1867,-1.0334473,0.124694824,0.10345459
1605203316779,1868,-0.82250977,-0.042297363,0.33831787
1605203316780,1869,-0.7426758,-0.0635376,0.21258545
1605203316780,1870,-1.140625,-0.010070801,0.26727295
1605203316781,1871,-1.0571289,0.13763428,0.23944092
1605203316781,1872,-1.0930176,0.04168701,0.20477295
1605203316781,1873,-0.7426758,-0.0635376,0.21258545
1605203316782,1874,-1.0930176,0.04168701,0.20477295
1605203316783,1875,-0.98291016,0.036071777,0.26116943
1605203316783,1876,-1.0427246,0.14593506,0.2694702
1605203316783,1877,-0.98291016,0.036071777,0.26116943
1605203316784,1878,-0.92626953,0.16033936,0.15374756
1605203316785,1879,-0.82250977,-0.042297363,0.33831787
1605203316785,1880,-0.82250977,-0.042297363,0.33831787
1605203316785,1881,-0.98461914,0.19329834,0.09222412
1605203316786,1882,-1.0571289,0.13763428,0.23944092
1605203316786,1883,-1.0571289,0.13763428,0.23944092
1605203316786,1884,-1.0427246,0.14593506,0.2694702
1605203316787,1885,-0.9968262,0.15130615,-0.0095825195
1605203316787,1886,-1.0427246,0.14593506,0.2694702
1605203316787,1887,-0.92626953,0.16033936,0.15374756
1605203316787,1888,-1.0180664,0.2296753,0.042907715
1605203316788,1889,-0.98461914,0.19329834,0.09222412
1605203316788,1890,-0.92626953,0.16033936,0.15374756
1605203316789,1891,-1.0251465,0.31658936,0.09686279
1605203316789,1892,-0.9968262,0.15130615,-0.0095825195
1605203316790,1893,-0.98461914,0.19329834,0.09222412
1605203316790,1894,-1.0651855,0.081726074,0.09954834
1605203316791,1895,-0.9968262,0.15130615,-0.0095825195
1605203316791,1896,-0.98095703,-0.11627197,-0.0051879883
1605203316792,1897,-1.0180664,0.2296753,0.042907715
1605203316792,1898,-1.0180664,0.2296753,0.042907715
1605203316793,1899,-1.0483398,-0.042541504,-0.034729004
1605203316793,1900,-1.0251465,0.31658936,0.09686279
1605203316794,1901,-1.0251465,0.31658936,0.09686279
1605203316794,1902,-0.8859863,0.0211792,-0.08648682
1605203316794,1903,-1.0651855,0.081726074,0.09954834
1605203316795,1904,-1.0651855,0.081726074,0.09954834
1605203316796,1905,-1.0097656,0.06365967,-0.08355713
1605203316796,1906,-0.98095703,-0.11627197,-0.0051879883
1605203316796,1907,-0.98095703,-0.11627197,-0.0051879883
1605203316796,1908,-1.0483398,-0.042541504,-0.034729004
1605203316797,1909,-1.0483398,-0.042541504,-0.034729004
1605203316797,1910,-1.1975098,0.07879639,-0.12286377
1605203316797,1911,-1.2231445,0.23651123,-0.031066895
1605203316798,1912,-0.8859863,0.0211792,-0.08648682
1605203316798,1913,-0.8859863,0.0211792,-0.08648682
1605203316799,1914,-1.0097656,0.06365967,-0.08355713
1605203316799,1915,-1.0097656,0.06365967,-0.08355713
1605203316800,1916,-1.1975098,0.07879639,-0.12286377
1605203316800,1917,-1.1975098,0.07879639,-0.12286377
1605203316800,1918,-1.2231445,0.23651123,-0.031066895
1605203316801,1919,-1.2231445,0.23651123,-0.031066895
1605203319342,1920,-0.85424805,0.34783936,-0.008361816
1605203319343,1921,-0.85424805,0.34783936,-0.008361816
1605203319343,1922,-0.96728516,0.18695068,0.026794434
1605203319344,1923,-0.96728516,0.18695068,0.026794434
1605203319345,1924,-0.8066406,0.22088623,-0.06378174
1605203319346,1925,-0.8066406,0.22088623,-0.06378174
1605203319347,1926,-0.8522949,0.20697021,0.014343262
1605203319348,1927,-0.8522949,0.20697021,0.014343262
1605203319349,1928,-1.2304688,0.19866943,-0.043273926
1605203319349,1929,-0.85424805,0.34783936,-0.008361816
1605203319350,1930,-1.2304688,0.19866943,-0.043273926
1605203319350,1931,-1.126709,0.051696777,0.09588623
1605203319351,1932,-0.96728516,0.18695068,0.026794434
1605203319351,1933,-1.126709,0.051696777,0.09588623
1605203319352,1934,-0.9362793,0.01361084,0.16864014
1605203319352,1935,-1.0136719,0.11566162,0.19769287
1605203319353,1936,-0.9362793,0.01361084,0.16864014
1605203319353,1937,-0.8066406,0.22088623,-0.06378174
1605203319354,1938,-1.0136719,0.11566162,0.19769287
1605203319355,1939,-0.8522949,0.20697021,0.014343262
1605203319356,1940,-1.0712891,-0.03253174,0.24481201
1605203319356,1941,-1.2304688,0.19866943,-0.043273926
1605203319357,1942,-1.0712891,-0.03253174,0.24481201
1605203319358,1943,-0.89160156,-0.08917236,0.31878662
1605203319358,1944,-1.126709,0.051696777,0.09588623
1605203319362,1945,-0.89160156,-0.08917236,0.31878662
1605203319362,1946,-0.8876953,-0.05279541,0.38397217
1605203319362,1947,-0.9362793,0.01361084,0.16864014
1605203319362,1948,-0.8876953,-0.05279541,0.38397217
1605203319363,1949,-0.9934082,0.030944824,0.31903076
1605203319363,1950,-1.0136719,0.11566162,0.19769287
1605203319363,1951,-0.9934082,0.030944824,0.31903076
1605203319364,1952,-0.95996094,0.12884521,0.33636475
1605203319364,1953,-1.3022461,0.11590576,0.14276123
1605203319365,1954,-0.95996094,0.12884521,0.33636475
1605203319365,1955,-0.8540039,0.03387451,0.094177246
1605203319366,1956,-1.0712891,-0.03253174,0.24481201
1605203319367,1957,-1.0192871,0.11590576,0.023132324
1605203319368,1958,-0.89160156,-0.08917236,0.31878662
1605203319369,1959,-1.0622559,0.054382324,0.08294678
1605203319369,1960,-0.8876953,-0.05279541,0.38397217
1605203319370,1961,-1.3022461,0.11590576,0.14276123
1605203319370,1962,-0.9484863,-0.062561035,0.1329956
1605203319370,1963,-0.9934082,0.030944824,0.31903076
1605203319370,1964,-0.8540039,0.03387451,0.094177246
1605203319371,1965,-0.9016113,-0.12310791,0.11663818
1605203319373,1966,-0.95996094,0.12884521,0.33636475
1605203319374,1967,-1.0192871,0.11590576,0.023132324
1605203319374,1968,-1.1516113,-0.13238525,0.14520264
1605203319374,1969,-1.3022461,0.11590576,0.14276123
1605203319374,1970,-1.0419922,-0.12310791,0.042663574
1605203319375,1971,-1.0622559,0.054382324,0.08294678
1605203319375,1972,-1.0310059,-0.054016113,0.086120605
1605203319376,1973,-0.8540039,0.03387451,0.094177246
1605203319376,1974,-0.9484863,-0.062561035,0.1329956
1605203319376,1975,-1.2246094,0.08270264,0.20648193
1605203319377,1976,-1.0192871,0.11590576,0.023132324
1605203319377,1977,-0.9016113,-0.12310791,0.11663818
1605203319378,1978,-0.97143555,0.26385498,0.23797607
1605203319378,1979,-1.0622559,0.054382324,0.08294678
1605203319379,1980,-1.1516113,-0.13238525,0.14520264
1605203319379,1981,-0.95581055,0.121276855,0.17645264
1605203319380,1982,-0.9484863,-0.062561035,0.1329956
1605203319380,1983,-1.0419922,-0.12310791,0.042663574
1605203319382,1984,-0.97753906,0.03265381,0.12664795
1605203319382,1985,-0.9016113,-0.12310791,0.11663818
1605203319382,1986,-1.0310059,-0.054016113,0.086120605
1605203319383,1987,-0.8408203,0.08148193,0.093444824
1605203319383,1988,-1.1516113,-0.13238525,0.14520264
1605203319384,1989,-1.2246094,0.08270264,0.20648193
1605203319384,1990,-1.0786133,0.20379639,0.11199951
1605203319384,1991,-1.0419922,-0.12310791,0.042663574
1605203319386,1992,-1.1181641,0.13909912,0.053894043
1605203319386,1993,-0.97143555,0.26385498,0.23797607
1605203319386,1994,-1.0310059,-0.054016113,0.086120605
1605203319387,1995,-1.0808105,0.07513428,0.2230835
1605203319387,1996,-0.95581055,0.121276855,0.17645264
1605203319387,1997,-1.2246094,0.08270264,0.20648193
1605203319387,1998,-0.97753906,0.03265381,0.12664795
1605203319389,1999,-0.7783203,0.109558105,0.24285889
1605203319389,2000,-0.97143555,0.26385498,0.23797607
1605203319389,2001,-0.8408203,0.08148193,0.093444824
1605203319390,2002,-1.1923828,0.117370605,0.20184326
1605203319391,2003,-1.0786133,0.20379639,0.11199951
1605203319391,2004,-0.95581055,0.121276855,0.17645264
1605203319391,2005,-1.1181641,0.13909912,0.053894043
1605203319391,2006,-0.97753906,0.03265381,0.12664795
1605203319392,2007,-1.0808105,0.07513428,0.2230835
1605203319392,2008,-0.8408203,0.08148193,0.093444824
1605203319393,2009,-0.7783203,0.109558105,0.24285889
1605203319394,2010,-1.0786133,0.20379639,0.11199951
1605203319394,2011,-1.1923828,0.117370605,0.20184326
1605203319394,2012,-1.1181641,0.13909912,0.053894043
1605203319395,2013,-1.0808105,0.07513428,0.2230835
1605203319396,2014,-0.7783203,0.109558105,0.24285889
1605203319397,2015,-1.1923828,0.117370605,0.20184326
1605203321934,2016,-0.8166504,0.03338623,0.15716553
1605203321937,2017,-0.8166504,0.03338623,0.15716553
1605203321941,2018,-0.9387207,-0.026428223,0.1774292
1605203321945,2019,-0.9387207,-0.026428223,0.1774292
1605203321948,2020,-0.96655273,-0.047668457,0.22601318
1605203321951,2021,-0.96655273,-0.047668457,0.22601318
1605203321953,2022,-1.1337891,-0.047912598,0.2243042
1605203321956,2023,-1.1337891,-0.047912598,0.2243042
1605203321959,2024,-1.0939941,0.24700928,0.2831421
1605203321963,2025,-1.0939941,0.24700928,0.2831421
1605203321967,2026,-0.8569336,0.2477417,0.30511475
1605203321970,2027,-0.8569336,0.2477417,0.30511475
1605203321973,2028,-0.9790039,0.17718506,0.26776123
1605203321975,2029,-0.9790039,0.17718506,0.26776123
1605203321978,2030,-0.8996582,0.21014404,0.19915771
1605203321981,2031,-0.8996582,0.21014404,0.19915771
1605203321985,2032,-0.9211426,0.17279053,0.22381592
1605203321988,2033,-0.9211426,0.17279053,0.22381592
1605203321993,2034,-1.0251465,0.1515503,0.29119873
1605203321993,2035,-0.8166504,0.03338623,0.15716553
1605203321994,2036,-1.0251465,0.1515503,0.29119873
1605203321997,2037,-0.9387207,-0.026428223,0.1774292
1605203322000,2038,-0.9680176,-0.016662598,0.21038818
1605203322002,2039,-0.96655273,-0.047668457,0.22601318
1605203322005,2040,-0.970459,0.07342529,0.12689209
1605203322008,2041,-1.1337891,-0.047912598,0.2243042
1605203322012,2042,-1.0935059,-0.008850098,0.15423584
1605203322013,2043,-1.0939941,0.24700928,0.2831421
1605203322015,2044,-1.1269531,-0.015197754,0.17034912
1605203322018,2045,-0.8569336,0.2477417,0.30511475
1605203322022,2046,-1.0107422,0.036315918,0.14154053
1605203322025,2047,-0.9790039,0.17718506,0.26776123
1605203322026,2048,-1.0925293,0.19891357,0.23968506
1605203322027,2049,-0.8996582,0.21014404,0.19915771
1605203322028,2050,-0.9680176,-0.016662598,0.21038818
1605203322029,2051,-0.77563477,0.1642456,0.22796631
1605203322030,2052,-0.9211426,0.17279053,0.22381592
1605203322031,2053,-0.9694824,0.15447998,0.19818115
1605203322032,2054,-1.0251465,0.1515503,0.29119873
1605203322032,2055,-0.970459,0.07342529,0.12689209
1605203322033,2056,-1.0935059,-0.008850098,0.15423584
1605203322034,2057,-1.0036621,0.094177246,0.24041748
1605203322035,2058,-1.1269531,-0.015197754,0.17034912
1605203322036,2059,-0.8391113,0.090026855,0.29730225
1605203322036,2060,-0.9206543,0.20135498,0.40325928
1605203322037,2061,-1.0942383,0.16668701,0.44329834
1605203322038,2062,-0.7963867,0.057800293,0.44476318
1605203322040,2063,-0.9680176,-0.016662598,0.21038818
1605203322040,2064,-0.8601074,4.272461E-4,0.41912842
1605203322040,2065,-1.0107422,0.036315918,0.14154053
1605203322042,2066,-0.970459,0.07342529,0.12689209
1605203322042,2067,-0.96362305,-0.09820557,0.40350342
1605203322043,2068,-1.0925293,0.19891357,0.23968506
1605203322043,2069,-1.0935059,-0.008850098,0.15423584
1605203322044,2070,-0.77563477,0.1642456,0.22796631
1605203322045,2071,-1.1269531,-0.015197754,0.17034912
1605203322045,2072,-0.9694824,0.15447998,0.19818115
1605203322046,2073,-1.0036621,0.094177246,0.24041748
1605203322046,2074,-1.0107422,0.036315918,0.14154053
1605203322047,2075,-1.0925293,0.19891357,0.23968506
1605203322047,2076,-0.8391113,0.090026855,0.29730225
1605203322049,2077,-0.9206543,0.20135498,0.40325928
1605203322049,2078,-0.77563477,0.1642456,0.22796631
1605203322050,2079,-1.0119629,-0.03765869,0.41204834
1605203322050,2080,-1.0942383,0.16668701,0.44329834
1605203322051,2081,-0.96240234,-0.049865723,0.4015503
1605203322051,2082,-0.9694824,0.15447998,0.19818115
1605203322052,2083,-0.7963867,0.057800293,0.44476318
1605203322052,2084,-0.8820801,-0.10992432,0.41082764
1605203322054,2085,-1.0036621,0.094177246,0.24041748
1605203322054,2086,-0.8601074,4.272461E-4,0.41912842
1605203322054,2087,-0.920166,-0.015686035,0.3768921
1605203322055,2088,-0.96362305,-0.09820557,0.40350342
1605203322055,2089,-0.8391113,0.090026855,0.29730225
1605203322057,2090,-0.86450195,0.08905029,0.19012451
1605203322057,2091,-1.0119629,-0.03765869,0.41204834
1605203322057,2092,-0.9206543,0.20135498,0.40325928
1605203322058,2093,-1.1958008,0.046813965,0.13543701
1605203322058,2094,-0.96240234,-0.049865723,0.4015503
1605203322059,2095,-1.0942383,0.16668701,0.44329834
1605203322059,2096,-1.1413574,0.109313965,0.085632324
1605203322060,2097,-0.8820801,-0.10992432,0.41082764
1605203322061,2098,-0.7963867,0.057800293,0.44476318
1605203322062,2099,-0.920166,-0.015686035,0.3768921
1605203322062,2100,-0.8601074,4.272461E-4,0.41912842
1605203322063,2101,-0.96362305,-0.09820557,0.40350342
1605203322063,2102,-0.86450195,0.08905029,0.19012451
1605203322064,2103,-1.0119629,-0.03765869,0.41204834
1605203322065,2104,-0.96240234,-0.049865723,0.4015503
1605203322066,2105,-1.1958008,0.046813965,0.13543701
1605203322066,2106,-0.8820801,-0.10992432,0.41082764
1605203322067,2107,-0.920166,-0.015686035,0.3768921
1605203322069,2108,-0.86450195,0.08905029,0.19012451
1605203322081,2109,-1.1958008,0.046813965,0.13543701
1605203322081,2110,-1.1413574,0.109313965,0.085632324
1605203322082,2111,-1.1413574,0.109313965,0.085632324
1605203324317,2112,-0.9614258,0.1071167,0.1251831
1605203324320,2113,-0.9614258,0.1071167,0.1251831
1605203324324,2114,-1.0358887,-0.009338379,0.23846436
1605203324327,2115,-1.0358887,-0.009338379,0.23846436
1605203324331,2116,-0.9169922,-0.09576416,0.32659912
1605203324334,2117,-0.9169922,-0.09576416,0.32659912
1605203324336,2118,-0.91381836,0.14007568,0.2062378
1605203324337,2119,-0.91381836,0.14007568,0.2062378
1605203324339,2120,-1.026123,0.00579834,0.22869873
1605203324342,2121,-1.026123,0.00579834,0.22869873
1605203324343,2122,-0.9641113,0.030700684,0.2772827
1605203324344,2123,-0.9614258,0.1071167,0.1251831
1605203324345,2124,-0.9641113,0.030700684,0.2772827
1605203324346,2125,-1.0036621,0.011413574,0.3209839
1605203324348,2126,-1.0036621,0.011413574,0.3209839
1605203324349,2127,-1.0358887,-0.009338379,0.23846436
1605203324350,2128,-0.9321289,-0.055236816,0.35369873
1605203324351,2129,-0.9321289,-0.055236816,0.35369873
1605203324353,2130,-0.9169922,-0.09576416,0.32659912
1605203324353,2131,-1.1137695,-0.11773682,0.3739624
1605203324353,2132,-1.1137695,-0.11773682,0.3739624
1605203324354,2133,-0.91381836,0.14007568,0.2062378
1605203324355,2134,-1.026123,0.00579834,0.22869873
1605203324356,2135,-0.920166,0.11834717,0.25335693
1605203324357,2136,-0.920166,0.11834717,0.25335693
1605203324357,2137,-0.8503418,0.042175293,0.26971436
1605203324358,2138,-0.9641113,0.030700684,0.2772827
1605203324359,2139,-1.0036621,0.011413574,0.3209839
1605203324359,2140,-0.8503418,0.042175293,0.26971436
1605203324360,2141,-0.9321289,-0.055236816,0.35369873
1605203324360,2142,-1.0356445,0.0289917,0.21820068
1605203324361,2143,-0.8979492,0.08001709,0.24676514
1605203324362,2144,-1.0356445,0.0289917,0.21820068
1605203324363,2145,-0.93896484,0.11590576,0.30511475
1605203324363,2146,-1.1137695,-0.11773682,0.3739624
1605203324363,2147,-0.8979492,0.08001709,0.24676514
1605203324364,2148,-0.920166,0.11834717,0.25335693
1605203324365,2149,-0.93896484,0.11590576,0.30511475
1605203324366,2150,-0.8503418,0.042175293,0.26971436
1605203324367,2151,-0.91308594,-0.007873535,0.29534912
1605203324368,2152,-1.0356445,0.0289917,0.21820068
1605203324368,2153,-0.91308594,-0.007873535,0.29534912
1605203324368,2154,-1.1328125,0.010192871,0.10784912
1605203324369,2155,-1.1328125,0.010192871,0.10784912
1605203324370,2156,-1.1594238,-0.042785645,0.1005249
1605203324370,2157,-1.090332,-0.09185791,0.10418701
1605203324371,2158,-0.8979492,0.08001709,0.24676514
1605203324371,2159,-1.1594238,-0.042785645,0.1005249
1605203324372,2160,-0.97509766,-0.07354736,0.08831787
1605203324373,2161,-0.93896484,0.11590576,0.30511475
1605203324374,2162,-1.1025391,-0.009338379,0.20672607
1605203324374,2163,-0.91308594,-0.007873535,0.29534912
1605203324375,2164,-0.8312988,0.0021362305,0.22259521
1605203324376,2165,-1.1328125,0.010192871,0.10784912
1605203324376,2166,-0.98461914,0.12591553,0.18743896
1605203324377,2167,-1.1594238,-0.042785645,0.1005249
1605203324378,2168,-1.1442871,-0.09869385,0.18157959
1605203324379,2169,-1.090332,-0.09185791,0.10418701
1605203324379,2170,-0.9172363,-0.0803833,0.18109131
1605203324380,2171,-0.97509766,-0.07354736,0.08831787
1605203324380,2172,-0.9404297,-0.03326416,0.27947998
1605203324381,2173,-0.9304199,-0.0017700195,0.35980225
1605203324382,2174,-1.090332,-0.09185791,0.10418701
1605203324383,2175,-1.0600586,-0.15997314,0.4472046
1605203324383,2176,-1.1025391,-0.009338379,0.20672607
1605203324384,2177,-0.80566406,-0.23834229,0.45941162
1605203324384,2178,-0.8312988,0.0021362305,0.22259521
1605203324385,2179,-0.97509766,-0.07354736,0.08831787
1605203324386,2180,-1.0500488,-0.25250244,0.31732178
1605203324386,2181,-0.98461914,0.12591553,0.18743896
1605203324386,2182,-0.9211426,-0.37384033,0.22918701
1605203324387,2183,-1.1025391,-0.009338379,0.20672607
1605203324387,2184,-1.1442871,-0.09869385,0.18157959
1605203324388,2185,-0.9172363,-0.0803833,0.18109131
1605203324389,2186,-0.9589844,-0.36114502,0.27752686
1605203324389,2187,-0.9404297,-0.03326416,0.27947998
1605203324390,2188,-0.904541,-0.33673096,0.33294678
1605203324390,2189,-0.9304199,-0.0017700195,0.35980225
1605203324390,2190,-0.8312988,0.0021362305,0.22259521
1605203324391,2191,-1.0600586,-0.15997314,0.4472046
1605203324392,2192,-0.80566406,-0.23834229,0.45941162
1605203324394,2193,-0.98461914,0.12591553,0.18743896
1605203324394,2194,-1.0500488,-0.25250244,0.31732178
1605203324394,2195,-1.1442871,-0.09869385,0.18157959
1605203324395,2196,-0.9172363,-0.0803833,0.18109131
1605203324395,2197,-0.9211426,-0.37384033,0.22918701
1605203324396,2198,-0.9404297,-0.03326416,0.27947998
1605203324397,2199,-0.9589844,-0.36114502,0.27752686
1605203324397,2200,-0.9304199,-0.0017700195,0.35980225
1605203324398,2201,-0.904541,-0.33673096,0.33294678
1605203324398,2202,-1.0600586,-0.15997314,0.4472046
1605203324399,2203,-0.80566406,-0.23834229,0.45941162
1605203324400,2204,-1.0500488,-0.25250244,0.31732178
1605203324401,2205,-0.9211426,-0.37384033,0.22918701
1605203324402,2206,-0.9589844,-0.36114502,0.27752686
1605203324402,2207,-0.904541,-0.33673096,0.33294678
1605203326904,2208,-1.0275879,-0.34649658,0.2838745
1605203326904,2209,-1.0275879,-0.34649658,0.2838745
1605203326905,2210,-1.0275879,-0.34649658,0.2838745
1605203326906,2211,-0.9794922,-0.1921997,0.35076904
1605203326910,2212,-0.9794922,-0.1921997,0.35076904
1605203326913,2213,-0.8840332,0.026794434,0.2633667
1605203326917,2214,-0.8840332,0.026794434,0.2633667
1605203326921,2215,-1.1154785,-0.1362915,0.19085693
1605203326925,2216,-1.1154785,-0.1362915,0.19085693
1605203326928,2217,-0.9440918,-0.22027588,0.23895264
1605203326932,2218,-0.9440918,-0.22027588,0.23895264
1605203326935,2219,-0.88427734,-0.10357666,0.3270874
1605203326941,2220,-0.88427734,-0.10357666,0.3270874
1605203326941,2221,-0.9794922,-0.1921997,0.35076904
1605203326942,2222,-0.9453125,-0.2744751,0.35980225
1605203326943,2223,-0.9453125,-0.2744751,0.35980225
1605203326945,2224,-0.8840332,0.026794434,0.2633667
1605203326947,2225,-1.0263672,-0.24249268,0.4225464
1605203326949,2226,-1.1154785,-0.1362915,0.19085693
1605203326949,2227,-0.9562988,-0.2913208,0.24041748
1605203326951,2228,-1.0263672,-0.24249268,0.4225464
1605203326953,2229,-0.9440918,-0.22027588,0.23895264
1605203326954,2230,-0.9562988,-0.2913208,0.24041748
1605203326956,2231,-0.88427734,-0.10357666,0.3270874
1605203326958,2232,-0.9238281,-0.31915283,0.3060913
1605203326961,2233,-0.9453125,-0.2744751,0.35980225
1605203326963,2234,-1.0939941,-0.1350708,0.31097412
1605203326964,2235,-1.0263672,-0.24249268,0.4225464
1605203326966,2236,-0.99853516,-0.11602783,0.12982178
1605203326969,2237,-0.9562988,-0.2913208,0.24041748
1605203326971,2238,-1.0212402,-0.19464111,0.13861084
1605203326972,2239,-0.9238281,-0.31915283,0.3060913
1605203326973,2240,-1.0202637,-0.18804932,0.109558105
1605203326974,2241,-1.0939941,-0.1350708,0.31097412
1605203326976,2242,-0.9238281,-0.31915283,0.3060913
1605203326976,2243,-0.99853516,-0.11602783,0.12982178
1605203326977,2244,-0.873291,-0.24493408,0.1317749
1605203326977,2245,-1.0939941,-0.1350708,0.31097412
1605203326978,2246,-0.85253906,-0.07574463,0.2086792
1605203326979,2247,-0.99853516,-0.11602783,0.12982178
1605203326980,2248,-1.1196289,-0.054748535,0.13665771
1605203326982,2249,-1.0212402,-0.19464111,0.13861084
1605203326982,2250,-1.0744629,0.078552246,0.08807373
1605203326983,2251,-1.0788574,0.08709717,0.12664795
1605203326983,2252,-1.0212402,-0.19464111,0.13861084
1605203326984,2253,-0.93237305,0.15057373,0.18060303
1605203326986,2254,-1.0202637,-0.18804932,0.109558105
1605203326987,2255,-0.9645996,0.18939209,0.18060303
1605203326987,2256,-0.873291,-0.24493408,0.1317749
1605203326988,2257,-0.85253906,-0.07574463,0.2086792
1605203326989,2258,-1.0202637,-0.18804932,0.109558105
1605203326990,2259,-1.1196289,-0.054748535,0.13665771
1605203326991,2260,-0.9946289,0.1786499,0.16815186
1605203326992,2261,-1.0744629,0.078552246,0.08807373
1605203326992,2262,-0.99121094,0.24725342,0.24847412
1605203326993,2263,-1.0788574,0.08709717,0.12664795
1605203326995,2264,-0.9604492,0.28656006,0.3427124
1605203326995,2265,-0.873291,-0.24493408,0.1317749
1605203326995,2266,-0.93237305,0.15057373,0.18060303
1605203326999,2267,-0.7915039,0.15740967,0.46453857
1605203326999,2268,-0.85253906,-0.07574463,0.2086792
1605203326999,2269,-0.9645996,0.18939209,0.18060303
1605203327000,2270,-0.9399414,0.13763428,0.6276245
1605203327000,2271,-1.1196289,-0.054748535,0.13665771
1605203327000,2272,-0.9946289,0.1786499,0.16815186
1605203327000,2273,-0.8972168,-3.0517578E-4,0.5372925
1605203327000,2274,-1.0744629,0.078552246,0.08807373
1605203327001,2275,-0.94628906,0.11395264,0.5692749
1605203327001,2276,-1.0788574,0.08709717,0.12664795
1605203327001,2277,-0.99121094,0.24725342,0.24847412
1605203327002,2278,-0.81591797,0.08026123,0.49334717
1605203327003,2279,-0.9604492,0.28656006,0.3427124
1605203327004,2280,-0.93237305,0.15057373,0.18060303
1605203327005,2281,-0.84887695,-0.093566895,0.51361084
1605203327006,2282,-0.9645996,0.18939209,0.18060303
1605203327006,2283,-0.7915039,0.15740967,0.46453857
1605203327007,2284,-0.9946289,0.1786499,0.16815186
1605203327007,2285,-0.9082031,-0.017150879,0.41448975
1605203327008,2286,-0.9399414,0.13763428,0.6276245
1605203327009,2287,-0.84350586,0.022888184,0.33831787
1605203327010,2288,-0.99121094,0.24725342,0.24847412
1605203327011,2289,-0.8972168,-3.0517578E-4,0.5372925
1605203327012,2290,-0.9604492,0.28656006,0.3427124
