# Sensor position: Wrist
# Sensor side: Left
# Activity type: Movement
# Activity code: 9
# Subject id: s1655560
timestamp,seq,accel_x,accel_y,accel_z
1605202877499,0,0.75146484,0.12640381,-0.59088135
1605202877502,1,0.75146484,0.12640381,-0.59088135
1605202877505,2,0.7644043,0.07513428,-0.4985962
1605202877509,3,0.7644043,0.07513428,-0.4985962
1605202877513,4,0.7114258,0.074401855,-0.4602661
1605202877517,5,0.7114258,0.074401855,-0.4602661
1605202877520,6,0.79418945,0.101745605,-0.46661377
1605202877524,7,0.79418945,0.101745605,-0.46661377
1605202877528,8,0.8227539,0.12982178,-0.4607544
1605202877532,9,0.8227539,0.12982178,-0.4607544
1605202877533,10,0.75146484,0.12640381,-0.59088135
1605202877533,11,0.8618164,0.13690186,-0.48028564
1605202877536,12,0.7644043,0.07513428,-0.4985962
1605202877540,13,0.94311523,0.10101318,-0.47076416
1605202877544,14,0.7114258,0.074401855,-0.4602661
1605202877547,15,0.9328613,0.06097412,-0.40582275
1605202877551,16,0.79418945,0.101745605,-0.46661377
1605202877554,17,0.8979492,0.04925537,-0.41778564
1605202877558,18,0.8227539,0.12982178,-0.4607544
1605202877560,19,0.9128418,0.0048217773,-0.39801025
1605202877563,20,0.8618164,0.13690186,-0.48028564
1605202877567,21,0.9187012,-0.006164551,-0.4126587
1605202877568,22,0.94311523,0.10101318,-0.47076416
1605202877569,23,0.89575195,-0.014465332,-0.41119385
1605202877570,24,0.9328613,0.06097412,-0.40582275
1605202877570,25,0.8618164,0.13690186,-0.48028564
1605202877572,26,0.9020996,-0.0178833,-0.39752197
1605202877572,27,0.8979492,0.04925537,-0.41778564
1605202877572,28,0.94311523,0.10101318,-0.47076416
1605202877574,29,0.91308594,-0.0064086914,-0.42730713
1605202877574,30,0.9328613,0.06097412,-0.40582275
1605202877575,31,0.79711914,0.007507324,-0.44195557
1605202877577,32,0.8979492,0.04925537,-0.41778564
1605202877578,33,0.6574707,0.093933105,-0.5444946
1605202877578,34,0.9128418,0.0048217773,-0.39801025
1605202877580,35,0.9128418,0.0048217773,-0.39801025
1605202877580,36,0.7307129,0.22796631,-0.6946411
1605202877581,37,0.9187012,-0.006164551,-0.4126587
1605202877581,38,0.9187012,-0.006164551,-0.4126587
1605202877582,39,0.9375,0.28460693,-0.770813
1605202877583,40,0.89575195,-0.014465332,-0.41119385
1605202877583,41,0.89575195,-0.014465332,-0.41119385
1605202877583,42,0.9020996,-0.0178833,-0.39752197
1605202877585,43,1.0693359,0.41912842,-0.9026489
1605202877586,44,0.9020996,-0.0178833,-0.39752197
1605202877586,45,0.88061523,0.44354248,-0.78570557
1605202877587,46,0.91308594,-0.0064086914,-0.42730713
1605202877588,47,0.79711914,0.007507324,-0.44195557
1605202877589,48,0.4921875,0.48162842,-0.64190674
1605202877590,49,0.91308594,-0.0064086914,-0.42730713
1605202877591,50,0.6574707,0.093933105,-0.5444946
1605202877592,51,0.14550781,0.49212646,-0.55474854
1605202877592,52,0.7307129,0.22796631,-0.6946411
1605202877593,53,0.79711914,0.007507324,-0.44195557
1605202877594,54,0.38305664,0.24285889,-0.5237427
1605202877595,55,0.9375,0.28460693,-0.770813
1605202877595,56,0.6574707,0.093933105,-0.5444946
1605202877595,57,0.45629883,0.038513184,-0.34796143
1605202877596,58,1.0693359,0.41912842,-0.9026489
1605202877597,59,0.7307129,0.22796631,-0.6946411
1605202877597,60,0.5461426,0.09832764,-0.4758911
1605202877599,61,0.88061523,0.44354248,-0.78570557
1605202877600,62,0.7163086,0.08343506,-0.34332275
1605202877601,63,0.9375,0.28460693,-0.770813
1605202877601,64,1.1254883,0.2633667,-0.348938
1605202877602,65,1.0693359,0.41912842,-0.9026489
1605202877602,66,0.4921875,0.48162842,-0.64190674
1605202877602,67,1.6203613,0.6984253,-0.5095825
1605202877602,68,0.88061523,0.44354248,-0.78570557
1605202877603,69,1.5600586,1.0021362,-0.7703247
1605202877604,70,0.4921875,0.48162842,-0.64190674
1605202877604,71,0.14550781,0.49212646,-0.55474854
1605202877605,72,1.3654785,1.09906,-0.5496216
1605202877605,73,0.14550781,0.49212646,-0.55474854
1605202877605,74,0.38305664,0.24285889,-0.5237427
1605202877606,75,0.47851562,0.9069214,-0.4192505
1605202877606,76,0.45629883,0.038513184,-0.34796143
1605202877607,77,0.38305664,0.24285889,-0.5237427
1605202877607,78,0.5461426,0.09832764,-0.4758911
1605202877607,79,0.07397461,0.4430542,-0.10772705
1605202877609,80,0.7163086,0.08343506,-0.34332275
1605202877609,81,0.45629883,0.038513184,-0.34796143
1605202877610,82,1.1254883,0.2633667,-0.348938
1605202877610,83,0.5461426,0.09832764,-0.4758911
1605202877611,84,1.6203613,0.6984253,-0.5095825
1605202877612,85,0.7163086,0.08343506,-0.34332275
1605202877613,86,1.1254883,0.2633667,-0.348938
1605202877614,87,1.5600586,1.0021362,-0.7703247
1605202877614,88,1.6203613,0.6984253,-0.5095825
1605202877615,89,1.3654785,1.09906,-0.5496216
1605202877615,90,1.5600586,1.0021362,-0.7703247
1605202877615,91,0.47851562,0.9069214,-0.4192505
1605202877616,92,1.3654785,1.09906,-0.5496216
1605202877617,93,0.07397461,0.4430542,-0.10772705
1605202877618,94,0.47851562,0.9069214,-0.4192505
1605202877618,95,0.07397461,0.4430542,-0.10772705
1605202879884,96,-0.17700195,0.3961792,-0.27618408
1605202879887,97,-0.17700195,0.3961792,-0.27618408
1605202879891,98,-0.21459961,0.72528076,-0.5564575
1605202879894,99,-0.21459961,0.72528076,-0.5564575
1605202879897,100,0.19506836,1.3348999,-0.99713135
1605202879900,101,0.19506836,1.3348999,-0.99713135
1605202879903,102,0.45654297,1.3722534,-0.90216064
1605202879907,103,0.45654297,1.3722534,-0.90216064
1605202879910,104,0.5656738,1.152771,-0.6621704
1605202879913,105,0.5656738,1.152771,-0.6621704
1605202879917,106,0.8051758,0.9579468,-0.54571533
1605202879920,107,0.8051758,0.9579468,-0.54571533
1605202879924,108,0.63061523,0.47991943,-0.23468018
1605202879925,109,0.63061523,0.47991943,-0.23468018
1605202879928,110,0.3840332,0.14935303,-0.12896729
1605202879932,111,0.3840332,0.14935303,-0.12896729
1605202879933,112,0.4111328,-0.120910645,0.038513184
1605202879937,113,0.4111328,-0.120910645,0.038513184
1605202879938,114,0.7487793,-5.493164E-4,-0.206604
1605202879940,115,0.7487793,-5.493164E-4,-0.206604
1605202879941,116,1.5778809,0.39935303,-0.69415283
1605202879942,117,1.5778809,0.39935303,-0.69415283
1605202879944,118,-0.17700195,0.3961792,-0.27618408
1605202879946,119,1.7861328,0.9266968,-0.8147583
1605202879950,120,-0.21459961,0.72528076,-0.5564575
1605202879950,121,1.7861328,0.9266968,-0.8147583
1605202879951,122,1.005127,0.9579468,-0.46588135
1605202879954,123,0.19506836,1.3348999,-0.99713135
1605202879955,124,0.34643555,0.8109741,-0.078430176
1605202879955,125,1.005127,0.9579468,-0.46588135
1605202879955,126,0.45654297,1.3722534,-0.90216064
1605202879957,127,0.5656738,1.152771,-0.6621704
1605202879958,128,0.34643555,0.8109741,-0.078430176
1605202879958,129,0.8051758,0.9579468,-0.54571533
1605202879960,130,0.17041016,0.7255249,-0.016662598
1605202879961,131,0.63061523,0.47991943,-0.23468018
1605202879961,132,0.17041016,0.7255249,-0.016662598
1605202879963,133,0.08862305,0.9850464,-0.02154541
1605202879963,134,0.08862305,0.9850464,-0.02154541
1605202879964,135,-0.22192383,1.3190308,-0.2937622
1605202879965,136,-0.22192383,1.3190308,-0.2937622
1605202879966,137,-0.1340332,1.5289917,-0.3850708
1605202879967,138,-0.1340332,1.5289917,-0.3850708
1605202879968,139,0.3840332,0.14935303,-0.12896729
1605202879968,140,0.036865234,1.1896362,-0.30426025
1605202879969,141,0.036865234,1.1896362,-0.30426025
1605202879970,142,0.07299805,0.6737671,-0.14556885
1605202879972,143,0.21801758,0.48675537,-0.16656494
1605202879972,144,0.4111328,-0.120910645,0.038513184
1605202879972,145,0.07299805,0.6737671,-0.14556885
1605202879973,146,0.3671875,0.32122803,-0.22857666
1605202879974,147,0.21801758,0.48675537,-0.16656494
1605202879974,148,0.579834,0.19207764,-0.26837158
1605202879975,149,0.3671875,0.32122803,-0.22857666
1605202879976,150,1.0632324,0.04876709,-0.5354614
1605202879977,151,0.579834,0.19207764,-0.26837158
1605202879978,152,1.5385742,0.20794678,-0.6074829
1605202879978,153,1.0632324,0.04876709,-0.5354614
1605202879979,154,0.7487793,-5.493164E-4,-0.206604
1605202879979,155,1.3791504,0.30389404,-0.5054321
1605202879981,156,1.5385742,0.20794678,-0.6074829
1605202879981,157,0.9069824,0.3998413,-0.34381104
1605202879981,158,1.5778809,0.39935303,-0.69415283
1605202879982,159,1.3791504,0.30389404,-0.5054321
1605202879982,160,0.50927734,0.47503662,-0.38238525
1605202879983,161,1.7861328,0.9266968,-0.8147583
1605202879983,162,0.9069824,0.3998413,-0.34381104
1605202879984,163,0.30151367,0.62127686,-0.3965454
1605202879984,164,1.005127,0.9579468,-0.46588135
1605202879985,165,0.50927734,0.47503662,-0.38238525
1605202879986,166,0.10864258,0.9389038,-0.5310669
1605202879986,167,0.34643555,0.8109741,-0.078430176
1605202879987,168,0.30151367,0.62127686,-0.3965454
1605202879987,169,-0.028076172,1.194519,-0.7280884
1605202879988,170,0.17041016,0.7255249,-0.016662598
1605202879989,171,0.10864258,0.9389038,-0.5310669
1605202879989,172,-0.08227539,1.2391968,-0.5713501
1605202879989,173,0.08862305,0.9850464,-0.02154541
1605202879990,174,-0.028076172,1.194519,-0.7280884
1605202879991,175,-0.22192383,1.3190308,-0.2937622
1605202879991,176,-0.1340332,1.5289917,-0.3850708
1605202879992,177,-0.08227539,1.2391968,-0.5713501
1605202879993,178,0.036865234,1.1896362,-0.30426025
1605202879994,179,0.07299805,0.6737671,-0.14556885
1605202879995,180,0.21801758,0.48675537,-0.16656494
1605202879995,181,0.3671875,0.32122803,-0.22857666
1605202879996,182,0.579834,0.19207764,-0.26837158
1605202879997,183,1.0632324,0.04876709,-0.5354614
1605202879998,184,1.5385742,0.20794678,-0.6074829
1605202879999,185,1.3791504,0.30389404,-0.5054321
1605202880000,186,0.9069824,0.3998413,-0.34381104
1605202880001,187,0.50927734,0.47503662,-0.38238525
1605202880002,188,0.30151367,0.62127686,-0.3965454
1605202880003,189,0.10864258,0.9389038,-0.5310669
1605202880004,190,-0.028076172,1.194519,-0.7280884
1605202880005,191,-0.08227539,1.2391968,-0.5713501
1605202882468,192,-0.06762695,0.9779663,-0.3423462
1605202882471,193,-0.06762695,0.9779663,-0.3423462
1605202882475,194,0.021484375,0.7992554,-0.18756104
1605202882479,195,0.021484375,0.7992554,-0.18756104
1605202882483,196,0.2475586,0.57147217,-0.14141846
1605202882486,197,0.2475586,0.57147217,-0.14141846
1605202882490,198,0.23486328,0.3847046,-0.28082275
1605202882494,199,0.23486328,0.3847046,-0.28082275
1605202882498,200,0.41992188,0.2477417,-0.4343872
1605202882499,201,0.41992188,0.2477417,-0.4343872
1605202882499,202,0.91503906,0.101745605,-0.51348877
1605202882500,203,-0.06762695,0.9779663,-0.3423462
1605202882500,204,0.021484375,0.7992554,-0.18756104
1605202882504,205,0.91503906,0.101745605,-0.51348877
1605202882505,206,0.2475586,0.57147217,-0.14141846
1605202882507,207,1.5041504,0.10296631,-0.7503052
1605202882510,208,0.23486328,0.3847046,-0.28082275
1605202882513,209,1.439209,0.30340576,-0.7107544
1605202882516,210,0.41992188,0.2477417,-0.4343872
1605202882517,211,0.86621094,0.32977295,-0.5354614
1605202882519,212,1.5041504,0.10296631,-0.7503052
1605202882520,213,0.91503906,0.101745605,-0.51348877
1605202882522,214,1.439209,0.30340576,-0.7107544
1605202882527,215,1.5041504,0.10296631,-0.7503052
1605202882530,216,0.86621094,0.32977295,-0.5354614
1605202882534,217,1.439209,0.30340576,-0.7107544
1605202882538,218,0.52612305,0.31292725,-0.46954346
1605202882541,219,0.86621094,0.32977295,-0.5354614
1605202882545,220,0.38598633,0.33514404,-0.53082275
1605202882548,221,0.52612305,0.31292725,-0.46954346
1605202882550,222,0.37402344,0.6989136,-0.5498657
1605202882550,223,0.38598633,0.33514404,-0.53082275
1605202882551,224,0.52612305,0.31292725,-0.46954346
1605202882552,225,0.37402344,0.6989136,-0.5498657
1605202882553,226,0.38598633,0.33514404,-0.53082275
1605202882554,227,0.3527832,1.2728882,-0.6851196
1605202882555,228,0.37402344,0.6989136,-0.5498657
1605202882555,229,0.2109375,1.218689,-0.46929932
1605202882556,230,0.3527832,1.2728882,-0.6851196
1605202882557,231,0.3527832,1.2728882,-0.6851196
1605202882558,232,0.2109375,1.218689,-0.46929932
1605202882560,233,0.2109375,1.218689,-0.46929932
1605202882560,234,0.1394043,1.1325073,-0.3345337
1605202882560,235,0.1394043,1.1325073,-0.3345337
1605202882561,236,0.1027832,0.86590576,-0.17071533
1605202882562,237,0.1027832,0.86590576,-0.17071533
1605202882563,238,0.021240234,0.633728,-0.121154785
1605202882563,239,0.1394043,1.1325073,-0.3345337
1605202882565,240,-0.044189453,0.55584717,-0.19927979
1605202882565,241,0.1027832,0.86590576,-0.17071533
1605202882565,242,0.021240234,0.633728,-0.121154785
1605202882567,243,-0.006591797,0.48358154,-0.30523682
1605202882567,244,-0.044189453,0.55584717,-0.19927979
1605202882568,245,0.24975586,0.4845581,-0.54937744
1605202882568,246,-0.006591797,0.48358154,-0.30523682
1605202882569,247,0.021240234,0.633728,-0.121154785
1605202882570,248,0.24975586,0.4845581,-0.54937744
1605202882571,249,-0.044189453,0.55584717,-0.19927979
1605202882572,250,-0.006591797,0.48358154,-0.30523682
1605202882573,251,0.24975586,0.4845581,-0.54937744
1605202882574,252,0.66674805,0.53900146,-0.833313
1605202882574,253,0.66674805,0.53900146,-0.833313
1605202882576,254,0.66674805,0.53900146,-0.833313
1605202882576,255,0.98657227,0.637146,-1.0515747
1605202882576,256,0.98657227,0.637146,-1.0515747
1605202882578,257,0.98657227,0.637146,-1.0515747
1605202882578,258,0.8791504,0.7838745,-0.9668579
1605202882578,259,0.8791504,0.7838745,-0.9668579
1605202882579,260,0.8791504,0.7838745,-0.9668579
1605202882579,261,0.48583984,0.6234741,-0.5027466
1605202882580,262,0.48583984,0.6234741,-0.5027466
1605202882580,263,0.33569336,0.5397339,-0.28033447
1605202882581,264,0.33569336,0.5397339,-0.28033447
1605202882582,265,0.3293457,0.6622925,-0.4434204
1605202882582,266,0.48583984,0.6234741,-0.5027466
1605202882583,267,0.3293457,0.6622925,-0.4434204
1605202882584,268,0.33569336,0.5397339,-0.28033447
1605202882584,269,0.39282227,1.1207886,-0.74591064
1605202882585,270,0.3293457,0.6622925,-0.4434204
1605202882586,271,0.39282227,1.1207886,-0.74591064
1605202882586,272,0.50927734,1.5582886,-0.6670532
1605202882586,273,0.50927734,1.5582886,-0.6670532
1605202882588,274,0.36743164,1.3204956,-0.4216919
1605202882588,275,0.39282227,1.1207886,-0.74591064
1605202882590,276,0.061523438,0.9293823,-0.1675415
1605202882590,277,0.50927734,1.5582886,-0.6670532
1605202882590,278,0.36743164,1.3204956,-0.4216919
1605202882591,279,-0.037353516,0.5946655,-0.06964111
1605202882592,280,0.36743164,1.3204956,-0.4216919
1605202882592,281,0.061523438,0.9293823,-0.1675415
1605202882592,282,-0.013427734,0.3661499,-0.20172119
1605202882594,283,-0.037353516,0.5946655,-0.06964111
1605202882594,284,0.061523438,0.9293823,-0.1675415
1605202882594,285,-0.013427734,0.3661499,-0.20172119
1605202882595,286,-0.037353516,0.5946655,-0.06964111
1605202882596,287,-0.013427734,0.3661499,-0.20172119
1605202885052,288,-0.059570312,0.21795654,-0.45367432
1605202885055,289,-0.059570312,0.21795654,-0.45367432
1605202885059,290,-0.07299805,0.19476318,-0.8501587
1605202885063,291,-0.07299805,0.19476318,-0.8501587
1605202885066,292,0.15039062,0.35980225,-1.045227
1605202885069,293,0.15039062,0.35980225,-1.045227
1605202885071,294,0.32421875,0.3217163,-1.0332642
1605202885073,295,0.32421875,0.3217163,-1.0332642
1605202885076,296,-0.059570312,0.21795654,-0.45367432
1605202885077,297,0.48364258,0.3546753,-1.0789185
1605202885077,298,0.48364258,0.3546753,-1.0789185
1605202885078,299,-0.07299805,0.19476318,-0.8501587
1605202885078,300,0.4729004,0.4533081,-1.0532837
1605202885081,301,0.15039062,0.35980225,-1.045227
1605202885085,302,0.15136719,0.38934326,-0.65875244
1605202885088,303,0.32421875,0.3217163,-1.0332642
1605202885092,304,0.12084961,0.5656128,-0.6099243
1605202885095,305,0.48364258,0.3546753,-1.0789185
1605202885099,306,0.35546875,1.2804565,-0.77008057
1605202885103,307,0.4729004,0.4533081,-1.0532837
1605202885106,308,0.4465332,1.5233765,-0.5786743
1605202885107,309,0.3996582,1.2670288,-0.21734619
1605202885107,310,0.15136719,0.38934326,-0.65875244
1605202885110,311,0.4729004,0.4533081,-1.0532837
1605202885113,312,0.12084961,0.5656128,-0.6099243
1605202885115,313,0.15136719,0.38934326,-0.65875244
1605202885117,314,0.35546875,1.2804565,-0.77008057
1605202885118,315,0.2368164,0.86224365,-0.13311768
1605202885118,316,0.12084961,0.5656128,-0.6099243
1605202885118,317,0.4465332,1.5233765,-0.5786743
1605202885119,318,0.13110352,0.60931396,-0.12896729
1605202885120,319,0.3996582,1.2670288,-0.21734619
1605202885121,320,0.15625,0.56170654,-0.24176025
1605202885122,321,0.2368164,0.86224365,-0.13311768
1605202885123,322,0.2800293,0.4052124,-0.41973877
1605202885123,323,0.35546875,1.2804565,-0.77008057
1605202885124,324,0.13110352,0.60931396,-0.12896729
1605202885125,325,0.4465332,1.5233765,-0.5786743
1605202885127,326,0.15625,0.56170654,-0.24176025
1605202885141,327,0.3996582,1.2670288,-0.21734619
1605202885142,328,0.2800293,0.4052124,-0.41973877
1605202885142,329,0.46264648,0.41986084,-0.70977783
1605202885142,330,0.2368164,0.86224365,-0.13311768
1605202885142,331,0.13110352,0.60931396,-0.12896729
1605202885143,332,0.15625,0.56170654,-0.24176025
1605202885143,333,0.6123047,0.29656982,-0.8521118
1605202885145,334,0.46264648,0.41986084,-0.70977783
1605202885145,335,0.61865234,0.20159912,-0.86724854
1605202885145,336,0.2800293,0.4052124,-0.41973877
1605202885146,337,0.6123047,0.29656982,-0.8521118
1605202885146,338,0.46264648,0.41986084,-0.70977783
1605202885146,339,0.49682617,0.26141357,-0.78448486
1605202885146,340,0.61865234,0.20159912,-0.86724854
1605202885149,341,0.45239258,0.32073975,-0.76397705
1605202885149,342,0.49682617,0.26141357,-0.78448486
1605202885149,343,0.6123047,0.29656982,-0.8521118
1605202885152,344,0.6086426,0.4628296,-0.8477173
1605202885153,345,0.45239258,0.32073975,-0.76397705
1605202885156,346,0.61865234,0.20159912,-0.86724854
1605202885157,347,0.73461914,0.6408081,-0.8779907
1605202885157,348,0.6086426,0.4628296,-0.8477173
1605202885158,349,0.73461914,0.6408081,-0.8779907
1605202885158,350,0.8930664,0.79852295,-0.80352783
1605202885160,351,0.49682617,0.26141357,-0.78448486
1605202885160,352,0.8930664,0.79852295,-0.80352783
1605202885160,353,0.673584,0.8143921,-0.61676025
1605202885160,354,0.45239258,0.32073975,-0.76397705
1605202885161,355,0.47998047,0.7797241,-0.49713135
1605202885161,356,0.673584,0.8143921,-0.61676025
1605202885162,357,0.27441406,0.61102295,-0.38433838
1605202885162,358,0.6086426,0.4628296,-0.8477173
1605202885163,359,0.07543945,0.51605225,-0.26470947
1605202885164,360,0.73461914,0.6408081,-0.8779907
1605202885164,361,0.47998047,0.7797241,-0.49713135
1605202885164,362,0.8930664,0.79852295,-0.80352783
1605202885165,363,0.27441406,0.61102295,-0.38433838
1605202885165,364,0.036132812,0.4069214,-0.04083252
1605202885166,365,0.07543945,0.51605225,-0.26470947
1605202885167,366,0.673584,0.8143921,-0.61676025
1605202885168,367,0.20141602,0.572937,-0.12774658
1605202885168,368,0.036132812,0.4069214,-0.04083252
1605202885168,369,0.47998047,0.7797241,-0.49713135
1605202885168,370,0.20141602,0.572937,-0.12774658
1605202885168,371,0.5827637,0.48797607,-0.40460205
1605202885168,372,0.27441406,0.61102295,-0.38433838
1605202885168,373,0.5827637,0.48797607,-0.40460205
1605202885169,374,0.07543945,0.51605225,-0.26470947
1605202885170,375,0.8601074,0.57855225,-0.5396118
1605202885170,376,0.8601074,0.57855225,-0.5396118
1605202885171,377,0.036132812,0.4069214,-0.04083252
1605202885171,378,0.71850586,0.5009155,-0.70758057
1605202885171,379,0.71850586,0.5009155,-0.70758057
1605202885172,380,0.20141602,0.572937,-0.12774658
1605202885172,381,0.5827637,0.48797607,-0.40460205
1605202885173,382,0.8601074,0.57855225,-0.5396118
1605202885174,383,0.71850586,0.5009155,-0.70758057
1605202887635,384,0.72436523,0.5285034,-0.58843994
1605202887639,385,0.72436523,0.5285034,-0.58843994
1605202887643,386,0.80566406,0.63323975,-0.46539307
1605202887647,387,0.80566406,0.63323975,-0.46539307
1605202887650,388,1.1586914,0.618103,-0.45880127
1605202887654,389,1.1586914,0.618103,-0.45880127
1605202887658,390,1.3205566,0.6161499,-0.54156494
1605202887661,391,1.3205566,0.6161499,-0.54156494
1605202887665,392,1.1743164,0.54681396,-0.6633911
1605202887668,393,1.1743164,0.54681396,-0.6633911
1605202887672,394,0.7939453,0.2616577,-0.74224854
1605202887673,395,0.7939453,0.2616577,-0.74224854
1605202887676,396,0.26391602,0.3673706,-0.9517212
1605202887676,397,0.26391602,0.3673706,-0.9517212
1605202887677,398,0.72436523,0.5285034,-0.58843994
1605202887680,399,-0.12451172,0.20062256,-1.1472778
1605202887682,400,-0.12451172,0.20062256,-1.1472778
1605202887684,401,-0.4638672,0.120788574,-1.0408325
1605202887687,402,-0.4638672,0.120788574,-1.0408325
1605202887690,403,-0.5773926,-0.0413208,-0.76690674
1605202887691,404,-0.5773926,-0.0413208,-0.76690674
1605202887695,405,-0.5,-0.29278564,-0.40802002
1605202887697,406,-0.5,-0.29278564,-0.40802002
1605202887700,407,-0.61450195,-0.19976807,-0.29180908
1605202887704,408,-0.61450195,-0.19976807,-0.29180908
1605202887707,409,-0.78564453,-0.2000122,-0.3184204
1605202887710,410,-0.78564453,-0.2000122,-0.3184204
1605202887714,411,-0.97143555,-0.4907837,-0.19927979
1605202887717,412,-0.97143555,-0.4907837,-0.19927979
1605202887720,413,-0.8491211,-0.86260986,-0.04840088
1605202887723,414,-0.8491211,-0.86260986,-0.04840088
1605202887725,415,-0.84228516,-0.80670166,-0.17755127
1605202887727,416,-0.84228516,-0.80670166,-0.17755127
1605202887730,417,-0.7817383,-0.2942505,-0.4072876
1605202887730,418,-0.7817383,-0.2942505,-0.4072876
1605202887732,419,-0.17260742,0.605896,-0.8862915
1605202887734,420,-0.17260742,0.605896,-0.8862915
1605202887735,421,0.37548828,1.999939,-1.1997681
1605202887736,422,0.37548828,1.999939,-1.1997681
1605202887738,423,-0.5185547,0.98773193,-0.8196411
1605202887739,424,-0.5185547,0.98773193,-0.8196411
1605202887740,425,-0.625,0.19647217,-0.48345947
1605202887741,426,-0.625,0.19647217,-0.48345947
1605202887742,427,-0.7233887,-0.2769165,-0.18487549
1605202887744,428,-0.7233887,-0.2769165,-0.18487549
1605202887744,429,-0.79125977,-0.38726807,-0.26837158
1605202887744,430,-0.81396484,-0.44317627,-0.38946533
1605202887745,431,0.80566406,0.63323975,-0.46539307
1605202887747,432,-0.70214844,-0.16119385,-0.46392822
1605202887747,433,1.1586914,0.618103,-0.45880127
1605202887747,434,1.3205566,0.6161499,-0.54156494
1605202887749,435,1.1743164,0.54681396,-0.6633911
1605202887750,436,-0.79125977,-0.38726807,-0.26837158
1605202887750,437,0.7939453,0.2616577,-0.74224854
1605202887751,438,-0.81396484,-0.44317627,-0.38946533
1605202887752,439,-0.70214844,-0.16119385,-0.46392822
1605202887754,440,-0.26757812,0.55340576,-0.67755127
1605202887754,441,-0.26757812,0.55340576,-0.67755127
1605202887755,442,0.26391602,0.3673706,-0.9517212
1605202887756,443,0.048828125,0.9586792,-0.72540283
1605202887756,444,-0.12451172,0.20062256,-1.1472778
1605202887757,445,0.048828125,0.9586792,-0.72540283
1605202887758,446,0.0048828125,1.1481323,-0.6692505
1605202887759,447,-0.4638672,0.120788574,-1.0408325
1605202887759,448,0.0048828125,1.1481323,-0.6692505
1605202887760,449,-0.27148438,0.77386475,-0.5742798
1605202887761,450,-0.5773926,-0.0413208,-0.76690674
1605202887761,451,-0.27148438,0.77386475,-0.5742798
1605202887761,452,-0.3371582,0.57318115,-0.63775635
1605202887762,453,-0.3371582,0.57318115,-0.63775635
1605202887763,454,-0.5,-0.29278564,-0.40802002
1605202887764,455,-0.119384766,0.7103882,-0.7456665
1605202887765,456,-0.119384766,0.7103882,-0.7456665
1605202887766,457,-0.61450195,-0.19976807,-0.29180908
1605202887766,458,0.15673828,1.1293335,-0.9011841
1605202887766,459,0.15673828,1.1293335,-0.9011841
1605202887767,460,-0.78564453,-0.2000122,-0.3184204
1605202887768,461,-0.97143555,-0.4907837,-0.19927979
1605202887769,462,-0.8491211,-0.86260986,-0.04840088
1605202887770,463,-0.84228516,-0.80670166,-0.17755127
1605202887771,464,-0.7817383,-0.2942505,-0.4072876
1605202887772,465,-0.17260742,0.605896,-0.8862915
1605202887773,466,0.37548828,1.999939,-1.1997681
1605202887774,467,-0.5185547,0.98773193,-0.8196411
1605202887776,468,-0.625,0.19647217,-0.48345947
1605202887776,469,-0.7233887,-0.2769165,-0.18487549
1605202887777,470,-0.79125977,-0.38726807,-0.26837158
1605202887778,471,-0.81396484,-0.44317627,-0.38946533
1605202887779,472,-0.70214844,-0.16119385,-0.46392822
1605202887780,473,-0.26757812,0.55340576,-0.67755127
1605202887782,474,0.048828125,0.9586792,-0.72540283
1605202887782,475,0.0048828125,1.1481323,-0.6692505
1605202887784,476,-0.27148438,0.77386475,-0.5742798
1605202887784,477,-0.3371582,0.57318115,-0.63775635
1605202887786,478,-0.119384766,0.7103882,-0.7456665
1605202887786,479,0.15673828,1.1293335,-0.9011841
1605202890218,480,0.5422363,1.2665405,-0.8587036
1605202890226,481,0.5422363,1.2665405,-0.8587036
1605202890226,482,0.45507812,1.0973511,-0.7839966
1605202890229,483,0.45507812,1.0973511,-0.7839966
1605202890233,484,0.27539062,0.9315796,-0.9265747
1605202890235,485,0.27539062,0.9315796,-0.9265747
1605202890237,486,0.31176758,1.0250854,-1.2932739
1605202890240,487,0.31176758,1.0250854,-1.2932739
1605202890244,488,0.15698242,0.6430054,-1.0432739
1605202890248,489,0.15698242,0.6430054,-1.0432739
1605202890251,490,-0.19555664,0.29071045,-0.5808716
1605202890255,491,-0.19555664,0.29071045,-0.5808716
1605202890258,492,-0.0859375,0.054382324,-0.049621582
1605202890262,493,-0.0859375,0.054382324,-0.049621582
1605202890266,494,0.03564453,-0.08721924,-0.08111572
1605202890270,495,0.03564453,-0.08721924,-0.08111572
1605202890274,496,0.2998047,-0.016906738,-0.16656494
1605202890277,497,0.2998047,-0.016906738,-0.16656494
1605202890279,498,0.8220215,0.3102417,-0.26739502
1605202890283,499,0.8220215,0.3102417,-0.26739502
1605202890286,500,1.2663574,0.67401123,-0.3928833
1605202890289,501,1.2663574,0.67401123,-0.3928833
1605202890290,502,1.2287598,0.74749756,-0.2774048
1605202890294,503,1.2287598,0.74749756,-0.2774048
1605202890295,504,1.0827637,0.513855,-0.14117432
1605202890296,505,1.0827637,0.513855,-0.14117432
1605202890297,506,0.78686523,0.38787842,-0.051330566
1605202890299,507,0.78686523,0.38787842,-0.051330566
1605202890299,508,0.8515625,0.463562,-0.0635376
1605202890299,509,0.5422363,1.2665405,-0.8587036
1605202890300,510,0.7548828,0.48236084,-0.08770752
1605202890301,511,0.45507812,1.0973511,-0.7839966
1605202890302,512,0.87939453,0.44085693,-0.034240723
1605202890303,513,0.27539062,0.9315796,-0.9265747
1605202890304,514,0.9719238,0.38568115,-0.0015258789
1605202890305,515,0.31176758,1.0250854,-1.2932739
1605202890307,516,1.0097656,0.32781982,0.012878418
1605202890307,517,0.15698242,0.6430054,-1.0432739
1605202890308,518,0.8515625,0.463562,-0.0635376
1605202890309,519,0.9592285,0.27679443,-0.22247314
1605202890309,520,0.7548828,0.48236084,-0.08770752
1605202890311,521,0.82788086,0.2033081,-0.4512329
1605202890311,522,-0.19555664,0.29071045,-0.5808716
1605202890311,523,0.87939453,0.44085693,-0.034240723
1605202890313,524,0.8527832,0.25238037,-0.51348877
1605202890314,525,-0.0859375,0.054382324,-0.049621582
1605202890314,526,0.9719238,0.38568115,-0.0015258789
1605202890316,527,1.0097656,0.32781982,0.012878418
1605202890317,528,0.9379883,0.40911865,-0.6826782
1605202890317,529,0.03564453,-0.08721924,-0.08111572
1605202890318,530,0.2998047,-0.016906738,-0.16656494
1605202890319,531,0.94433594,0.3336792,-0.9854126
1605202890319,532,0.9592285,0.27679443,-0.22247314
1605202890321,533,0.8220215,0.3102417,-0.26739502
1605202890321,534,1.1699219,0.12249756,-0.8086548
1605202890322,535,1.1210938,0.5187378,-0.6995239
1605202890323,536,1.2663574,0.67401123,-0.3928833
1605202890323,537,0.82788086,0.2033081,-0.4512329
1605202890323,538,0.8527832,0.25238037,-0.51348877
1605202890323,539,1.2287598,0.74749756,-0.2774048
1605202890323,540,0.51904297,0.72039795,-0.7659302
1605202890329,541,0.9379883,0.40911865,-0.6826782
1605202890329,542,-0.13647461,0.52215576,-0.6358032
1605202890330,543,1.0827637,0.513855,-0.14117432
1605202890331,544,0.94433594,0.3336792,-0.9854126
1605202890332,545,-0.46777344,0.101989746,-0.569397
1605202890332,546,0.78686523,0.38787842,-0.051330566
1605202890332,547,-0.6513672,-0.18560791,-0.5713501
1605202890332,548,0.8515625,0.463562,-0.0635376
1605202890334,549,1.1699219,0.12249756,-0.8086548
1605202890335,550,-0.704834,-0.3670044,-0.48980713
1605202890337,551,0.7548828,0.48236084,-0.08770752
1605202890338,552,-0.7890625,-0.48077393,-0.38311768
1605202890338,553,1.1210938,0.5187378,-0.6995239
1605202890338,554,0.87939453,0.44085693,-0.034240723
1605202890338,555,0.51904297,0.72039795,-0.7659302
1605202890341,556,-0.13647461,0.52215576,-0.6358032
1605202890341,557,0.9719238,0.38568115,-0.0015258789
1605202890344,558,-0.46777344,0.101989746,-0.569397
1605202890344,559,1.0097656,0.32781982,0.012878418
1605202890345,560,-0.6513672,-0.18560791,-0.5713501
1605202890346,561,0.9592285,0.27679443,-0.22247314
1605202890347,562,-0.704834,-0.3670044,-0.48980713
1605202890348,563,0.82788086,0.2033081,-0.4512329
1605202890349,564,-0.7890625,-0.48077393,-0.38311768
1605202890349,565,0.8527832,0.25238037,-0.51348877
1605202890350,566,0.9379883,0.40911865,-0.6826782
1605202890351,567,0.94433594,0.3336792,-0.9854126
1605202890352,568,1.1699219,0.12249756,-0.8086548
1605202890353,569,1.1210938,0.5187378,-0.6995239
1605202890355,570,0.51904297,0.72039795,-0.7659302
1605202890359,571,-0.13647461,0.52215576,-0.6358032
1605202890360,572,-0.46777344,0.101989746,-0.569397
1605202890361,573,-0.6513672,-0.18560791,-0.5713501
1605202890362,574,-0.704834,-0.3670044,-0.48980713
1605202890363,575,-0.7890625,-0.48077393,-0.38311768
1605202892802,576,-0.80908203,-0.4492798,-0.44903564
1605202892805,577,-0.80908203,-0.4492798,-0.44903564
1605202892809,578,-0.83154297,-0.600647,-0.44244385
1605202892812,579,-0.83154297,-0.600647,-0.44244385
1605202892816,580,-0.75878906,-0.7625122,-0.33233643
1605202892820,581,-0.75878906,-0.7625122,-0.33233643
1605202892823,582,-0.6989746,-0.74298096,-0.24908447
1605202892827,583,-0.6989746,-0.74298096,-0.24908447
1605202892830,584,-0.82788086,-0.8345337,-0.1873169
1605202892833,585,-0.82788086,-0.8345337,-0.1873169
1605202892836,586,-0.92871094,-0.85284424,-0.09844971
1605202892840,587,-0.92871094,-0.85284424,-0.09844971
1605202892843,588,-0.9309082,-0.74420166,-0.042297363
1605202892844,589,-0.9309082,-0.74420166,-0.042297363
1605202892847,590,-0.8132324,-0.40142822,0.030456543
1605202892847,591,-0.80908203,-0.4492798,-0.44903564
1605202892848,592,-0.8132324,-0.40142822,0.030456543
1605202892851,593,-0.83154297,-0.600647,-0.44244385
1605202892854,594,-0.32763672,0.07659912,0.0446167
1605202892857,595,-0.75878906,-0.7625122,-0.33233643
1605202892859,596,0.6401367,0.7797241,-0.43463135
1605202892863,597,-0.6989746,-0.74298096,-0.24908447
1605202892866,598,1.2941895,0.7567749,-0.9312134
1605202892868,599,-0.82788086,-0.8345337,-0.1873169
1605202892869,600,-0.32763672,0.07659912,0.0446167
1605202892869,601,1.5854492,0.48529053,-1.0027466
1605202892871,602,-0.92871094,-0.85284424,-0.09844971
1605202892871,603,0.6401367,0.7797241,-0.43463135
1605202892872,604,1.6796875,0.4857788,-1.0903931
1605202892872,605,-0.9309082,-0.74420166,-0.042297363
1605202892873,606,1.2941895,0.7567749,-0.9312134
1605202892875,607,-0.8132324,-0.40142822,0.030456543
1605202892876,608,-0.32763672,0.07659912,0.0446167
1605202892876,609,1.5854492,0.48529053,-1.0027466
1605202892877,610,1.5922852,0.49188232,-0.98443604
1605202892878,611,0.6401367,0.7797241,-0.43463135
1605202892878,612,1.6796875,0.4857788,-1.0903931
1605202892879,613,1.3791504,0.53240967,-0.60357666
1605202892880,614,1.5922852,0.49188232,-0.98443604
1605202892880,615,0.95410156,0.46697998,-0.16168213
1605202892881,616,1.3791504,0.53240967,-0.60357666
1605202892882,617,1.2941895,0.7567749,-0.9312134
1605202892883,618,0.95410156,0.46697998,-0.16168213
1605202892884,619,1.5854492,0.48529053,-1.0027466
1605202892884,620,0.5695801,0.37786865,-0.16998291
1605202892885,621,1.6796875,0.4857788,-1.0903931
1605202892886,622,0.3947754,0.21673584,0.051452637
1605202892887,623,1.5922852,0.49188232,-0.98443604
1605202892888,624,0.5695801,0.37786865,-0.16998291
1605202892888,625,0.939209,0.1408081,0.07098389
1605202892889,626,0.3947754,0.21673584,0.051452637
1605202892889,627,1.3791504,0.53240967,-0.60357666
1605202892889,628,1.1398926,0.2423706,-0.12750244
1605202892891,629,0.95410156,0.46697998,-0.16168213
1605202892891,630,0.939209,0.1408081,0.07098389
1605202892892,631,1.0292969,0.46575928,-0.29473877
1605202892892,632,0.5695801,0.37786865,-0.16998291
1605202892893,633,1.1398926,0.2423706,-0.12750244
1605202892893,634,0.6315918,0.43963623,-0.28619385
1605202892894,635,0.3947754,0.21673584,0.051452637
1605202892895,636,1.0292969,0.46575928,-0.29473877
1605202892895,637,0.4375,0.53411865,-0.18341064
1605202892896,638,0.939209,0.1408081,0.07098389
1605202892897,639,0.6315918,0.43963623,-0.28619385
1605202892897,640,0.20532227,0.7345581,-0.20709229
1605202892898,641,1.1398926,0.2423706,-0.12750244
1605202892899,642,0.40283203,1.1080933,-0.3723755
1605202892899,643,0.4375,0.53411865,-0.18341064
1605202892899,644,1.0292969,0.46575928,-0.29473877
1605202892900,645,1.0949707,1.6373901,-0.42999268
1605202892901,646,0.20532227,0.7345581,-0.20709229
1605202892901,647,0.6315918,0.43963623,-0.28619385
1605202892903,648,0.40283203,1.1080933,-0.3723755
1605202892903,649,1.2668457,1.3046265,-0.29986572
1605202892904,650,0.4375,0.53411865,-0.18341064
1605202892904,651,1.0949707,1.6373901,-0.42999268
1605202892904,652,0.68603516,0.73065186,0.0028686523
1605202892906,653,0.20532227,0.7345581,-0.20709229
1605202892907,654,1.2668457,1.3046265,-0.29986572
1605202892908,655,0.38989258,0.57440186,-0.06842041
1605202892908,656,0.68603516,0.73065186,0.0028686523
1605202892908,657,0.40283203,1.1080933,-0.3723755
1605202892909,658,0.2529297,0.2164917,-0.019836426
1605202892909,659,1.0949707,1.6373901,-0.42999268
1605202892910,660,0.38989258,0.57440186,-0.06842041
1605202892911,661,1.2668457,1.3046265,-0.29986572
1605202892911,662,0.37109375,0.101501465,-0.19537354
1605202892911,663,0.2529297,0.2164917,-0.019836426
1605202892912,664,0.782959,0.42767334,-0.72320557
1605202892912,665,0.68603516,0.73065186,0.0028686523
1605202892913,666,0.37109375,0.101501465,-0.19537354
1605202892914,667,0.38989258,0.57440186,-0.06842041
1605202892914,668,0.782959,0.42767334,-0.72320557
1605202892916,669,0.2529297,0.2164917,-0.019836426
1605202892916,670,0.37109375,0.101501465,-0.19537354
1605202892917,671,0.782959,0.42767334,-0.72320557
1605202895386,672,1.1359863,1.2597046,-1.163147
1605202895389,673,1.1359863,1.2597046,-1.163147
1605202895393,674,0.59399414,0.9540405,-0.6055298
1605202895397,675,0.59399414,0.9540405,-0.6055298
1605202895401,676,0.26391602,0.6281128,-0.44439697
1605202895404,677,0.26391602,0.6281128,-0.44439697
1605202895408,678,0.17504883,0.55096436,-0.4446411
1605202895409,679,0.17504883,0.55096436,-0.4446411
1605202895413,680,0.3540039,0.90130615,-0.6555786
1605202895415,681,0.3540039,0.90130615,-0.6555786
1605202895419,682,0.8208008,1.553894,-0.98638916
1605202895422,683,0.8208008,1.553894,-0.98638916
1605202895426,684,0.779541,1.3893433,-0.86920166
1605202895430,685,0.779541,1.3893433,-0.86920166
1605202895433,686,0.10595703,0.61151123,-0.40142822
1605202895437,687,0.10595703,0.61151123,-0.40142822
1605202895440,688,-0.19921875,0.089782715,-0.14361572
1605202895444,689,-0.19921875,0.089782715,-0.14361572
1605202895447,690,-0.056396484,-0.18023682,0.08026123
1605202895451,691,-0.056396484,-0.18023682,0.08026123
1605202895455,692,-0.09423828,-0.16656494,-0.16851807
1605202895458,693,-0.09423828,-0.16656494,-0.16851807
1605202895461,694,0.39697266,0.7526245,-0.927063
1605202895464,695,0.39697266,0.7526245,-0.927063
1605202895466,696,1.1135254,1.4135132,-1.3511353
1605202895467,697,1.1135254,1.4135132,-1.3511353
1605202895471,698,0.20703125,0.90008545,-0.5845337
1605202895472,699,0.20703125,0.90008545,-0.5845337
1605202895473,700,0.107177734,0.6654663,-0.42242432
1605202895474,701,0.107177734,0.6654663,-0.42242432
1605202895474,702,1.1359863,1.2597046,-1.163147
1605202895474,703,0.59399414,0.9540405,-0.6055298
1605202895475,704,0.26831055,0.7460327,-0.46905518
1605202895476,705,0.26391602,0.6281128,-0.44439697
1605202895477,706,0.5004883,0.88079834,-0.62042236
1605202895478,707,0.17504883,0.55096436,-0.4446411
1605202895479,708,1.3288574,1.9535522,-0.6292114
1605202895480,709,0.3540039,0.90130615,-0.6555786
1605202895481,710,0.90356445,1.5001831,-0.20977783
1605202895482,711,0.8208008,1.553894,-0.98638916
1605202895483,712,0.1015625,0.35003662,0.089782715
1605202895484,713,0.779541,1.3893433,-0.86920166
1605202895485,714,-0.17578125,0.15838623,0.29852295
1605202895486,715,0.26831055,0.7460327,-0.46905518
1605202895487,716,-0.8039551,0.44940186,0.76605225
1605202895487,717,0.5004883,0.88079834,-0.62042236
1605202895488,718,1.3288574,1.9535522,-0.6292114
1605202895489,719,-0.6669922,0.793396,-0.19537354
1605202895490,720,0.90356445,1.5001831,-0.20977783
1605202895492,721,-0.022216797,0.9345093,-0.9348755
1605202895492,722,0.1015625,0.35003662,0.089782715
1605202895492,723,0.10595703,0.61151123,-0.40142822
1605202895493,724,-0.16918945,-0.030090332,-1.3762817
1605202895494,725,-0.19921875,0.089782715,-0.14361572
1605202895495,726,0.021728516,0.18621826,-0.74346924
1605202895496,727,-0.056396484,-0.18023682,0.08026123
1605202895497,728,0.087402344,0.081726074,-0.5195923
1605202895498,729,-0.17578125,0.15838623,0.29852295
1605202895498,730,-0.09423828,-0.16656494,-0.16851807
1605202895499,731,-0.8039551,0.44940186,0.76605225
1605202895499,732,0.39697266,0.7526245,-0.927063
1605202895501,733,0.18066406,0.40057373,-0.7852173
1605202895502,734,1.1135254,1.4135132,-1.3511353
1605202895502,735,-0.6669922,0.793396,-0.19537354
1605202895502,736,0.20703125,0.90008545,-0.5845337
1605202895504,737,-0.022216797,0.9345093,-0.9348755
1605202895504,738,0.32128906,0.77948,-1.1387329
1605202895504,739,0.107177734,0.6654663,-0.42242432
1605202895505,740,-0.16918945,-0.030090332,-1.3762817
1605202895506,741,0.31884766,0.9164429,-1.0708618
1605202895506,742,0.26831055,0.7460327,-0.46905518
1605202895506,743,0.021728516,0.18621826,-0.74346924
1605202895507,744,0.5004883,0.88079834,-0.62042236
1605202895507,745,0.359375,0.6264038,-0.5947876
1605202895509,746,1.3288574,1.9535522,-0.6292114
1605202895509,747,0.087402344,0.081726074,-0.5195923
1605202895510,748,0.4177246,0.63031006,-0.33013916
1605202895510,749,0.90356445,1.5001831,-0.20977783
1605202895510,750,0.18066406,0.40057373,-0.7852173
1605202895511,751,0.32128906,0.77948,-1.1387329
1605202895512,752,0.1015625,0.35003662,0.089782715
1605202895513,753,0.31884766,0.9164429,-1.0708618
1605202895513,754,-0.17578125,0.15838623,0.29852295
1605202895514,755,0.359375,0.6264038,-0.5947876
1605202895515,756,-0.8039551,0.44940186,0.76605225
1605202895516,757,0.4177246,0.63031006,-0.33013916
1605202895516,758,-0.6669922,0.793396,-0.19537354
1605202895517,759,-0.022216797,0.9345093,-0.9348755
1605202895518,760,-0.16918945,-0.030090332,-1.3762817
1605202895522,761,0.021728516,0.18621826,-0.74346924
1605202895522,762,0.087402344,0.081726074,-0.5195923
1605202895534,763,0.18066406,0.40057373,-0.7852173
1605202895536,764,0.32128906,0.77948,-1.1387329
1605202895536,765,0.31884766,0.9164429,-1.0708618
1605202895538,766,0.359375,0.6264038,-0.5947876
1605202895539,767,0.4177246,0.63031006,-0.33013916
1605202897971,768,0.5415039,0.7037964,-0.31549072
1605202897971,769,0.5415039,0.7037964,-0.31549072
1605202897972,770,0.5415039,0.7037964,-0.31549072
1605202897972,771,0.7470703,0.74749756,-0.48980713
1605202897972,772,0.7470703,0.74749756,-0.48980713
1605202897972,773,0.7470703,0.74749756,-0.48980713
1605202897973,774,0.8183594,1.2999878,-0.5991821
1605202897974,775,0.8183594,1.2999878,-0.5991821
1605202897975,776,0.30810547,1.5250854,-0.31158447
1605202897976,777,0.30810547,1.5250854,-0.31158447
1605202897977,778,0.22875977,0.91571045,-0.21173096
1605202897977,779,0.22875977,0.91571045,-0.21173096
1605202897979,780,0.05029297,0.66204834,-0.24517822
1605202897979,781,0.8183594,1.2999878,-0.5991821
1605202897979,782,0.30810547,1.5250854,-0.31158447
1605202897980,783,-0.2722168,0.56292725,-0.18121338
1605202897981,784,0.22875977,0.91571045,-0.21173096
1605202897982,785,-0.7348633,0.7025757,-0.20050049
1605202897983,786,0.05029297,0.66204834,-0.24517822
1605202897984,787,0.05029297,0.66204834,-0.24517822
1605202897984,788,-0.8310547,0.6246948,-0.14801025
1605202897984,789,-0.2722168,0.56292725,-0.18121338
1605202897985,790,-0.2722168,0.56292725,-0.18121338
1605202897986,791,-1.0144043,0.80877686,0.5651245
1605202897986,792,-0.7348633,0.7025757,-0.20050049
1605202897987,793,-0.7348633,0.7025757,-0.20050049
1605202897988,794,-0.41455078,1.359314,0.10394287
1605202897988,795,-0.8310547,0.6246948,-0.14801025
1605202897988,796,-0.8310547,0.6246948,-0.14801025
1605202897989,797,0.25708008,0.36883545,0.10296631
1605202897989,798,-1.0144043,0.80877686,0.5651245
1605202897990,799,-1.0144043,0.80877686,0.5651245
1605202897991,800,-0.41455078,1.359314,0.10394287
1605202897992,801,0.6328125,0.117126465,-1.2119751
1605202897992,802,-0.41455078,1.359314,0.10394287
1605202897994,803,0.25708008,0.36883545,0.10296631
1605202897994,804,0.41235352,0.15716553,-0.8953247
1605202897994,805,0.25708008,0.36883545,0.10296631
1605202897995,806,0.6555176,0.8048706,-0.79229736
1605202897996,807,0.6328125,0.117126465,-1.2119751
1605202897996,808,0.6328125,0.117126465,-1.2119751
1605202897997,809,1.0112305,1.249939,-1.0064087
1605202897997,810,0.41235352,0.15716553,-0.8953247
1605202897998,811,0.41235352,0.15716553,-0.8953247
1605202897999,812,0.7380371,1.2094116,-0.9439087
1605202897999,813,0.6555176,0.8048706,-0.79229736
1605202897999,814,0.6555176,0.8048706,-0.79229736
1605202898001,815,0.22241211,0.8082886,-0.45587158
1605202898001,816,1.0112305,1.249939,-1.0064087
1605202898001,817,1.0112305,1.249939,-1.0064087
1605202898002,818,0.7380371,1.2094116,-0.9439087
1605202898003,819,0.047607422,0.5890503,-0.22271729
1605202898004,820,0.22241211,0.8082886,-0.45587158
1605202898004,821,0.7380371,1.2094116,-0.9439087
1605202898005,822,0.103515625,0.37200928,-0.23150635
1605202898006,823,0.047607422,0.5890503,-0.22271729
1605202898006,824,0.22241211,0.8082886,-0.45587158
1605202898007,825,0.55249023,1.1268921,-0.6716919
1605202898007,826,0.103515625,0.37200928,-0.23150635
1605202898007,827,0.047607422,0.5890503,-0.22271729
1605202898007,828,0.8562012,1.6290894,-0.6231079
1605202898008,829,0.55249023,1.1268921,-0.6716919
1605202898008,830,0.103515625,0.37200928,-0.23150635
1605202898009,831,0.26660156,1.1039429,-0.2666626
1605202898010,832,0.55249023,1.1268921,-0.6716919
1605202898011,833,0.8562012,1.6290894,-0.6231079
1605202898011,834,0.05078125,0.6473999,-0.17633057
1605202898012,835,0.8562012,1.6290894,-0.6231079
1605202898012,836,0.26660156,1.1039429,-0.2666626
1605202898013,837,-0.021728516,0.49871826,-0.16680908
1605202898014,838,0.05078125,0.6473999,-0.17633057
1605202898014,839,0.26660156,1.1039429,-0.2666626
1605202898015,840,-0.12573242,0.6605835,-0.28692627
1605202898015,841,-0.021728516,0.49871826,-0.16680908
1605202898016,842,0.05078125,0.6473999,-0.17633057
1605202898016,843,-0.091552734,0.69451904,-0.5996704
1605202898017,844,-0.021728516,0.49871826,-0.16680908
1605202898018,845,-0.1352539,0.34857178,-0.6980591
1605202898018,846,-0.12573242,0.6605835,-0.28692627
1605202898019,847,0.43725586,0.43304443,-1.6990356
1605202898019,848,-0.12573242,0.6605835,-0.28692627
1605202898019,849,-0.091552734,0.69451904,-0.5996704
1605202898020,850,0.30981445,0.22576904,-1.397522
1605202898021,851,-0.1352539,0.34857178,-0.6980591
1605202898021,852,-0.091552734,0.69451904,-0.5996704
1605202898022,853,0.43725586,0.43304443,-1.6990356
1605202898022,854,-0.1352539,0.34857178,-0.6980591
1605202898023,855,0.30981445,0.22576904,-1.397522
1605202898024,856,0.43725586,0.43304443,-1.6990356
1605202898026,857,-0.3137207,0.39349365,-0.5120239
1605202898028,858,0.30981445,0.22576904,-1.397522
1605202898029,859,-0.43823242,0.41741943,-0.833313
1605202898031,860,-0.3137207,0.39349365,-0.5120239
1605202898034,861,-0.3137207,0.39349365,-0.5120239
1605202898037,862,-0.43823242,0.41741943,-0.833313
1605202898039,863,-0.43823242,0.41741943,-0.833313
1605202900552,864,-0.30029297,0.4857788,-0.8587036
1605202900555,865,-0.30029297,0.4857788,-0.8587036
1605202900556,866,-0.19799805,0.5519409,-0.91851807
1605202900559,867,-0.19799805,0.5519409,-0.91851807
1605202900563,868,-0.20605469,0.70233154,-1.1592407
1605202900566,869,-0.20605469,0.70233154,-1.1592407
1605202900570,870,-0.095947266,0.59954834,-1.0823364
1605202900574,871,-0.095947266,0.59954834,-1.0823364
1605202900577,872,-0.07739258,0.31341553,-0.8225708
1605202900581,873,-0.07739258,0.31341553,-0.8225708
1605202900584,874,-0.05078125,0.14007568,-0.6465454
1605202900587,875,-0.05078125,0.14007568,-0.6465454
1605202900588,876,0.06958008,0.047058105,-0.63165283
1605202900592,877,0.06958008,0.047058105,-0.63165283
1605202900595,878,0.2133789,0.25408936,-0.5869751
1605202900600,879,0.2133789,0.25408936,-0.5869751
1605202900603,880,0.29467773,0.5055542,-0.82281494
1605202900604,881,0.29467773,0.5055542,-0.82281494
1605202900607,882,0.42871094,0.4249878,-0.7085571
1605202900611,883,0.42871094,0.4249878,-0.7085571
1605202900614,884,0.80737305,0.88983154,-0.66412354
1605202900618,885,0.80737305,0.88983154,-0.66412354
1605202900619,886,0.8137207,1.4974976,-0.8381958
1605202900620,887,0.8137207,1.4974976,-0.8381958
1605202900621,888,0.14086914,0.6911011,-0.18951416
1605202900622,889,0.14086914,0.6911011,-0.18951416
1605202900623,890,-0.30029297,0.4857788,-0.8587036
1605202900623,891,-0.1015625,0.8981323,0.83270264
1605202900623,892,-0.1015625,0.8981323,0.83270264
1605202900626,893,0.46826172,1.4308472,1.999939
1605202900626,894,0.46826172,1.4308472,1.999939
1605202900627,895,0.11621094,-0.14019775,1.484314
1605202900627,896,-0.19799805,0.5519409,-0.91851807
1605202900629,897,-0.20605469,0.70233154,-1.1592407
1605202900630,898,0.47583008,0.29071045,0.17303467
1605202900630,899,0.11621094,-0.14019775,1.484314
1605202900631,900,-0.095947266,0.59954834,-1.0823364
1605202900632,901,0.47583008,0.29071045,0.17303467
1605202900632,902,-0.07739258,0.31341553,-0.8225708
1605202900633,903,0.7158203,1.8761597,-1.1052856
1605202900634,904,0.7158203,1.8761597,-1.1052856
1605202900635,905,0.40454102,1.1669312,-0.57818604
1605202900636,906,0.40454102,1.1669312,-0.57818604
1605202900637,907,-0.16699219,1.1325073,0.75164795
1605202900638,908,-0.16699219,1.1325073,0.75164795
1605202900639,909,-0.36035156,-0.14190674,0.92181396
1605202900640,910,-0.36035156,-0.14190674,0.92181396
1605202900640,911,-0.05078125,0.14007568,-0.6465454
1605202900641,912,-0.7722168,-0.7061157,0.57318115
1605202900641,913,0.06958008,0.047058105,-0.63165283
1605202900645,914,-0.9375,-0.70758057,1.5827026
1605202900645,915,0.2133789,0.25408936,-0.5869751
1605202900646,916,-0.7722168,-0.7061157,0.57318115
1605202900647,917,-0.42749023,0.6046753,1.5473022
1605202900647,918,-0.9375,-0.70758057,1.5827026
1605202900647,919,0.29467773,0.5055542,-0.82281494
1605202900649,920,0.46240234,0.99798584,0.42913818
1605202900649,921,-0.42749023,0.6046753,1.5473022
1605202900649,922,0.42871094,0.4249878,-0.7085571
1605202900650,923,0.46240234,0.99798584,0.42913818
1605202900650,924,0.80737305,0.88983154,-0.66412354
1605202900651,925,0.52978516,1.2496948,-0.78692627
1605202900652,926,0.52978516,1.2496948,-0.78692627
1605202900652,927,0.8137207,1.4974976,-0.8381958
1605202900653,928,0.32861328,1.227478,-0.64141846
1605202900653,929,0.32861328,1.227478,-0.64141846
1605202900654,930,0.014892578,1.5326538,-0.27301025
1605202900654,931,0.14086914,0.6911011,-0.18951416
1605202900655,932,0.014892578,1.5326538,-0.27301025
1605202900655,933,-0.61450195,0.42767334,0.84051514
1605202900656,934,-0.1015625,0.8981323,0.83270264
1605202900656,935,-0.61450195,0.42767334,0.84051514
1605202900663,936,-0.6669922,-0.5449829,0.62005615
1605202900663,937,0.46826172,1.4308472,1.999939
1605202900663,938,-0.6669922,-0.5449829,0.62005615
1605202900664,939,0.39208984,-0.08843994,-0.09429932
1605202900664,940,0.11621094,-0.14019775,1.484314
1605202900664,941,0.39208984,-0.08843994,-0.09429932
1605202900664,942,0.47583008,0.29071045,0.17303467
1605202900664,943,1.3005371,0.5753784,-0.63897705
1605202900665,944,1.3005371,0.5753784,-0.63897705
1605202900665,945,0.7158203,1.8761597,-1.1052856
1605202900665,946,0.40454102,1.1669312,-0.57818604
1605202900665,947,-0.16699219,1.1325073,0.75164795
1605202900666,948,-0.36035156,-0.14190674,0.92181396
1605202900666,949,-0.7722168,-0.7061157,0.57318115
1605202900667,950,-0.9375,-0.70758057,1.5827026
1605202900667,951,-0.42749023,0.6046753,1.5473022
1605202900668,952,0.46240234,0.99798584,0.42913818
1605202900670,953,0.52978516,1.2496948,-0.78692627
1605202900670,954,0.32861328,1.227478,-0.64141846
1605202900670,955,0.014892578,1.5326538,-0.27301025
1605202900671,956,-0.61450195,0.42767334,0.84051514
1605202900672,957,-0.6669922,-0.5449829,0.62005615
1605202900672,958,0.39208984,-0.08843994,-0.09429932
1605202900673,959,1.3005371,0.5753784,-0.63897705
1605202903136,960,1.9997559,1.6481323,-0.73272705
1605202903137,961,1.9997559,1.6481323,-0.73272705
1605202903138,962,1.9997559,1.6481323,-0.73272705
1605202903140,963,1.0437012,1.3483276,-0.3418579
1605202903140,964,1.0437012,1.3483276,-0.3418579
1605202903141,965,1.0437012,1.3483276,-0.3418579
1605202903141,966,0.49975586,0.88983154,0.034118652
1605202903141,967,0.49975586,0.88983154,0.034118652
1605202903142,968,0.5024414,0.8932495,0.14520264
1605202903143,969,0.5932617,0.9237671,-0.058654785
1605202903144,970,0.5024414,0.8932495,0.14520264
1605202903145,971,0.7902832,0.9213257,-0.40533447
1605202903146,972,0.5932617,0.9237671,-0.058654785
1605202903148,973,0.49975586,0.88983154,0.034118652
1605202903148,974,0.59399414,1.00531,-0.16558838
1605202903149,975,0.7902832,0.9213257,-0.40533447
1605202903150,976,0.51171875,0.78582764,-0.25054932
1605202903151,977,0.5024414,0.8932495,0.14520264
1605202903151,978,0.59399414,1.00531,-0.16558838
1605202903151,979,0.6262207,0.6923218,-0.2617798
1605202903152,980,0.51171875,0.78582764,-0.25054932
1605202903153,981,0.7583008,0.72528076,-0.29595947
1605202903154,982,0.5932617,0.9237671,-0.058654785
1605202903155,983,0.7077637,0.6168823,-0.26202393
1605202903157,984,0.5698242,0.6576538,-0.33258057
1605202903160,985,0.7902832,0.9213257,-0.40533447
1605202903164,986,0.42944336,0.7855835,-0.34210205
1605202903167,987,0.59399414,1.00531,-0.16558838
1605202903173,988,0.4260254,0.8624878,-0.27008057
1605202903173,989,0.6262207,0.6923218,-0.2617798
1605202903174,990,0.51171875,0.78582764,-0.25054932
1605202903174,991,0.3618164,0.75897217,-0.24859619
1605202903180,992,0.7583008,0.72528076,-0.29595947
1605202903181,993,0.35864258,0.80389404,-0.3189087
1605202903181,994,0.6262207,0.6923218,-0.2617798
1605202903181,995,0.7077637,0.6168823,-0.26202393
1605202903181,996,0.517334,1.0814819,-0.37799072
1605202903183,997,0.7583008,0.72528076,-0.29595947
1605202903186,998,0.42285156,1.0636597,-0.3682251
1605202903190,999,0.7077637,0.6168823,-0.26202393
1605202903193,1000,0.32006836,1.0841675,-0.37091064
1605202903194,1001,0.5698242,0.6576538,-0.33258057
1605202903196,1002,0.32373047,1.1754761,-0.47027588
1605202903196,1003,0.42944336,0.7855835,-0.34210205
1605202903196,1004,0.5698242,0.6576538,-0.33258057
1605202903197,1005,0.40478516,1.0829468,-0.47052002
1605202903198,1006,0.42944336,0.7855835,-0.34210205
1605202903199,1007,0.28295898,0.63690186,-0.27178955
1605202903201,1008,0.4260254,0.8624878,-0.27008057
1605202903201,1009,0.10961914,0.25115967,-0.09991455
1605202903202,1010,0.4260254,0.8624878,-0.27008057
1605202903203,1011,0.47998047,0.11151123,-0.2053833
1605202903204,1012,0.3618164,0.75897217,-0.24859619
1605202903205,1013,1.2119141,0.16571045,-0.31329346
1605202903206,1014,0.3618164,0.75897217,-0.24859619
1605202903206,1015,0.35864258,0.80389404,-0.3189087
1605202903207,1016,0.35864258,0.80389404,-0.3189087
1605202903208,1017,0.517334,1.0814819,-0.37799072
1605202903209,1018,0.517334,1.0814819,-0.37799072
1605202903210,1019,0.42285156,1.0636597,-0.3682251
1605202903211,1020,0.42285156,1.0636597,-0.3682251
1605202903212,1021,0.32006836,1.0841675,-0.37091064
1605202903214,1022,0.32006836,1.0841675,-0.37091064
1605202903214,1023,1.5947266,0.4159546,-0.317688
1605202903214,1024,0.32373047,1.1754761,-0.47027588
1605202903217,1025,0.32373047,1.1754761,-0.47027588
1605202903217,1026,0.40478516,1.0829468,-0.47052002
1605202903218,1027,0.40478516,1.0829468,-0.47052002
1605202903218,1028,0.28295898,0.63690186,-0.27178955
1605202903220,1029,1.463623,0.43572998,-0.1026001
1605202903220,1030,0.28295898,0.63690186,-0.27178955
1605202903221,1031,0.10961914,0.25115967,-0.09991455
1605202903221,1032,1.2792969,0.38275146,-0.003479004
1605202903222,1033,0.10961914,0.25115967,-0.09991455
1605202903222,1034,0.47998047,0.11151123,-0.2053833
1605202903223,1035,1.076416,0.31170654,-0.019836426
1605202903223,1036,0.47998047,0.11151123,-0.2053833
1605202903224,1037,1.2119141,0.16571045,-0.31329346
1605202903225,1038,0.8647461,0.2868042,-0.14923096
1605202903225,1039,1.2119141,0.16571045,-0.31329346
1605202903226,1040,1.5947266,0.4159546,-0.317688
1605202903226,1041,0.91552734,0.28216553,-0.27374268
1605202903226,1042,1.463623,0.43572998,-0.1026001
1605202903228,1043,0.7331543,0.3378296,-0.46148682
1605202903228,1044,1.5947266,0.4159546,-0.317688
1605202903230,1045,1.2792969,0.38275146,-0.003479004
1605202903230,1046,1.463623,0.43572998,-0.1026001
1605202903231,1047,1.076416,0.31170654,-0.019836426
1605202903232,1048,1.2792969,0.38275146,-0.003479004
1605202903233,1049,1.076416,0.31170654,-0.019836426
1605202903234,1050,0.8647461,0.2868042,-0.14923096
1605202903235,1051,0.8647461,0.2868042,-0.14923096
1605202903235,1052,0.91552734,0.28216553,-0.27374268
1605202903235,1053,0.91552734,0.28216553,-0.27374268
1605202903236,1054,0.7331543,0.3378296,-0.46148682
1605202903236,1055,0.7331543,0.3378296,-0.46148682
1605202905723,1056,1.1103516,0.25164795,-0.58306885
1605202905724,1057,1.1103516,0.25164795,-0.58306885
1605202905724,1058,1.1103516,0.25164795,-0.58306885
1605202905724,1059,1.682373,-0.010070801,-0.362854
1605202905727,1060,1.390625,-0.066467285,-0.23297119
1605202905731,1061,1.682373,-0.010070801,-0.362854
1605202905735,1062,0.9094238,-0.078186035,-0.15924072
1605202905738,1063,1.390625,-0.066467285,-0.23297119
1605202905742,1064,0.62280273,-0.07159424,-0.0803833
1605202905745,1065,0.9094238,-0.078186035,-0.15924072
1605202905749,1066,0.7685547,0.25506592,-0.16461182
1605202905753,1067,0.62280273,-0.07159424,-0.0803833
1605202905755,1068,1.1416016,0.6937866,-0.18780518
1605202905757,1069,0.7685547,0.25506592,-0.16461182
1605202905758,1070,1.0344238,0.7658081,-0.23248291
1605202905759,1071,1.1416016,0.6937866,-0.18780518
1605202905761,1072,0.8222656,0.5380249,-0.28179932
1605202905762,1073,1.0344238,0.7658081,-0.23248291
1605202905763,1074,1.682373,-0.010070801,-0.362854
1605202905764,1075,0.7614746,0.39642334,-0.40948486
1605202905764,1076,1.390625,-0.066467285,-0.23297119
1605202905766,1077,0.7524414,0.13763428,-0.4102173
1605202905767,1078,0.9094238,-0.078186035,-0.15924072
1605202905768,1079,0.8210449,-0.019836426,-0.4668579
1605202905769,1080,0.62280273,-0.07159424,-0.0803833
1605202905769,1081,0.90356445,-0.14801025,-0.4487915
1605202905770,1082,0.9362793,-0.2144165,-0.39971924
1605202905772,1083,0.8222656,0.5380249,-0.28179932
1605202905772,1084,1.0151367,-0.24810791,-0.33233643
1605202905772,1085,0.7685547,0.25506592,-0.16461182
1605202905774,1086,0.9641113,-0.3118286,-0.23101807
1605202905775,1087,0.7614746,0.39642334,-0.40948486
1605202905775,1088,1.1416016,0.6937866,-0.18780518
1605202905775,1089,1.0344238,0.7658081,-0.23248291
1605202905776,1090,0.6948242,-0.1963501,-0.270813
1605202905778,1091,0.8222656,0.5380249,-0.28179932
1605202905778,1092,0.4362793,0.13763428,-0.44903564
1605202905778,1093,0.7614746,0.39642334,-0.40948486
1605202905779,1094,0.7524414,0.13763428,-0.4102173
1605202905780,1095,0.7524414,0.13763428,-0.4102173
1605202905781,1096,0.560791,0.5297241,-0.50909424
1605202905781,1097,0.8210449,-0.019836426,-0.4668579
1605202905782,1098,0.7565918,0.78045654,-0.5042114
1605202905782,1099,0.8210449,-0.019836426,-0.4668579
1605202905783,1100,0.90356445,-0.14801025,-0.4487915
1605202905784,1101,1.1271973,1.0634155,-0.55841064
1605202905784,1102,0.90356445,-0.14801025,-0.4487915
1605202905785,1103,1.3266602,1.2142944,-0.7053833
1605202905786,1104,0.9362793,-0.2144165,-0.39971924
1605202905786,1105,0.9362793,-0.2144165,-0.39971924
1605202905787,1106,0.9785156,0.8942261,-0.6343384
1605202905787,1107,1.0151367,-0.24810791,-0.33233643
1605202905787,1108,1.0151367,-0.24810791,-0.33233643
1605202905788,1109,0.42407227,0.3151245,-0.3567505
1605202905788,1110,0.9641113,-0.3118286,-0.23101807
1605202905789,1111,0.9641113,-0.3118286,-0.23101807
1605202905790,1112,0.17407227,0.06536865,-0.23052979
1605202905791,1113,0.6948242,-0.1963501,-0.270813
1605202905791,1114,0.6948242,-0.1963501,-0.270813
1605202905792,1115,0.4362793,0.13763428,-0.44903564
1605202905793,1116,0.24633789,0.027770996,-0.30841064
1605202905793,1117,0.4362793,0.13763428,-0.44903564
1605202905793,1118,0.560791,0.5297241,-0.50909424
1605202905794,1119,0.7097168,0.2506714,-0.5215454
1605202905795,1120,0.560791,0.5297241,-0.50909424
1605202905795,1121,0.7565918,0.78045654,-0.5042114
1605202905796,1122,1.2385254,0.66815186,-1.020813
1605202905796,1123,0.7565918,0.78045654,-0.5042114
1605202905796,1124,1.1271973,1.0634155,-0.55841064
1605202905796,1125,1.3266602,1.2142944,-0.7053833
1605202905797,1126,1.1271973,1.0634155,-0.55841064
1605202905797,1127,1.0935059,0.69158936,-0.8731079
1605202905798,1128,0.9785156,0.8942261,-0.6343384
1605202905798,1129,1.065918,0.90130615,-0.8826294
1605202905798,1130,1.3266602,1.2142944,-0.7053833
1605202905799,1131,0.42407227,0.3151245,-0.3567505
1605202905800,1132,0.9785156,0.8942261,-0.6343384
1605202905800,1133,0.6940918,0.6911011,-0.57525635
1605202905800,1134,0.17407227,0.06536865,-0.23052979
1605202905801,1135,0.37304688,0.41986084,-0.43414307
1605202905801,1136,0.42407227,0.3151245,-0.3567505
1605202905801,1137,0.24633789,0.027770996,-0.30841064
1605202905802,1138,0.17407227,0.06536865,-0.23052979
1605202905803,1139,0.7097168,0.2506714,-0.5215454
1605202905803,1140,0.24633789,0.027770996,-0.30841064
1605202905803,1141,1.2385254,0.66815186,-1.020813
1605202905804,1142,0.7097168,0.2506714,-0.5215454
1605202905805,1143,1.0935059,0.69158936,-0.8731079
1605202905805,1144,1.2385254,0.66815186,-1.020813
1605202905806,1145,1.065918,0.90130615,-0.8826294
1605202905806,1146,1.0935059,0.69158936,-0.8731079
1605202905807,1147,0.6940918,0.6911011,-0.57525635
1605202905807,1148,1.065918,0.90130615,-0.8826294
1605202905808,1149,0.37304688,0.41986084,-0.43414307
1605202905809,1150,0.6940918,0.6911011,-0.57525635
1605202905809,1151,0.37304688,0.41986084,-0.43414307
1605202908306,1152,0.15332031,0.1293335,-0.2876587
1605202908306,1153,0.15332031,0.1293335,-0.2876587
1605202908306,1154,0.15332031,0.1293335,-0.2876587
1605202908308,1155,0.37475586,0.23358154,-0.3513794
1605202908309,1156,0.37475586,0.23358154,-0.3513794
1605202908309,1157,0.37475586,0.23358154,-0.3513794
1605202908311,1158,1.0029297,0.99139404,-0.6321411
1605202908311,1159,1.0029297,0.99139404,-0.6321411
1605202908311,1160,1.0029297,0.99139404,-0.6321411
1605202908314,1161,0.91552734,0.8949585,-0.17584229
1605202908314,1162,0.91552734,0.8949585,-0.17584229
1605202908315,1163,0.91552734,0.8949585,-0.17584229
1605202908315,1164,0.45751953,0.67889404,0.013366699
1605202908317,1165,0.45751953,0.67889404,0.013366699
1605202908318,1166,0.45751953,0.67889404,0.013366699
1605202908318,1167,0.4543457,0.8060913,-0.09625244
1605202908318,1168,0.4543457,0.8060913,-0.09625244
1605202908319,1169,0.4543457,0.8060913,-0.09625244
1605202908320,1170,1.2385254,1.4696655,-0.7095337
1605202908321,1171,1.2385254,1.4696655,-0.7095337
1605202908321,1172,1.2385254,1.4696655,-0.7095337
1605202908321,1173,0.8251953,0.7946167,-0.62164307
1605202908322,1174,0.8251953,0.7946167,-0.62164307
1605202908323,1175,0.8251953,0.7946167,-0.62164307
1605202908324,1176,0.5437012,0.43182373,-0.5874634
1605202908326,1177,0.5437012,0.43182373,-0.5874634
1605202908326,1178,0.5437012,0.43182373,-0.5874634
1605202908327,1179,0.16821289,0.3300171,-0.47833252
1605202908327,1180,-0.11010742,0.24188232,-0.2263794
1605202908329,1181,0.076660156,0.14105225,-0.24029541
1605202908330,1182,0.16821289,0.3300171,-0.47833252
1605202908330,1183,0.16821289,0.3300171,-0.47833252
1605202908330,1184,0.46411133,0.1161499,-0.39996338
1605202908332,1185,-0.11010742,0.24188232,-0.2263794
1605202908332,1186,0.076660156,0.14105225,-0.24029541
1605202908333,1187,1.2431641,0.21331787,-0.42681885
1605202908334,1188,0.46411133,0.1161499,-0.39996338
1605202908335,1189,-0.11010742,0.24188232,-0.2263794
1605202908336,1190,1.7819824,0.34954834,-0.3982544
1605202908336,1191,0.076660156,0.14105225,-0.24029541
1605202908337,1192,1.4936523,0.55682373,-0.1116333
1605202908337,1193,1.2431641,0.21331787,-0.42681885
1605202908338,1194,1.2519531,0.44354248,-0.04864502
1605202908338,1195,1.7819824,0.34954834,-0.3982544
1605202908339,1196,1.4936523,0.55682373,-0.1116333
1605202908339,1197,1.1445312,0.22821045,0.07147217
1605202908340,1198,0.46411133,0.1161499,-0.39996338
1605202908341,1199,0.9621582,0.17840576,0.08856201
1605202908342,1200,1.2519531,0.44354248,-0.04864502
1605202908342,1201,1.2431641,0.21331787,-0.42681885
1605202908343,1202,1.1445312,0.22821045,0.07147217
1605202908344,1203,0.8833008,0.24212646,0.03289795
1605202908345,1204,0.9621582,0.17840576,0.08856201
1605202908346,1205,0.92333984,0.27264404,-0.2617798
1605202908346,1206,0.8833008,0.24212646,0.03289795
1605202908347,1207,1.7819824,0.34954834,-0.3982544
1605202908348,1208,1.0888672,0.24920654,-0.38482666
1605202908348,1209,0.92333984,0.27264404,-0.2617798
1605202908349,1210,1.4936523,0.55682373,-0.1116333
1605202908350,1211,0.74731445,0.24334717,-0.32647705
1605202908350,1212,1.0888672,0.24920654,-0.38482666
1605202908351,1213,0.796875,0.23602295,-0.23052979
1605202908352,1214,1.2519531,0.44354248,-0.04864502
1605202908352,1215,0.74731445,0.24334717,-0.32647705
1605202908353,1216,1.6296387,0.66693115,-0.21221924
1605202908353,1217,1.1445312,0.22821045,0.07147217
1605202908353,1218,0.796875,0.23602295,-0.23052979
1605202908356,1219,1.9248047,0.776062,-0.019836426
1605202908357,1220,0.9621582,0.17840576,0.08856201
1605202908357,1221,1.6296387,0.66693115,-0.21221924
1605202908357,1222,1.2299805,0.48529053,0.20037842
1605202908358,1223,0.8833008,0.24212646,0.03289795
1605202908358,1224,0.8005371,0.39788818,-0.20318604
1605202908359,1225,0.92333984,0.27264404,-0.2617798
1605202908360,1226,1.9248047,0.776062,-0.019836426
1605202908360,1227,0.7907715,0.44207764,-0.38824463
1605202908362,1228,1.2299805,0.48529053,0.20037842
1605202908362,1229,1.0888672,0.24920654,-0.38482666
1605202908363,1230,0.19116211,0.5326538,-0.4920044
1605202908363,1231,0.8005371,0.39788818,-0.20318604
1605202908365,1232,-0.08105469,0.27288818,-0.19488525
1605202908365,1233,0.74731445,0.24334717,-0.32647705
1605202908365,1234,0.7907715,0.44207764,-0.38824463
1605202908366,1235,0.796875,0.23602295,-0.23052979
1605202908367,1236,0.19116211,0.5326538,-0.4920044
1605202908367,1237,9.765625E-4,0.21160889,-0.19488525
1605202908368,1238,-0.08105469,0.27288818,-0.19488525
1605202908369,1239,1.6296387,0.66693115,-0.21221924
1605202908370,1240,1.9248047,0.776062,-0.019836426
1605202908370,1241,9.765625E-4,0.21160889,-0.19488525
1605202908372,1242,1.2299805,0.48529053,0.20037842
1605202908373,1243,0.8005371,0.39788818,-0.20318604
1605202908374,1244,0.7907715,0.44207764,-0.38824463
1605202908375,1245,0.19116211,0.5326538,-0.4920044
1605202908376,1246,-0.08105469,0.27288818,-0.19488525
1605202908378,1247,9.765625E-4,0.21160889,-0.19488525
1605202910884,1248,0.47045898,0.50946045,-0.5003052
1605202910884,1249,1.0957031,0.42669678,-0.3496704
1605202910885,1250,0.47045898,0.50946045,-0.5003052
1605202910886,1251,0.47045898,0.50946045,-0.5003052
1605202910887,1252,1.4331055,0.24847412,-0.09088135
1605202910890,1253,1.0957031,0.42669678,-0.3496704
1605202910891,1254,1.9804688,0.52996826,-0.24005127
1605202910893,1255,1.4331055,0.24847412,-0.09088135
1605202910893,1256,1.0957031,0.42669678,-0.3496704
1605202910893,1257,1.9804688,0.52996826,-0.24005127
1605202910894,1258,1.4902344,0.95428467,-0.28131104
1605202910896,1259,1.4902344,0.95428467,-0.28131104
1605202910897,1260,1.4331055,0.24847412,-0.09088135
1605202910897,1261,0.59399414,0.4725952,-0.105529785
1605202910899,1262,0.59399414,0.4725952,-0.105529785
1605202910900,1263,0.23999023,0.41912842,0.0072631836
1605202910901,1264,1.9804688,0.52996826,-0.24005127
1605202910903,1265,0.23999023,0.41912842,0.0072631836
1605202910906,1266,0.25756836,0.5062866,-0.029846191
1605202910907,1267,1.4902344,0.95428467,-0.28131104
1605202910911,1268,0.25756836,0.5062866,-0.029846191
1605202910912,1269,0.8630371,0.7665405,-0.17852783
1605202910914,1270,0.59399414,0.4725952,-0.105529785
1605202910918,1271,0.8630371,0.7665405,-0.17852783
1605202910920,1272,0.23999023,0.41912842,0.0072631836
1605202910921,1273,1.3120117,0.9682007,-0.37823486
1605202910923,1274,0.25756836,0.5062866,-0.029846191
1605202910923,1275,0.53881836,0.6273804,-0.42242432
1605202910926,1276,0.8630371,0.7665405,-0.17852783
1605202910926,1277,1.3120117,0.9682007,-0.37823486
1605202910926,1278,1.3120117,0.9682007,-0.37823486
1605202910927,1279,0.43945312,1.0470581,-0.34405518
1605202910928,1280,0.53881836,0.6273804,-0.42242432
1605202910928,1281,0.32543945,1.2911987,-0.48321533
1605202910929,1282,0.53881836,0.6273804,-0.42242432
1605202910930,1283,0.43945312,1.0470581,-0.34405518
1605202910931,1284,0.17211914,0.84051514,-0.40631104
1605202910932,1285,0.43945312,1.0470581,-0.34405518
1605202910933,1286,0.32543945,1.2911987,-0.48321533
1605202910933,1287,0.32543945,1.2911987,-0.48321533
1605202910934,1288,0.17211914,0.84051514,-0.40631104
1605202910934,1289,-0.07299805,0.42181396,-0.31451416
1605202910934,1290,0.17211914,0.84051514,-0.40631104
1605202910935,1291,-0.07299805,0.42181396,-0.31451416
1605202910936,1292,-0.39746094,0.41033936,-0.3135376
1605202910936,1293,-0.07299805,0.42181396,-0.31451416
1605202910937,1294,-0.39746094,0.41033936,-0.3135376
1605202910937,1295,-0.53930664,0.5482788,-0.77667236
1605202910938,1296,-0.39746094,0.41033936,-0.3135376
1605202910938,1297,-0.53930664,0.5482788,-0.77667236
1605202910939,1298,-0.47583008,0.3131714,-1.0293579
1605202910939,1299,-0.24731445,-0.06427002,-1.0007935
1605202910940,1300,-0.1796875,-0.31671143,-0.79351807
1605202910941,1301,-0.47583008,0.3131714,-1.0293579
1605202910942,1302,-0.53930664,0.5482788,-0.77667236
1605202910942,1303,-0.24731445,-0.06427002,-1.0007935
1605202910943,1304,-0.28222656,-0.5923462,-0.9248657
1605202910943,1305,-0.009765625,-0.5171509,-0.9258423
1605202910944,1306,-0.1796875,-0.31671143,-0.79351807
1605202910944,1307,-0.47583008,0.3131714,-1.0293579
1605202910945,1308,0.020996094,-0.70391846,-0.798645
1605202910945,1309,-0.28222656,-0.5923462,-0.9248657
1605202910946,1310,-0.24731445,-0.06427002,-1.0007935
1605202910947,1311,-0.009765625,-0.5171509,-0.9258423
1605202910947,1312,-0.021484375,-0.60772705,-0.8049927
1605202910947,1313,0.020996094,-0.70391846,-0.798645
1605202910948,1314,-0.10571289,-0.51153564,-0.80792236
1605202910948,1315,-0.13793945,-0.40142822,-0.8106079
1605202910949,1316,-0.17089844,-0.0115356445,-0.9956665
1605202910949,1317,-0.021484375,-0.60772705,-0.8049927
1605202910950,1318,-0.35498047,0.37835693,-0.954895
1605202910951,1319,-0.1796875,-0.31671143,-0.79351807
1605202910951,1320,-0.10571289,-0.51153564,-0.80792236
1605202910951,1321,-0.3449707,0.576355,-0.9812622
1605202910951,1322,-0.28222656,-0.5923462,-0.9248657
1605202910951,1323,-0.40673828,-0.06500244,-1.0203247
1605202910952,1324,-0.13793945,-0.40142822,-0.8106079
1605202910952,1325,-0.009765625,-0.5171509,-0.9258423
1605202910952,1326,0.020996094,-0.70391846,-0.798645
1605202910953,1327,-0.34887695,-0.4319458,-0.9146118
1605202910953,1328,-0.021484375,-0.60772705,-0.8049927
1605202910954,1329,-0.10571289,-0.51153564,-0.80792236
1605202910954,1330,-0.28173828,-0.1987915,-0.85894775
1605202910954,1331,-0.17089844,-0.0115356445,-0.9956665
1605202910955,1332,-0.35498047,0.37835693,-0.954895
1605202910956,1333,-0.13793945,-0.40142822,-0.8106079
1605202910956,1334,-0.3449707,0.576355,-0.9812622
1605202910956,1335,-0.17089844,-0.0115356445,-0.9956665
1605202910956,1336,-0.40673828,-0.06500244,-1.0203247
1605202910957,1337,-0.34887695,-0.4319458,-0.9146118
1605202910957,1338,-0.35498047,0.37835693,-0.954895
1605202910958,1339,-0.3449707,0.576355,-0.9812622
1605202910958,1340,-0.28173828,-0.1987915,-0.85894775
1605202910958,1341,-0.40673828,-0.06500244,-1.0203247
1605202910959,1342,-0.34887695,-0.4319458,-0.9146118
1605202910960,1343,-0.28173828,-0.1987915,-0.85894775
1605202913466,1344,-0.111083984,0.17913818,-0.4590454
1605202913467,1345,-0.111083984,0.17913818,-0.4590454
1605202913467,1346,-0.111083984,0.17913818,-0.4590454
1605202913467,1347,0.10522461,0.38201904,-0.28277588
1605202913468,1348,0.10522461,0.38201904,-0.28277588
1605202913469,1349,0.48657227,0.78167725,-0.1026001
1605202913470,1350,0.10522461,0.38201904,-0.28277588
1605202913470,1351,0.48657227,0.78167725,-0.1026001
1605202913471,1352,0.80126953,1.4728394,-0.04888916
1605202913471,1353,0.48657227,0.78167725,-0.1026001
1605202913472,1354,1.5463867,1.4005737,-0.62506104
1605202913472,1355,0.80126953,1.4728394,-0.04888916
1605202913473,1356,0.80126953,1.4728394,-0.04888916
1605202913473,1357,1.6064453,0.8637085,-0.9924927
1605202913474,1358,1.5463867,1.4005737,-0.62506104
1605202913475,1359,1.5463867,1.4005737,-0.62506104
1605202913475,1360,1.1225586,0.36468506,-0.99005127
1605202913476,1361,1.6064453,0.8637085,-0.9924927
1605202913476,1362,1.1225586,0.36468506,-0.99005127
1605202913477,1363,0.4013672,0.199646,-0.75860596
1605202913477,1364,-0.2475586,0.03265381,-0.39605713
1605202913478,1365,0.4013672,0.199646,-0.75860596
1605202913478,1366,1.6064453,0.8637085,-0.9924927
1605202913478,1367,1.1225586,0.36468506,-0.99005127
1605202913479,1368,-0.2475586,0.03265381,-0.39605713
1605202913479,1369,0.4013672,0.199646,-0.75860596
1605202913480,1370,-0.7023926,-0.21905518,-0.27008057
1605202913480,1371,-0.2475586,0.03265381,-0.39605713
1605202913480,1372,-0.5036621,1.0563354,-0.98101807
1605202913481,1373,-0.7023926,-0.21905518,-0.27008057
1605202913481,1374,-0.5749512,-0.1765747,-0.30548096
1605202913482,1375,-0.5036621,1.0563354,-0.98101807
1605202913482,1376,-0.22705078,-0.2835083,-0.097473145
1605202913482,1377,-0.5749512,-0.1765747,-0.30548096
1605202913483,1378,0.4975586,-0.050842285,-0.21881104
1605202913483,1379,-0.7023926,-0.21905518,-0.27008057
1605202913484,1380,1.6101074,0.023864746,-0.26080322
1605202913484,1381,-0.5036621,1.0563354,-0.98101807
1605202913485,1382,-0.22705078,-0.2835083,-0.097473145
1605202913485,1383,-0.5749512,-0.1765747,-0.30548096
1605202913485,1384,1.9997559,0.33270264,0.24334717
1605202913486,1385,0.4975586,-0.050842285,-0.21881104
1605202913486,1386,1.9997559,0.78411865,-0.190979
1605202913487,1387,-0.22705078,-0.2835083,-0.097473145
1605202913487,1388,0.4975586,-0.050842285,-0.21881104
1605202913488,1389,1.8486328,0.21429443,0.070495605
1605202913488,1390,1.6101074,0.023864746,-0.26080322
1605202913489,1391,1.6101074,0.023864746,-0.26080322
1605202913490,1392,1.4233398,0.31292725,0.3595581
1605202913490,1393,1.9997559,0.33270264,0.24334717
1605202913490,1394,1.9997559,0.33270264,0.24334717
1605202913490,1395,1.9997559,0.78411865,-0.190979
1605202913491,1396,0.8483887,0.38201904,0.31903076
1605202913491,1397,1.8486328,0.21429443,0.070495605
1605202913492,1398,0.5019531,0.21478271,0.31292725
1605202913492,1399,1.9997559,0.78411865,-0.190979
1605202913492,1400,1.4233398,0.31292725,0.3595581
1605202913492,1401,0.67529297,0.2843628,0.21624756
1605202913493,1402,0.8483887,0.38201904,0.31903076
1605202913493,1403,1.8486328,0.21429443,0.070495605
1605202913494,1404,0.9577637,0.5692749,-0.63482666
1605202913494,1405,1.4233398,0.31292725,0.3595581
1605202913495,1406,1.1901855,0.52557373,-0.68292236
1605202913495,1407,0.8483887,0.38201904,0.31903076
1605202913496,1408,1.3352051,0.47772217,-0.57818604
1605202913496,1409,0.5019531,0.21478271,0.31292725
1605202913497,1410,1.7163086,0.53240967,-0.5054321
1605202913497,1411,0.67529297,0.2843628,0.21624756
1605202913499,1412,1.6105957,0.70062256,-0.25079346
1605202913500,1413,0.5019531,0.21478271,0.31292725
1605202913500,1414,0.9577637,0.5692749,-0.63482666
1605202913500,1415,0.67529297,0.2843628,0.21624756
1605202913501,1416,0.82006836,0.5946655,0.019714355
1605202913501,1417,1.1901855,0.52557373,-0.68292236
1605202913502,1418,0.38891602,0.30682373,-0.054992676
1605202913502,1419,0.9577637,0.5692749,-0.63482666
1605202913502,1420,1.1901855,0.52557373,-0.68292236
1605202913503,1421,-0.057373047,0.18426514,-0.10211182
1605202913503,1422,1.3352051,0.47772217,-0.57818604
1605202913503,1423,-0.23388672,0.4611206,-0.20831299
1605202913504,1424,1.3352051,0.47772217,-0.57818604
1605202913505,1425,-0.07910156,0.5140991,-0.31793213
1605202913505,1426,1.7163086,0.53240967,-0.5054321
1605202913506,1427,1.7163086,0.53240967,-0.5054321
1605202913506,1428,1.6105957,0.70062256,-0.25079346
1605202913506,1429,1.6105957,0.70062256,-0.25079346
1605202913507,1430,0.82006836,0.5946655,0.019714355
1605202913507,1431,0.82006836,0.5946655,0.019714355
1605202913508,1432,0.38891602,0.30682373,-0.054992676
1605202913509,1433,0.38891602,0.30682373,-0.054992676
1605202913509,1434,-0.057373047,0.18426514,-0.10211182
1605202913510,1435,-0.057373047,0.18426514,-0.10211182
1605202913511,1436,-0.23388672,0.4611206,-0.20831299
1605202913511,1437,-0.23388672,0.4611206,-0.20831299
1605202913511,1438,-0.07910156,0.5140991,-0.31793213
1605202913513,1439,-0.07910156,0.5140991,-0.31793213
1605202915855,1440,0.25683594,0.5343628,-0.4697876
1605202915855,1441,0.25683594,0.5343628,-0.4697876
1605202915855,1442,0.77685547,0.7301636,-0.57891846
1605202915855,1443,0.25683594,0.5343628,-0.4697876
1605202915855,1444,1.2124023,0.78656006,-0.4319458
1605202915856,1445,0.77685547,0.7301636,-0.57891846
1605202915859,1446,1.2888184,1.2235718,-0.22247314
1605202915862,1447,1.2124023,0.78656006,-0.4319458
1605202915863,1448,0.77685547,0.7301636,-0.57891846
1605202915863,1449,0.7224121,0.88861084,-0.011291504
1605202915864,1450,1.2888184,1.2235718,-0.22247314
1605202915865,1451,1.2124023,0.78656006,-0.4319458
1605202915865,1452,0.46264648,0.6635132,0.09246826
1605202915867,1453,0.7224121,0.88861084,-0.011291504
1605202915868,1454,0.52734375,0.7086792,0.078063965
1605202915868,1455,0.46264648,0.6635132,0.09246826
1605202915869,1456,1.2888184,1.2235718,-0.22247314
1605202915870,1457,0.5148926,1.0980835,0.013366699
1605202915870,1458,0.52734375,0.7086792,0.078063965
1605202915871,1459,0.7224121,0.88861084,-0.011291504
1605202915872,1460,0.31469727,1.211853,-0.06866455
1605202915873,1461,0.5148926,1.0980835,0.013366699
1605202915874,1462,0.18481445,1.0504761,0.2140503
1605202915875,1463,0.46264648,0.6635132,0.09246826
1605202915875,1464,0.31469727,1.211853,-0.06866455
1605202915878,1465,0.18847656,0.8539429,0.3895874
1605202915878,1466,0.52734375,0.7086792,0.078063965
1605202915878,1467,0.18481445,1.0504761,0.2140503
1605202915880,1468,0.11328125,0.6757202,0.37298584
1605202915883,1469,0.18847656,0.8539429,0.3895874
1605202915883,1470,0.10229492,0.81536865,0.35101318
1605202915884,1471,0.5148926,1.0980835,0.013366699
1605202915884,1472,0.31469727,1.211853,-0.06866455
1605202915885,1473,0.18481445,1.0504761,0.2140503
1605202915886,1474,0.16381836,0.87615967,0.22479248
1605202915886,1475,0.11328125,0.6757202,0.37298584
1605202915887,1476,0.10229492,0.81536865,0.35101318
1605202915887,1477,0.12182617,0.8200073,0.16448975
1605202915888,1478,0.16992188,0.79119873,0.07220459
1605202915888,1479,0.16381836,0.87615967,0.22479248
1605202915889,1480,0.12182617,0.8200073,0.16448975
1605202915889,1481,0.28686523,0.8768921,-0.094055176
1605202915890,1482,0.31103516,1.1217651,-0.097229004
1605202915891,1483,0.18847656,0.8539429,0.3895874
1605202915891,1484,0.41723633,0.93548584,-0.2144165
1605202915891,1485,0.16992188,0.79119873,0.07220459
1605202915895,1486,0.11328125,0.6757202,0.37298584
1605202915895,1487,0.10229492,0.81536865,0.35101318
1605202915896,1488,0.28686523,0.8768921,-0.094055176
1605202915896,1489,0.24487305,0.7094116,-0.28741455
1605202915897,1490,0.2626953,0.95184326,-0.24884033
1605202915897,1491,0.31103516,1.1217651,-0.097229004
1605202915898,1492,0.41723633,0.93548584,-0.2144165
1605202915898,1493,0.31884766,1.0021362,-0.26812744
1605202915899,1494,0.34838867,0.8451538,-0.3706665
1605202915900,1495,0.16381836,0.87615967,0.22479248
1605202915900,1496,0.12182617,0.8200073,0.16448975
1605202915901,1497,0.16992188,0.79119873,0.07220459
1605202915901,1498,0.28686523,0.8768921,-0.094055176
1605202915902,1499,0.29663086,0.92474365,-0.29962158
1605202915902,1500,0.24487305,0.7094116,-0.28741455
1605202915903,1501,0.3515625,1.236023,-0.16705322
1605202915903,1502,0.32666016,1.1415405,-0.25128174
1605202915904,1503,0.31103516,1.1217651,-0.097229004
1605202915905,1504,0.23535156,0.97283936,-0.2642212
1605202915906,1505,0.41723633,0.93548584,-0.2144165
1605202915906,1506,0.2626953,0.95184326,-0.24884033
1605202915906,1507,0.08862305,1.1015015,-0.3250122
1605202915906,1508,0.24487305,0.7094116,-0.28741455
1605202915906,1509,0.31884766,1.0021362,-0.26812744
1605202915907,1510,-0.17089844,1.0045776,-0.29034424
1605202915907,1511,0.34838867,0.8451538,-0.3706665
1605202915907,1512,-0.40649414,0.83587646,-0.28009033
1605202915908,1513,0.29663086,0.92474365,-0.29962158
1605202915909,1514,0.2626953,0.95184326,-0.24884033
1605202915909,1515,-0.47875977,0.6100464,-0.34942627
1605202915909,1516,0.3515625,1.236023,-0.16705322
1605202915909,1517,-0.47753906,0.324646,-0.23248291
1605202915910,1518,0.32666016,1.1415405,-0.25128174
1605202915910,1519,0.23535156,0.97283936,-0.2642212
1605202915911,1520,0.31884766,1.0021362,-0.26812744
1605202915912,1521,0.08862305,1.1015015,-0.3250122
1605202915912,1522,0.34838867,0.8451538,-0.3706665
1605202915913,1523,-0.17089844,1.0045776,-0.29034424
1605202915913,1524,0.29663086,0.92474365,-0.29962158
1605202915913,1525,-0.40649414,0.83587646,-0.28009033
1605202915914,1526,0.3515625,1.236023,-0.16705322
1605202915914,1527,-0.47875977,0.6100464,-0.34942627
1605202915915,1528,0.32666016,1.1415405,-0.25128174
1605202915915,1529,-0.47753906,0.324646,-0.23248291
1605202915916,1530,0.23535156,0.97283936,-0.2642212
1605202915917,1531,0.08862305,1.1015015,-0.3250122
1605202915917,1532,-0.17089844,1.0045776,-0.29034424
1605202915918,1533,-0.40649414,0.83587646,-0.28009033
1605202915919,1534,-0.47875977,0.6100464,-0.34942627
1605202915919,1535,-0.47753906,0.324646,-0.23248291
1605202918434,1536,-0.42041016,0.17572021,-0.1897583
1605202918435,1537,-0.15332031,0.10076904,-0.3008423
1605202918436,1538,-0.42041016,0.17572021,-0.1897583
1605202918439,1539,0.41015625,0.10321045,-0.64556885
1605202918442,1540,-0.15332031,0.10076904,-0.3008423
1605202918445,1541,1.1206055,0.45843506,-0.9038696
1605202918445,1542,-0.42041016,0.17572021,-0.1897583
1605202918446,1543,0.41015625,0.10321045,-0.64556885
1605202918447,1544,1.6152344,0.8529663,-0.61138916
1605202918448,1545,1.1206055,0.45843506,-0.9038696
1605202918449,1546,-0.15332031,0.10076904,-0.3008423
1605202918449,1547,1.4912109,0.75286865,-0.20709229
1605202918450,1548,1.6152344,0.8529663,-0.61138916
1605202918451,1549,0.41015625,0.10321045,-0.64556885
1605202918453,1550,1.369873,0.44403076,-0.29888916
1605202918454,1551,1.1206055,0.45843506,-0.9038696
1605202918455,1552,1.1513672,0.24822998,-0.6404419
1605202918457,1553,1.4912109,0.75286865,-0.20709229
1605202918459,1554,1.369873,0.44403076,-0.29888916
1605202918460,1555,0.8330078,0.024353027,-0.6499634
1605202918462,1556,1.6152344,0.8529663,-0.61138916
1605202918462,1557,0.70214844,-0.089660645,-0.62335205
1605202918463,1558,1.4912109,0.75286865,-0.20709229
1605202918463,1559,1.1513672,0.24822998,-0.6404419
1605202918463,1560,0.78759766,-0.020324707,-0.58380127
1605202918464,1561,1.0898438,0.047790527,-0.43121338
1605202918465,1562,1.4191895,0.2189331,-0.28961182
1605202918466,1563,1.5388184,0.50286865,0.013122559
1605202918466,1564,1.369873,0.44403076,-0.29888916
1605202918467,1565,0.8330078,0.024353027,-0.6499634
1605202918467,1566,0.70214844,-0.089660645,-0.62335205
1605202918468,1567,1.2189941,0.6376343,0.085632324
1605202918468,1568,1.1513672,0.24822998,-0.6404419
1605202918469,1569,0.8330078,0.024353027,-0.6499634
1605202918469,1570,0.9758301,0.8258667,-0.16925049
1605202918470,1571,0.78759766,-0.020324707,-0.58380127
1605202918470,1572,0.70214844,-0.089660645,-0.62335205
1605202918471,1573,0.88012695,0.9784546,-0.55474854
1605202918472,1574,0.78759766,-0.020324707,-0.58380127
1605202918472,1575,1.0898438,0.047790527,-0.43121338
1605202918472,1576,1.0898438,0.047790527,-0.43121338
1605202918473,1577,0.67578125,0.62664795,-0.6243286
1605202918474,1578,1.4191895,0.2189331,-0.28961182
1605202918474,1579,1.4191895,0.2189331,-0.28961182
1605202918475,1580,1.5388184,0.50286865,0.013122559
1605202918475,1581,1.2189941,0.6376343,0.085632324
1605202918476,1582,0.9758301,0.8258667,-0.16925049
1605202918476,1583,1.5388184,0.50286865,0.013122559
1605202918477,1584,0.015136719,0.11444092,-0.22906494
1605202918478,1585,0.88012695,0.9784546,-0.55474854
1605202918478,1586,-0.2602539,0.25360107,-0.49957275
1605202918479,1587,1.2189941,0.6376343,0.085632324
1605202918479,1588,0.67578125,0.62664795,-0.6243286
1605202918479,1589,0.9758301,0.8258667,-0.16925049
1605202918480,1590,-0.40429688,0.21160889,-0.52911377
1605202918480,1591,0.015136719,0.11444092,-0.22906494
1605202918480,1592,-0.36254883,0.21624756,-0.49102783
1605202918481,1593,-0.2602539,0.25360107,-0.49957275
1605202918482,1594,-0.10131836,0.1605835,-0.3237915
1605202918482,1595,0.88012695,0.9784546,-0.55474854
1605202918483,1596,-0.40429688,0.21160889,-0.52911377
1605202918484,1597,0.41186523,0.30438232,-0.41949463
1605202918484,1598,0.67578125,0.62664795,-0.6243286
1605202918484,1599,0.015136719,0.11444092,-0.22906494
1605202918485,1600,-0.36254883,0.21624756,-0.49102783
1605202918485,1601,-0.10131836,0.1605835,-0.3237915
1605202918486,1602,1.1472168,0.5751343,-0.67315674
1605202918486,1603,0.41186523,0.30438232,-0.41949463
1605202918486,1604,1.6762695,0.68865967,-0.88531494
1605202918487,1605,-0.2602539,0.25360107,-0.49957275
1605202918488,1606,1.4160156,0.28167725,-0.5366821
1605202918488,1607,1.1472168,0.5751343,-0.67315674
1605202918488,1608,0.9699707,0.09637451,-0.378479
1605202918489,1609,-0.40429688,0.21160889,-0.52911377
1605202918489,1610,-0.36254883,0.21624756,-0.49102783
1605202918490,1611,0.81591797,0.012145996,-0.40093994
1605202918490,1612,-0.10131836,0.1605835,-0.3237915
1605202918491,1613,0.96875,-0.08404541,-0.5339966
1605202918491,1614,1.6762695,0.68865967,-0.88531494
1605202918491,1615,1.4160156,0.28167725,-0.5366821
1605202918492,1616,0.41186523,0.30438232,-0.41949463
1605202918493,1617,0.9699707,0.09637451,-0.378479
1605202918493,1618,1.1472168,0.5751343,-0.67315674
1605202918493,1619,0.81103516,-0.21148682,-0.48883057
1605202918494,1620,1.6762695,0.68865967,-0.88531494
1605202918495,1621,0.73461914,-0.25616455,-0.5171509
1605202918495,1622,0.81591797,0.012145996,-0.40093994
1605202918495,1623,0.96875,-0.08404541,-0.5339966
1605202918496,1624,1.4160156,0.28167725,-0.5366821
1605202918496,1625,0.9699707,0.09637451,-0.378479
1605202918497,1626,0.81103516,-0.21148682,-0.48883057
1605202918497,1627,0.81591797,0.012145996,-0.40093994
1605202918498,1628,0.96875,-0.08404541,-0.5339966
1605202918499,1629,0.81103516,-0.21148682,-0.48883057
1605202918499,1630,0.73461914,-0.25616455,-0.5171509
1605202918500,1631,0.73461914,-0.25616455,-0.5171509
1605202921021,1632,0.810791,-0.17852783,-0.5923462
1605202921023,1633,0.810791,-0.17852783,-0.5923462
1605202921026,1634,1.0043945,-0.0491333,-0.6651001
1605202921029,1635,1.0043945,-0.0491333,-0.6651001
1605202921032,1636,1.2490234,0.058288574,-0.69122314
1605202921035,1637,1.2490234,0.058288574,-0.69122314
1605202921038,1638,1.2668457,0.26800537,-0.66900635
1605202921039,1639,0.8894043,0.44378662,-0.58184814
1605202921039,1640,1.2668457,0.26800537,-0.66900635
1605202921042,1641,0.810791,-0.17852783,-0.5923462
1605202921045,1642,0.5078125,0.47528076,-0.61065674
1605202921046,1643,1.0043945,-0.0491333,-0.6651001
1605202921046,1644,0.8894043,0.44378662,-0.58184814
1605202921047,1645,0.1977539,0.34832764,-0.54229736
1605202921048,1646,1.2490234,0.058288574,-0.69122314
1605202921049,1647,0.5078125,0.47528076,-0.61065674
1605202921050,1648,-0.013916016,0.3522339,-0.58258057
1605202921051,1649,1.2668457,0.26800537,-0.66900635
1605202921051,1650,0.1977539,0.34832764,-0.54229736
1605202921052,1651,-0.15478516,0.43988037,-0.6865845
1605202921052,1652,0.8894043,0.44378662,-0.58184814
1605202921053,1653,-0.013916016,0.3522339,-0.58258057
1605202921054,1654,-0.3034668,0.36517334,-0.6980591
1605202921055,1655,0.5078125,0.47528076,-0.61065674
1605202921055,1656,-0.15478516,0.43988037,-0.6865845
1605202921057,1657,-0.35009766,0.4718628,-0.8406372
1605202921058,1658,-0.3034668,0.36517334,-0.6980591
1605202921058,1659,-0.41723633,0.56781006,-0.7998657
1605202921059,1660,0.1977539,0.34832764,-0.54229736
1605202921060,1661,-0.35009766,0.4718628,-0.8406372
1605202921060,1662,-0.4741211,-0.5195923,-0.054504395
1605202921061,1663,-0.013916016,0.3522339,-0.58258057
1605202921061,1664,-0.41723633,0.56781006,-0.7998657
1605202921062,1665,0.6311035,0.41278076,-0.22784424
1605202921062,1666,-0.4741211,-0.5195923,-0.054504395
1605202921063,1667,-0.15478516,0.43988037,-0.6865845
1605202921064,1668,-0.3034668,0.36517334,-0.6980591
1605202921064,1669,0.6311035,0.41278076,-0.22784424
1605202921064,1670,-0.35009766,0.4718628,-0.8406372
1605202921065,1671,0.84277344,0.65740967,-0.7107544
1605202921066,1672,0.84277344,0.65740967,-0.7107544
1605202921066,1673,1.3845215,0.124938965,-0.6494751
1605202921066,1674,1.3845215,0.124938965,-0.6494751
1605202921067,1675,-0.41723633,0.56781006,-0.7998657
1605202921068,1676,1.8662109,0.18255615,-0.40142822
1605202921068,1677,1.8662109,0.18255615,-0.40142822
1605202921068,1678,-0.4741211,-0.5195923,-0.054504395
1605202921069,1679,1.4382324,0.37200928,-0.32159424
1605202921069,1680,1.4382324,0.37200928,-0.32159424
1605202921070,1681,0.94970703,0.2994995,-0.30010986
1605202921070,1682,0.6311035,0.41278076,-0.22784424
1605202921071,1683,0.94970703,0.2994995,-0.30010986
1605202921071,1684,0.9633789,0.03656006,-0.35650635
1605202921072,1685,0.84277344,0.65740967,-0.7107544
1605202921072,1686,1.3845215,0.124938965,-0.6494751
1605202921073,1687,0.90625,-0.15386963,-0.36114502
1605202921073,1688,1.8662109,0.18255615,-0.40142822
1605202921073,1689,0.9633789,0.03656006,-0.35650635
1605202921074,1690,0.8156738,-0.21270752,-0.4126587
1605202921075,1691,0.8623047,-0.22808838,-0.48492432
1605202921075,1692,1.4382324,0.37200928,-0.32159424
1605202921075,1693,0.90625,-0.15386963,-0.36114502
1605202921075,1694,0.8244629,-0.2564087,-0.51934814
1605202921076,1695,0.8156738,-0.21270752,-0.4126587
1605202921076,1696,0.9333496,-0.30255127,-0.44024658
1605202921077,1697,0.94970703,0.2994995,-0.30010986
1605202921077,1698,0.8623047,-0.22808838,-0.48492432
1605202921077,1699,0.9633789,0.03656006,-0.35650635
1605202921078,1700,1.1003418,-0.31573486,-0.30963135
1605202921078,1701,0.90625,-0.15386963,-0.36114502
1605202921079,1702,0.8244629,-0.2564087,-0.51934814
1605202921079,1703,0.86816406,-0.30059814,-0.12408447
1605202921079,1704,0.9333496,-0.30255127,-0.44024658
1605202921080,1705,0.8156738,-0.21270752,-0.4126587
1605202921080,1706,1.1003418,-0.31573486,-0.30963135
1605202921081,1707,0.87939453,-0.17999268,-0.011291504
1605202921081,1708,0.86816406,-0.30059814,-0.12408447
1605202921084,1709,0.91674805,-0.17926025,0.05657959
1605202921085,1710,0.8623047,-0.22808838,-0.48492432
1605202921085,1711,0.87939453,-0.17999268,-0.011291504
1605202921086,1712,0.88916016,-0.2637329,0.042419434
1605202921086,1713,0.91674805,-0.17926025,0.05657959
1605202921086,1714,0.8244629,-0.2564087,-0.51934814
1605202921087,1715,1.0280762,-0.38970947,0.13275146
1605202921087,1716,0.9333496,-0.30255127,-0.44024658
1605202921088,1717,0.88916016,-0.2637329,0.042419434
1605202921088,1718,1.1003418,-0.31573486,-0.30963135
1605202921089,1719,1.0280762,-0.38970947,0.13275146
1605202921090,1720,1.0241699,-0.28668213,-0.09039307
1605202921090,1721,0.86816406,-0.30059814,-0.12408447
1605202921090,1722,1.0241699,-0.28668213,-0.09039307
1605202921091,1723,0.87939453,-0.17999268,-0.011291504
1605202921091,1724,0.91674805,-0.17926025,0.05657959
1605202921092,1725,0.88916016,-0.2637329,0.042419434
1605202921093,1726,1.0280762,-0.38970947,0.13275146
1605202921093,1727,1.0241699,-0.28668213,-0.09039307
1605202924000,1728,0.83032227,-0.3303833,-0.09552002
1605202924001,1729,0.83032227,-0.3303833,-0.09552002
1605202924002,1730,0.83032227,-0.3303833,-0.09552002
1605202924003,1731,0.84936523,-0.31549072,0.062927246
1605202924004,1732,0.84936523,-0.31549072,0.062927246
1605202924004,1733,0.8952637,-0.13873291,0.030944824
1605202924005,1734,0.8952637,-0.13873291,0.030944824
1605202924006,1735,0.84936523,-0.31549072,0.062927246
1605202924007,1736,1.0383301,-0.17877197,-0.031311035
1605202924008,1737,0.8952637,-0.13873291,0.030944824
1605202924008,1738,1.0383301,-0.17877197,-0.031311035
1605202924009,1739,1.0383301,-0.17877197,-0.031311035
1605202924010,1740,1.0446777,-0.34283447,-0.20050049
1605202924011,1741,1.0446777,-0.34283447,-0.20050049
1605202924012,1742,1.0446777,-0.34283447,-0.20050049
1605202924013,1743,0.8852539,-0.48516846,-0.32403564
1605202924013,1744,0.9094238,-0.43658447,-0.30963135
1605202924014,1745,0.8852539,-0.48516846,-0.32403564
1605202924014,1746,0.9094238,-0.43658447,-0.30963135
1605202924015,1747,0.8498535,-0.29058838,-0.31549072
1605202924016,1748,0.8852539,-0.48516846,-0.32403564
1605202924016,1749,0.8498535,-0.29058838,-0.31549072
1605202924017,1750,0.9094238,-0.43658447,-0.30963135
1605202924018,1751,0.9519043,-0.29693604,-0.24346924
1605202924018,1752,0.9519043,-0.29693604,-0.24346924
1605202924019,1753,0.8498535,-0.29058838,-0.31549072
1605202924019,1754,0.9875488,-0.3867798,-0.10992432
1605202924020,1755,0.8876953,-0.333313,-0.18756104
1605202924020,1756,0.9519043,-0.29693604,-0.24346924
1605202924021,1757,0.9875488,-0.3867798,-0.10992432
1605202924021,1758,0.9875488,-0.3867798,-0.10992432
1605202924022,1759,0.8876953,-0.333313,-0.18756104
1605202924022,1760,0.9094238,-0.29107666,-0.2901001
1605202924023,1761,0.8876953,-0.333313,-0.18756104
1605202924024,1762,0.9094238,-0.29107666,-0.2901001
1605202924024,1763,0.9094238,-0.29107666,-0.2901001
1605202924024,1764,0.88916016,-0.29229736,-0.36090088
1605202924025,1765,0.88916016,-0.29229736,-0.36090088
1605202924025,1766,0.93847656,-0.27520752,-0.36920166
1605202924026,1767,0.93847656,-0.27520752,-0.36920166
1605202924027,1768,1.0412598,-0.31011963,-0.27960205
1605202924027,1769,0.88916016,-0.29229736,-0.36090088
1605202924028,1770,0.93847656,-0.27520752,-0.36920166
1605202924028,1771,0.99194336,-0.27349854,-0.15802002
1605202924029,1772,1.0412598,-0.31011963,-0.27960205
1605202924029,1773,0.88842773,-0.13848877,-0.09161377
1605202924030,1774,1.0412598,-0.31011963,-0.27960205
1605202924030,1775,0.8811035,0.042663574,-0.14019775
1605202924030,1776,0.99194336,-0.27349854,-0.15802002
1605202924030,1777,0.99194336,-0.27349854,-0.15802002
1605202924031,1778,0.88842773,-0.13848877,-0.09161377
1605202924031,1779,0.8811035,0.042663574,-0.14019775
1605202924032,1780,0.88842773,-0.13848877,-0.09161377
1605202924033,1781,1.0244141,0.25286865,-0.15045166
1605202924033,1782,0.8811035,0.042663574,-0.14019775
1605202924033,1783,1.0244141,0.25286865,-0.15045166
1605202924033,1784,1.0244141,0.25286865,-0.15045166
1605202924034,1785,1.3210449,0.3673706,-0.11602783
1605202924034,1786,1.3210449,0.3673706,-0.11602783
1605202924035,1787,1.4951172,0.44110107,-0.19976807
1605202924035,1788,1.3210449,0.3673706,-0.11602783
1605202924035,1789,1.4951172,0.44110107,-0.19976807
1605202924039,1790,1.4951172,0.44110107,-0.19976807
1605202924039,1791,1.0334473,0.30511475,-0.29229736
1605202924039,1792,0.67041016,0.2675171,-0.3460083
1605202924040,1793,0.37646484,0.1930542,-0.30255127
1605202924041,1794,0.38427734,0.27679443,-0.36016846
1605202924043,1795,0.6135254,0.60614014,-0.5774536
1605202924043,1796,0.59887695,0.7938843,-0.60772705
1605202924044,1797,0.2553711,1.0470581,-0.33477783
1605202924044,1798,1.0334473,0.30511475,-0.29229736
1605202924044,1799,0.1394043,1.6596069,-0.035217285
1605202924045,1800,0.67041016,0.2675171,-0.3460083
1605202924046,1801,0.22607422,1.3346558,0.17401123
1605202924046,1802,0.37646484,0.1930542,-0.30255127
1605202924046,1803,-0.017578125,0.7091675,0.42816162
1605202924047,1804,1.0334473,0.30511475,-0.29229736
1605202924047,1805,0.38427734,0.27679443,-0.36016846
1605202924047,1806,-0.16625977,0.7001343,0.3847046
1605202924048,1807,0.67041016,0.2675171,-0.3460083
1605202924048,1808,0.6135254,0.60614014,-0.5774536
1605202924049,1809,0.37646484,0.1930542,-0.30255127
1605202924050,1810,0.59887695,0.7938843,-0.60772705
1605202924051,1811,0.38427734,0.27679443,-0.36016846
1605202924051,1812,0.2553711,1.0470581,-0.33477783
1605202924051,1813,0.6135254,0.60614014,-0.5774536
1605202924052,1814,0.1394043,1.6596069,-0.035217285
1605202924053,1815,0.59887695,0.7938843,-0.60772705
1605202924053,1816,0.22607422,1.3346558,0.17401123
1605202924053,1817,0.2553711,1.0470581,-0.33477783
1605202924054,1818,-0.017578125,0.7091675,0.42816162
1605202924054,1819,0.1394043,1.6596069,-0.035217285
1605202924054,1820,-0.16625977,0.7001343,0.3847046
1605202924055,1821,0.22607422,1.3346558,0.17401123
1605202924056,1822,-0.017578125,0.7091675,0.42816162
1605202924056,1823,-0.16625977,0.7001343,0.3847046
1605202926387,1824,-0.23950195,0.67889404,0.14813232
1605202926387,1825,-0.23950195,0.67889404,0.14813232
1605202926388,1826,-0.23950195,0.67889404,0.14813232
1605202926389,1827,-0.25219727,0.7218628,-0.06964111
1605202926389,1828,-0.25219727,0.7218628,-0.06964111
1605202926390,1829,-0.18603516,0.6732788,-0.081848145
1605202926392,1830,-0.18603516,0.6732788,-0.081848145
1605202926393,1831,-0.064697266,0.49261475,-0.12359619
1605202926394,1832,-0.25219727,0.7218628,-0.06964111
1605202926395,1833,-0.18603516,0.6732788,-0.081848145
1605202926396,1834,-0.064697266,0.49261475,-0.12359619
1605202926399,1835,0.2121582,0.7411499,-0.32720947
1605202926400,1836,0.2121582,0.7411499,-0.32720947
1605202926403,1837,-0.064697266,0.49261475,-0.12359619
1605202926403,1838,0.4423828,1.0348511,-0.5960083
1605202926403,1839,0.2121582,0.7411499,-0.32720947
1605202926403,1840,0.5239258,1.0509644,-0.73272705
1605202926404,1841,0.4423828,1.0348511,-0.5960083
1605202926407,1842,0.5361328,0.8703003,-0.6873169
1605202926412,1843,0.5239258,1.0509644,-0.73272705
1605202926413,1844,0.4423828,1.0348511,-0.5960083
1605202926413,1845,0.51464844,0.7260132,-0.6165161
1605202926413,1846,0.5239258,1.0509644,-0.73272705
1605202926414,1847,0.5361328,0.8703003,-0.6873169
1605202926415,1848,0.55322266,0.6671753,-0.5029907
1605202926416,1849,0.5361328,0.8703003,-0.6873169
1605202926416,1850,0.51464844,0.7260132,-0.6165161
1605202926418,1851,0.5932617,0.6871948,-0.5003052
1605202926418,1852,0.51464844,0.7260132,-0.6165161
1605202926419,1853,0.45458984,0.69744873,-0.60406494
1605202926420,1854,0.55322266,0.6671753,-0.5029907
1605202926421,1855,0.55322266,0.6671753,-0.5029907
1605202926421,1856,0.5932617,0.6871948,-0.5003052
1605202926422,1857,0.5932617,0.6871948,-0.5003052
1605202926422,1858,0.45458984,0.69744873,-0.60406494
1605202926423,1859,0.38842773,0.8258667,-0.6404419
1605202926424,1860,0.45458984,0.69744873,-0.60406494
1605202926424,1861,0.38842773,0.8258667,-0.6404419
1605202926425,1862,0.36572266,1.0614624,-0.536438
1605202926426,1863,0.38842773,0.8258667,-0.6404419
1605202926426,1864,0.22387695,0.9906616,-0.43536377
1605202926427,1865,0.36572266,1.0614624,-0.536438
1605202926427,1866,0.22387695,0.9906616,-0.43536377
1605202926428,1867,0.17700195,0.7838745,-0.32159424
1605202926429,1868,0.17700195,0.7838745,-0.32159424
1605202926429,1869,0.36572266,1.0614624,-0.536438
1605202926430,1870,0.23217773,0.7692261,-0.42144775
1605202926430,1871,0.23217773,0.7692261,-0.42144775
1605202926430,1872,0.22387695,0.9906616,-0.43536377
1605202926430,1873,0.42407227,0.7941284,-0.5256958
1605202926431,1874,0.42407227,0.7941284,-0.5256958
1605202926431,1875,0.17700195,0.7838745,-0.32159424
1605202926432,1876,0.35498047,0.57073975,-0.50006104
1605202926432,1877,0.35498047,0.57073975,-0.50006104
1605202926433,1878,0.23217773,0.7692261,-0.42144775
1605202926433,1879,0.42407227,0.7941284,-0.5256958
1605202926434,1880,0.38623047,0.5187378,-0.5901489
1605202926434,1881,0.37304688,0.40081787,-0.62335205
1605202926435,1882,0.35498047,0.57073975,-0.50006104
1605202926435,1883,0.38623047,0.5187378,-0.5901489
1605202926436,1884,0.37304688,0.40081787,-0.62335205
1605202926437,1885,0.43676758,0.46600342,-0.7263794
1605202926437,1886,0.54003906,0.6022339,-0.6123657
1605202926439,1887,0.80200195,0.6173706,-0.3850708
1605202926439,1888,0.43676758,0.46600342,-0.7263794
1605202926439,1889,1.1218262,0.73553467,-0.34747314
1605202926439,1890,1.1394043,0.54437256,-0.22808838
1605202926440,1891,0.54003906,0.6022339,-0.6123657
1605202926440,1892,0.80200195,0.6173706,-0.3850708
1605202926441,1893,0.9831543,0.432312,-0.22784424
1605202926441,1894,0.83325195,0.3710327,-0.3237915
1605202926442,1895,1.1218262,0.73553467,-0.34747314
1605202926442,1896,0.38623047,0.5187378,-0.5901489
1605202926443,1897,0.7675781,0.38641357,-0.31256104
1605202926443,1898,0.37304688,0.40081787,-0.62335205
1605202926444,1899,1.1394043,0.54437256,-0.22808838
1605202926444,1900,0.7895508,0.5336304,-0.18829346
1605202926445,1901,0.8671875,0.5360718,-0.016174316
1605202926445,1902,0.9831543,0.432312,-0.22784424
1605202926446,1903,0.83325195,0.3710327,-0.3237915
1605202926446,1904,0.70166016,0.45721436,-0.006652832
1605202926448,1905,0.43676758,0.46600342,-0.7263794
1605202926448,1906,0.54003906,0.6022339,-0.6123657
1605202926449,1907,0.7675781,0.38641357,-0.31256104
1605202926450,1908,0.80200195,0.6173706,-0.3850708
1605202926450,1909,0.7895508,0.5336304,-0.18829346
1605202926451,1910,1.1218262,0.73553467,-0.34747314
1605202926451,1911,0.8671875,0.5360718,-0.016174316
1605202926451,1912,1.1394043,0.54437256,-0.22808838
1605202926453,1913,0.9831543,0.432312,-0.22784424
1605202926453,1914,0.70166016,0.45721436,-0.006652832
1605202926454,1915,0.83325195,0.3710327,-0.3237915
1605202926455,1916,0.7675781,0.38641357,-0.31256104
1605202926455,1917,0.7895508,0.5336304,-0.18829346
1605202926456,1918,0.8671875,0.5360718,-0.016174316
1605202926457,1919,0.70166016,0.45721436,-0.006652832
1605202928770,1920,0.86450195,0.35394287,0.062194824
1605202928771,1921,0.86450195,0.35394287,0.062194824
1605202928774,1922,0.86450195,0.35394287,0.062194824
1605202928775,1923,0.7285156,0.45037842,0.051940918
1605202928775,1924,0.7285156,0.45037842,0.051940918
1605202928776,1925,0.671875,0.557312,0.08929443
1605202928776,1926,0.7285156,0.45037842,0.051940918
1605202928777,1927,0.671875,0.557312,0.08929443
1605202928778,1928,0.671875,0.557312,0.08929443
1605202928779,1929,0.8166504,0.65545654,0.089538574
1605202928779,1930,0.8166504,0.65545654,0.089538574
1605202928780,1931,1.0029297,0.77679443,0.17767334
1605202928781,1932,1.0029297,0.77679443,0.17767334
1605202928783,1933,0.8166504,0.65545654,0.089538574
1605202928783,1934,0.87475586,1.0116577,0.16131592
1605202928783,1935,0.87475586,1.0116577,0.16131592
1605202928783,1936,1.0029297,0.77679443,0.17767334
1605202928783,1937,0.72387695,0.8060913,0.24432373
1605202928784,1938,0.72387695,0.8060913,0.24432373
1605202928784,1939,0.8395996,0.6137085,0.34368896
1605202928785,1940,0.87475586,1.0116577,0.16131592
1605202928786,1941,0.8371582,0.48260498,0.49139404
1605202928786,1942,0.72387695,0.8060913,0.24432373
1605202928787,1943,0.9279785,0.604187,0.30438232
1605202928787,1944,0.8395996,0.6137085,0.34368896
1605202928789,1945,0.8371582,0.48260498,0.49139404
1605202928790,1946,0.6694336,0.39398193,0.3319702
1605202928790,1947,0.9279785,0.604187,0.30438232
1605202928790,1948,0.68530273,0.44207764,0.33636475
1605202928791,1949,0.8395996,0.6137085,0.34368896
1605202928791,1950,0.8371582,0.48260498,0.49139404
1605202928792,1951,0.6694336,0.39398193,0.3319702
1605202928792,1952,0.9279785,0.604187,0.30438232
1605202928793,1953,0.7265625,0.6671753,0.4459839
1605202928793,1954,0.6694336,0.39398193,0.3319702
1605202928794,1955,0.68530273,0.44207764,0.33636475
1605202928794,1956,0.53515625,0.9076538,0.49041748
1605202928795,1957,0.68530273,0.44207764,0.33636475
1605202928795,1958,0.31762695,1.0792847,0.44525146
1605202928796,1959,0.7265625,0.6671753,0.4459839
1605202928796,1960,0.07836914,1.1176147,0.45721436
1605202928796,1961,0.7265625,0.6671753,0.4459839
1605202928797,1962,0.53515625,0.9076538,0.49041748
1605202928797,1963,0.04248047,1.0460815,0.44818115
1605202928797,1964,0.31762695,1.0792847,0.44525146
1605202928798,1965,0.53515625,0.9076538,0.49041748
1605202928798,1966,0.07836914,1.1176147,0.45721436
1605202928799,1967,0.31762695,1.0792847,0.44525146
1605202928799,1968,0.032714844,1.0402222,0.16644287
1605202928799,1969,0.07836914,1.1176147,0.45721436
1605202928800,1970,-0.1899414,1.0575562,0.023620605
1605202928800,1971,0.04248047,1.0460815,0.44818115
1605202928801,1972,-0.26049805,1.0841675,-0.10723877
1605202928801,1973,0.04248047,1.0460815,0.44818115
1605202928801,1974,-0.09814453,0.9591675,-0.2695923
1605202928802,1975,0.032714844,1.0402222,0.16644287
1605202928802,1976,0.032714844,1.0402222,0.16644287
1605202928805,1977,-0.1899414,1.0575562,0.023620605
1605202928806,1978,-0.099365234,0.50213623,-0.206604
1605202928806,1979,-0.1899414,1.0575562,0.023620605
1605202928806,1980,-0.26049805,1.0841675,-0.10723877
1605202928806,1981,0.16137695,0.62835693,-0.3892212
1605202928806,1982,-0.09814453,0.9591675,-0.2695923
1605202928806,1983,0.21850586,0.68914795,-0.61602783
1605202928806,1984,-0.26049805,1.0841675,-0.10723877
1605202928806,1985,-0.099365234,0.50213623,-0.206604
1605202928808,1986,0.3371582,0.5783081,-0.62286377
1605202928808,1987,0.16137695,0.62835693,-0.3892212
1605202928808,1988,0.4284668,0.56292725,-0.68927
1605202928809,1989,-0.09814453,0.9591675,-0.2695923
1605202928811,1990,0.5109863,0.3883667,-0.62677
1605202928811,1991,0.21850586,0.68914795,-0.61602783
1605202928811,1992,-0.099365234,0.50213623,-0.206604
1605202928811,1993,0.16137695,0.62835693,-0.3892212
1605202928811,1994,0.81030273,0.1918335,-0.5779419
1605202928812,1995,0.21850586,0.68914795,-0.61602783
1605202928812,1996,0.3371582,0.5783081,-0.62286377
1605202928813,1997,0.3371582,0.5783081,-0.62286377
1605202928813,1998,1.3657227,0.16448975,-0.5588989
1605202928813,1999,0.4284668,0.56292725,-0.68927
1605202928814,2000,0.4284668,0.56292725,-0.68927
1605202928815,2001,0.5109863,0.3883667,-0.62677
1605202928815,2002,1.4150391,0.27703857,-0.4644165
1605202928816,2003,0.81030273,0.1918335,-0.5779419
1605202928816,2004,1.1369629,0.07171631,-0.21295166
1605202928816,2005,0.5109863,0.3883667,-0.62677
1605202928817,2006,0.8852539,-0.24395752,-0.0569458
1605202928817,2007,0.81030273,0.1918335,-0.5779419
1605202928819,2008,1.3657227,0.16448975,-0.5588989
1605202928819,2009,1.3657227,0.16448975,-0.5588989
1605202928819,2010,1.4150391,0.27703857,-0.4644165
1605202928819,2011,1.4150391,0.27703857,-0.4644165
1605202928820,2012,1.1369629,0.07171631,-0.21295166
1605202928820,2013,1.1369629,0.07171631,-0.21295166
1605202928821,2014,0.8852539,-0.24395752,-0.0569458
1605202928821,2015,0.8852539,-0.24395752,-0.0569458
1605202931355,2016,0.95532227,-0.34820557,-0.026184082
1605202931356,2017,0.95532227,-0.34820557,-0.026184082
1605202931357,2018,0.95532227,-0.34820557,-0.026184082
1605202931358,2019,0.9370117,-0.28033447,-0.09112549
1605202931359,2020,0.9370117,-0.28033447,-0.09112549
1605202931359,2021,0.9370117,-0.28033447,-0.09112549
1605202931360,2022,0.9140625,-0.2588501,-0.08892822
1605202931361,2023,0.9140625,-0.2588501,-0.08892822
1605202931362,2024,0.9140625,-0.2588501,-0.08892822
1605202931365,2025,0.8720703,-0.31988525,-0.10626221
1605202931365,2026,0.8720703,-0.31988525,-0.10626221
1605202931366,2027,0.87890625,-0.43756104,-0.16436768
1605202931367,2028,1.0090332,-0.48199463,-0.09112549
1605202931368,2029,0.87890625,-0.43756104,-0.16436768
1605202931368,2030,0.91796875,-0.31085205,0.07928467
1605202931368,2031,0.8720703,-0.31988525,-0.10626221
1605202931368,2032,1.0090332,-0.48199463,-0.09112549
1605202931370,2033,0.87890625,-0.43756104,-0.16436768
1605202931370,2034,0.91796875,-0.31085205,0.07928467
1605202931371,2035,0.79174805,-0.12335205,0.28167725
1605202931372,2036,0.79174805,-0.12335205,0.28167725
1605202931373,2037,1.0090332,-0.48199463,-0.09112549
1605202931374,2038,0.85424805,-0.11968994,0.21356201
1605202931374,2039,0.91796875,-0.31085205,0.07928467
1605202931375,2040,0.85424805,-0.11968994,0.21356201
1605202931376,2041,0.8779297,-0.1519165,0.15716553
1605202931377,2042,0.79174805,-0.12335205,0.28167725
1605202931378,2043,0.8779297,-0.1519165,0.15716553
1605202931378,2044,0.85424805,-0.11968994,0.21356201
1605202931379,2045,0.8833008,-0.116760254,0.13690186
1605202931379,2046,0.8833008,-0.116760254,0.13690186
1605202931380,2047,0.8779297,-0.1519165,0.15716553
1605202931381,2048,0.94799805,-0.0178833,0.10296631
1605202931381,2049,0.94799805,-0.0178833,0.10296631
1605202931382,2050,1.3376465,0.09466553,0.168396
1605202931383,2051,0.8833008,-0.116760254,0.13690186
1605202931383,2052,1.3376465,0.09466553,0.168396
1605202931383,2053,1.2810059,0.20697021,0.15545654
1605202931384,2054,1.2348633,0.23724365,0.082214355
1605202931384,2055,1.2810059,0.20697021,0.15545654
1605202931385,2056,1.2348633,0.23724365,0.082214355
1605202931385,2057,1.1599121,0.215271,0.07977295
1605202931386,2058,0.9968262,0.36883545,0.0040893555
1605202931386,2059,1.1599121,0.215271,0.07977295
1605202931387,2060,0.9968262,0.36883545,0.0040893555
1605202931388,2061,0.9182129,0.55389404,-0.03741455
1605202931388,2062,0.94799805,-0.0178833,0.10296631
1605202931388,2063,0.9182129,0.55389404,-0.03741455
1605202931389,2064,0.82373047,0.6461792,-0.07305908
1605202931390,2065,1.3376465,0.09466553,0.168396
1605202931390,2066,0.82373047,0.6461792,-0.07305908
1605202931391,2067,0.4934082,0.66937256,-0.18267822
1605202931391,2068,0.4934082,0.66937256,-0.18267822
1605202931392,2069,0.21899414,0.57196045,-0.18804932
1605202931392,2070,0.21899414,0.57196045,-0.18804932
1605202931393,2071,1.2810059,0.20697021,0.15545654
1605202931393,2072,0.075927734,0.63739014,-0.21026611
1605202931394,2073,1.2348633,0.23724365,0.082214355
1605202931394,2074,0.075927734,0.63739014,-0.21026611
1605202931394,2075,1.1599121,0.215271,0.07977295
1605202931395,2076,0.9968262,0.36883545,0.0040893555
1605202931395,2077,0.080078125,0.5634155,-0.26812744
1605202931396,2078,0.9182129,0.55389404,-0.03741455
1605202931396,2079,0.82373047,0.6461792,-0.07305908
1605202931397,2080,0.3515625,0.5548706,-0.29327393
1605202931397,2081,0.4934082,0.66937256,-0.18267822
1605202931398,2082,0.21899414,0.57196045,-0.18804932
1605202931398,2083,0.64941406,0.73602295,-0.3081665
1605202931398,2084,0.075927734,0.63739014,-0.21026611
1605202931399,2085,0.7607422,0.9935913,-0.38970947
1605202931399,2086,0.080078125,0.5634155,-0.26812744
1605202931400,2087,0.080078125,0.5634155,-0.26812744
1605202931400,2088,0.3515625,0.5548706,-0.29327393
1605202931401,2089,0.3515625,0.5548706,-0.29327393
1605202931401,2090,0.6286621,1.0158081,-0.30718994
1605202931402,2091,0.64941406,0.73602295,-0.3081665
1605202931402,2092,0.64941406,0.73602295,-0.3081665
1605202931402,2093,0.45166016,0.97943115,-0.2576294
1605202931402,2094,0.7607422,0.9935913,-0.38970947
1605202931403,2095,0.7607422,0.9935913,-0.38970947
1605202931403,2096,0.4711914,0.86517334,-0.17071533
1605202931404,2097,0.6286621,1.0158081,-0.30718994
1605202931404,2098,0.6286621,1.0158081,-0.30718994
1605202931405,2099,0.45166016,0.97943115,-0.2576294
1605202931405,2100,0.45166016,0.97943115,-0.2576294
1605202931405,2101,0.59277344,0.75823975,-0.07867432
1605202931405,2102,0.4711914,0.86517334,-0.17071533
1605202931406,2103,0.77197266,0.77093506,-0.014221191
1605202931406,2104,0.4711914,0.86517334,-0.17071533
1605202931407,2105,0.59277344,0.75823975,-0.07867432
1605202931407,2106,0.59277344,0.75823975,-0.07867432
1605202931408,2107,0.77197266,0.77093506,-0.014221191
1605202931408,2108,0.8371582,0.6288452,-0.030334473
1605202931409,2109,0.8371582,0.6288452,-0.030334473
1605202931410,2110,0.77197266,0.77093506,-0.014221191
1605202931410,2111,0.8371582,0.6288452,-0.030334473
1605202933935,2112,0.90356445,0.5302124,-0.08843994
1605202933936,2113,0.90356445,0.5302124,-0.08843994
1605202933936,2114,0.9194336,0.480896,-0.11798096
1605202933937,2115,0.9194336,0.480896,-0.11798096
1605202933937,2116,0.90356445,0.5302124,-0.08843994
1605202933937,2117,0.9194336,0.480896,-0.11798096
1605202933938,2118,0.90283203,0.43328857,-0.14776611
1605202933938,2119,0.90283203,0.43328857,-0.14776611
1605202933938,2120,0.86621094,0.4569702,-0.222229
1605202933939,2121,0.86621094,0.4569702,-0.222229
1605202933939,2122,0.88256836,0.38372803,-0.3147583
1605202933940,2123,0.717041,0.2670288,-0.44586182
1605202933940,2124,0.90283203,0.43328857,-0.14776611
1605202933941,2125,0.86621094,0.4569702,-0.222229
1605202933941,2126,0.6911621,0.22454834,-0.54888916
1605202933941,2127,0.88256836,0.38372803,-0.3147583
1605202933942,2128,0.88256836,0.38372803,-0.3147583
1605202933942,2129,0.717041,0.2670288,-0.44586182
1605202933943,2130,0.74731445,0.22210693,-0.5820923
1605202933943,2131,0.717041,0.2670288,-0.44586182
1605202933944,2132,0.6911621,0.22454834,-0.54888916
1605202933944,2133,0.6911621,0.22454834,-0.54888916
1605202933945,2134,0.81689453,0.17962646,-0.5820923
1605202933945,2135,0.74731445,0.22210693,-0.5820923
1605202933945,2136,0.845459,0.13616943,-0.5401001
1605202933946,2137,0.74731445,0.22210693,-0.5820923
1605202933946,2138,0.81469727,0.2958374,-0.5183716
1605202933947,2139,0.81689453,0.17962646,-0.5820923
1605202933947,2140,0.70166016,0.6129761,-0.5671997
1605202933948,2141,0.81689453,0.17962646,-0.5820923
1605202933949,2142,0.5217285,0.75115967,-0.58258057
1605202933949,2143,0.845459,0.13616943,-0.5401001
1605202933949,2144,0.41992188,0.6869507,-0.5772095
1605202933950,2145,0.845459,0.13616943,-0.5401001
1605202933950,2146,0.3544922,0.5380249,-0.5408325
1605202933951,2147,0.81469727,0.2958374,-0.5183716
1605202933952,2148,0.34765625,0.5223999,-0.5186157
1605202933952,2149,0.81469727,0.2958374,-0.5183716
1605202933953,2150,0.34838867,0.63201904,-0.45489502
1605202933953,2151,0.70166016,0.6129761,-0.5671997
1605202933953,2152,0.4543457,0.7057495,-0.4854126
1605202933954,2153,0.70166016,0.6129761,-0.5671997
1605202933955,2154,0.5029297,0.697937,-0.5310669
1605202933955,2155,0.5217285,0.75115967,-0.58258057
1605202933956,2156,0.5217285,0.75115967,-0.58258057
1605202933957,2157,0.49780273,0.6083374,-0.45928955
1605202933957,2158,0.41992188,0.6869507,-0.5772095
1605202933957,2159,0.41992188,0.6869507,-0.5772095
1605202933957,2160,0.5671387,0.63397217,-0.48321533
1605202933957,2161,0.3544922,0.5380249,-0.5408325
1605202933957,2162,0.3544922,0.5380249,-0.5408325
1605202933957,2163,0.60424805,0.6378784,-0.5239868
1605202933958,2164,0.34765625,0.5223999,-0.5186157
1605202933958,2165,0.34765625,0.5223999,-0.5186157
1605202933959,2166,0.592041,0.64349365,-0.49786377
1605202933959,2167,0.34838867,0.63201904,-0.45489502
1605202933960,2168,0.34838867,0.63201904,-0.45489502
1605202933960,2169,0.6813965,0.84490967,-0.46124268
1605202933961,2170,0.4543457,0.7057495,-0.4854126
1605202933961,2171,0.4543457,0.7057495,-0.4854126
1605202933961,2172,0.609375,1.0619507,-0.37335205
1605202933962,2173,0.5029297,0.697937,-0.5310669
1605202933962,2174,0.4777832,1.1498413,-0.21466064
1605202933962,2175,0.5029297,0.697937,-0.5310669
1605202933963,2176,0.49780273,0.6083374,-0.45928955
1605202933963,2177,0.49780273,0.6083374,-0.45928955
1605202933964,2178,0.37768555,1.0487671,-0.11114502
1605202933964,2179,0.5671387,0.63397217,-0.48321533
1605202933965,2180,0.5671387,0.63397217,-0.48321533
1605202933965,2181,0.2512207,0.949646,-0.14385986
1605202933965,2182,0.60424805,0.6378784,-0.5239868
1605202933965,2183,0.60424805,0.6378784,-0.5239868
1605202933966,2184,0.07861328,0.82977295,-0.1416626
1605202933966,2185,0.592041,0.64349365,-0.49786377
1605202933967,2186,0.592041,0.64349365,-0.49786377
1605202933967,2187,-0.045654297,0.8668823,-0.16729736
1605202933967,2188,0.6813965,0.84490967,-0.46124268
1605202933968,2189,-0.12036133,0.82806396,-0.17462158
1605202933968,2190,0.609375,1.0619507,-0.37335205
1605202933969,2191,-0.10913086,0.82489014,-0.3123169
1605202933969,2192,0.4777832,1.1498413,-0.21466064
1605202933970,2193,0.6813965,0.84490967,-0.46124268
1605202933970,2194,0.37768555,1.0487671,-0.11114502
1605202933970,2195,0.609375,1.0619507,-0.37335205
1605202933970,2196,0.2512207,0.949646,-0.14385986
1605202933971,2197,0.4777832,1.1498413,-0.21466064
1605202933971,2198,0.07861328,0.82977295,-0.1416626
1605202933972,2199,0.37768555,1.0487671,-0.11114502
1605202933973,2200,-0.045654297,0.8668823,-0.16729736
1605202933973,2201,0.2512207,0.949646,-0.14385986
1605202933974,2202,-0.12036133,0.82806396,-0.17462158
1605202933974,2203,0.07861328,0.82977295,-0.1416626
1605202933975,2204,-0.10913086,0.82489014,-0.3123169
1605202933975,2205,-0.045654297,0.8668823,-0.16729736
1605202933976,2206,-0.12036133,0.82806396,-0.17462158
1605202933977,2207,-0.10913086,0.82489014,-0.3123169
1605202936523,2208,-0.061767578,0.6066284,-0.38409424
1605202936524,2209,0.051757812,0.5092163,-0.46099854
1605202936525,2210,-0.061767578,0.6066284,-0.38409424
1605202936527,2211,0.38330078,0.619812,-0.56622314
1605202936527,2212,-0.061767578,0.6066284,-0.38409424
1605202936528,2213,0.051757812,0.5092163,-0.46099854
1605202936529,2214,0.7626953,0.9022827,-0.6482544
1605202936529,2215,0.051757812,0.5092163,-0.46099854
1605202936535,2216,0.38330078,0.619812,-0.56622314
1605202936535,2217,0.7626953,0.9022827,-0.6482544
1605202936535,2218,0.7219238,0.90545654,-0.53497314
1605202936535,2219,0.7219238,0.90545654,-0.53497314
1605202936535,2220,0.38330078,0.619812,-0.56622314
1605202936539,2221,0.78100586,0.84295654,-0.44683838
1605202936539,2222,0.78100586,0.84295654,-0.44683838
1605202936540,2223,0.7626953,0.9022827,-0.6482544
1605202936542,2224,0.7248535,0.7103882,-0.33355713
1605202936543,2225,0.7219238,0.90545654,-0.53497314
1605202936544,2226,0.7248535,0.7103882,-0.33355713
1605202936544,2227,0.78100586,0.84295654,-0.44683838
1605202936545,2228,0.71069336,0.7489624,-0.23687744
1605202936547,2229,0.657959,0.96087646,-0.29107666
1605202936548,2230,0.7248535,0.7103882,-0.33355713
1605202936549,2231,0.71069336,0.7489624,-0.23687744
1605202936550,2232,0.5854492,0.9945679,-0.40216064
1605202936550,2233,0.71069336,0.7489624,-0.23687744
1605202936551,2234,0.657959,0.96087646,-0.29107666
1605202936552,2235,0.42797852,0.777771,-0.40167236
1605202936552,2236,0.657959,0.96087646,-0.29107666
1605202936553,2237,0.5854492,0.9945679,-0.40216064
1605202936556,2238,0.5854492,0.9945679,-0.40216064
1605202936556,2239,0.1875,0.64056396,-0.43170166
1605202936556,2240,0.42797852,0.777771,-0.40167236
1605202936556,2241,0.42797852,0.777771,-0.40167236
1605202936557,2242,-0.0068359375,0.6559448,-0.56085205
1605202936558,2243,0.1875,0.64056396,-0.43170166
1605202936559,2244,-0.0546875,0.67108154,-0.6321411
1605202936559,2245,-0.0068359375,0.6559448,-0.56085205
1605202936560,2246,-0.0546875,0.67108154,-0.6321411
1605202936560,2247,0.1875,0.64056396,-0.43170166
1605202936561,2248,-0.0068359375,0.6559448,-0.56085205
1605202936561,2249,-0.056640625,0.7675171,-0.7024536
1605202936562,2250,-0.123046875,0.68743896,-0.64312744
1605202936562,2251,-0.06518555,0.795105,-0.597229
1605202936563,2252,-0.056640625,0.7675171,-0.7024536
1605202936564,2253,-0.0546875,0.67108154,-0.6321411
1605202936564,2254,-0.123046875,0.68743896,-0.64312744
1605202936564,2255,-0.056640625,0.7675171,-0.7024536
1605202936564,2256,-0.06518555,0.795105,-0.597229
1605202936565,2257,-0.12182617,0.73187256,-0.5215454
1605202936565,2258,-0.123046875,0.68743896,-0.64312744
1605202936566,2259,-0.06518555,0.795105,-0.597229
1605202936566,2260,-0.15820312,0.65130615,-0.48638916
1605202936567,2261,-0.12182617,0.73187256,-0.5215454
1605202936567,2262,-0.12182617,0.73187256,-0.5215454
1605202936568,2263,-0.049072266,0.697937,-0.44415283
1605202936568,2264,0.17773438,0.84295654,-0.37286377
1605202936569,2265,-0.15820312,0.65130615,-0.48638916
1605202936569,2266,-0.049072266,0.697937,-0.44415283
1605202936570,2267,0.40356445,0.97454834,-0.4133911
1605202936570,2268,0.17773438,0.84295654,-0.37286377
1605202936571,2269,0.38671875,0.9762573,-0.44537354
1605202936571,2270,0.40356445,0.97454834,-0.4133911
1605202936571,2271,-0.15820312,0.65130615,-0.48638916
1605202936572,2272,0.38671875,0.9762573,-0.44537354
1605202936572,2273,-0.049072266,0.697937,-0.44415283
1605202936573,2274,0.29956055,1.0216675,-0.4133911
1605202936573,2275,0.17773438,0.84295654,-0.37286377
1605202936573,2276,0.29956055,1.0216675,-0.4133911
1605202936575,2277,0.40356445,0.97454834,-0.4133911
1605202936575,2278,0.2290039,1.0578003,-0.40118408
1605202936575,2279,0.38671875,0.9762573,-0.44537354
1605202936575,2280,0.2290039,1.0578003,-0.40118408
1605202936575,2281,0.11010742,0.8930054,-0.34698486
1605202936575,2282,0.29956055,1.0216675,-0.4133911
1605202936576,2283,0.14697266,0.8331909,-0.25006104
1605202936576,2284,0.2290039,1.0578003,-0.40118408
1605202936577,2285,0.11010742,0.8930054,-0.34698486
1605202936577,2286,0.25976562,0.95526123,-0.090148926
1605202936578,2287,0.11010742,0.8930054,-0.34698486
1605202936578,2288,0.14697266,0.8331909,-0.25006104
1605202936578,2289,0.17797852,1.1039429,0.09051514
1605202936578,2290,0.25976562,0.95526123,-0.090148926
1605202936579,2291,0.012939453,0.99554443,0.13397217
1605202936579,2292,0.14697266,0.8331909,-0.25006104
1605202936580,2293,-0.013916016,0.86346436,-0.0056762695
1605202936580,2294,0.25976562,0.95526123,-0.090148926
1605202936581,2295,0.17797852,1.1039429,0.09051514
1605202936581,2296,0.17797852,1.1039429,0.09051514
1605202936582,2297,0.006591797,0.7033081,-0.14459229
1605202936582,2298,0.012939453,0.99554443,0.13397217
1605202936583,2299,0.012939453,0.99554443,0.13397217
1605202936583,2300,-0.013916016,0.86346436,-0.0056762695
1605202936584,2301,-0.013916016,0.86346436,-0.0056762695
1605202936584,2302,0.006591797,0.7033081,-0.14459229
1605202936585,2303,0.006591797,0.7033081,-0.14459229
