# Sensor position: Front pocket (trouser)
# Sensor side: Right
# Activity type: Movement
# Activity code: 9
# Subject id: s1655560
timestamp,seq,accel_x,accel_y,accel_z
1605202591847,0,0.10473633,0.95111084,-0.01373291
1605202591847,1,0.10473633,0.95111084,-0.01373291
1605202591847,2,0.10473633,0.95111084,-0.01373291
1605202591848,3,0.09790039,0.9525757,-0.014465332
1605202591848,4,0.09790039,0.9525757,-0.014465332
1605202591848,5,0.09790039,0.9525757,-0.014465332
1605202591850,6,0.09082031,0.9528198,-0.018371582
1605202591850,7,0.09082031,0.9528198,-0.018371582
1605202591850,8,0.09082031,0.9528198,-0.018371582
1605202591855,9,0.099121094,0.95721436,-0.023986816
1605202591855,10,0.099121094,0.95721436,-0.023986816
1605202591855,11,0.099121094,0.95721436,-0.023986816
1605202591858,12,0.099853516,0.949646,-0.023986816
1605202591861,13,0.099853516,0.949646,-0.023986816
1605202591863,14,0.115234375,0.94525146,-0.0095825195
1605202591863,15,0.115234375,0.94525146,-0.0095825195
1605202591865,16,0.13354492,0.93377686,-0.007385254
1605202591865,17,0.099853516,0.949646,-0.023986816
1605202591867,18,0.1640625,0.95599365,0.027038574
1605202591868,19,0.115234375,0.94525146,-0.0095825195
1605202591869,20,0.19555664,0.9664917,0.008483887
1605202591869,21,0.13354492,0.93377686,-0.007385254
1605202591870,22,0.13354492,0.93377686,-0.007385254
1605202591872,23,0.1640625,0.95599365,0.027038574
1605202591873,24,0.1640625,0.95599365,0.027038574
1605202591873,25,0.09814453,0.93914795,0.025817871
1605202591875,26,0.19555664,0.9664917,0.008483887
1605202591875,27,0.19555664,0.9664917,0.008483887
1605202591876,28,0.14331055,0.9376831,-0.059631348
1605202591876,29,0.09814453,0.93914795,0.025817871
1605202591878,30,0.09814453,0.93914795,0.025817871
1605202591878,31,0.1003418,0.9887085,-0.08917236
1605202591878,32,0.14331055,0.9376831,-0.059631348
1605202591879,33,0.1003418,0.9887085,-0.08917236
1605202591881,34,0.14331055,0.9376831,-0.059631348
1605202591881,35,0.103027344,0.9413452,-0.10235596
1605202591881,36,0.103027344,0.9413452,-0.10235596
1605202591882,37,0.1003418,0.9887085,-0.08917236
1605202591883,38,0.13305664,0.9594116,-0.1350708
1605202591883,39,0.13305664,0.9594116,-0.1350708
1605202591883,40,0.103027344,0.9413452,-0.10235596
1605202591884,41,0.08178711,0.9579468,-0.25543213
1605202591885,42,0.08178711,0.9579468,-0.25543213
1605202591886,43,0.18261719,0.9689331,-0.5147095
1605202591887,44,0.13305664,0.9594116,-0.1350708
1605202591887,45,0.18261719,0.9689331,-0.5147095
1605202591888,46,0.10644531,0.9816284,-0.3945923
1605202591888,47,0.08178711,0.9579468,-0.25543213
1605202591889,48,0.10644531,0.9816284,-0.3945923
1605202591889,49,0.19970703,1.086853,-0.4505005
1605202591890,50,0.18261719,0.9689331,-0.5147095
1605202591891,51,0.15600586,0.82196045,-0.21588135
1605202591891,52,0.19970703,1.086853,-0.4505005
1605202591892,53,0.10644531,0.9816284,-0.3945923
1605202591893,54,0.15600586,0.82196045,-0.21588135
1605202591894,55,-0.03857422,0.652771,-0.30426025
1605202591894,56,0.19970703,1.086853,-0.4505005
1605202591895,57,-0.03857422,0.652771,-0.30426025
1605202591895,58,-0.045166016,0.67352295,-0.2539673
1605202591895,59,0.15600586,0.82196045,-0.21588135
1605202591896,60,0.023925781,0.7892456,-0.48712158
1605202591900,61,-0.045166016,0.67352295,-0.2539673
1605202591901,62,-0.03857422,0.652771,-0.30426025
1605202591901,63,0.023925781,0.7892456,-0.48712158
1605202591901,64,0.21069336,1.1679077,-0.5286255
1605202591902,65,-0.045166016,0.67352295,-0.2539673
1605202591905,66,0.21069336,1.1679077,-0.5286255
1605202591906,67,0.08129883,1.0565796,-0.24151611
1605202591906,68,0.023925781,0.7892456,-0.48712158
1605202591906,69,0.08129883,1.0565796,-0.24151611
1605202591907,70,-0.68066406,0.9840698,-0.17779541
1605202591907,71,0.21069336,1.1679077,-0.5286255
1605202591908,72,0.08129883,1.0565796,-0.24151611
1605202591909,73,-0.68066406,0.9840698,-0.17779541
1605202591911,74,0.43481445,1.0460815,0.039001465
1605202591917,75,0.43481445,1.0460815,0.039001465
1605202591918,76,0.044433594,1.1610718,-0.08526611
1605202591918,77,-0.68066406,0.9840698,-0.17779541
1605202591918,78,0.3544922,0.934021,0.25457764
1605202591918,79,0.044433594,1.1610718,-0.08526611
1605202591918,80,0.17089844,0.7157593,-0.094055176
1605202591918,81,0.3544922,0.934021,0.25457764
1605202591918,82,0.050048828,0.86834717,-0.3789673
1605202591918,83,0.39453125,0.82611084,0.03753662
1605202591918,84,0.17089844,0.7157593,-0.094055176
1605202591918,85,0.43481445,1.0460815,0.039001465
1605202591919,86,0.3798828,1.4828491,0.045837402
1605202591919,87,0.050048828,0.86834717,-0.3789673
1605202591919,88,0.39453125,0.82611084,0.03753662
1605202591920,89,0.3798828,1.4828491,0.045837402
1605202591924,90,0.044433594,1.1610718,-0.08526611
1605202591925,91,0.3544922,0.934021,0.25457764
1605202591926,92,0.17089844,0.7157593,-0.094055176
1605202591926,93,0.050048828,0.86834717,-0.3789673
1605202591927,94,0.39453125,0.82611084,0.03753662
1605202591928,95,0.3798828,1.4828491,0.045837402
1605202594431,96,-0.4699707,1.3461304,-0.30718994
1605202594431,97,-0.4699707,1.3461304,-0.30718994
1605202594431,98,-0.4699707,1.3461304,-0.30718994
1605202594434,99,-0.13671875,0.27215576,-0.27838135
1605202594434,100,-0.13671875,0.27215576,-0.27838135
1605202594434,101,-0.13671875,0.27215576,-0.27838135
1605202594436,102,-0.040039062,0.015563965,0.09588623
1605202594436,103,-0.040039062,0.015563965,0.09588623
1605202594436,104,-0.040039062,0.015563965,0.09588623
1605202594438,105,0.057861328,1.2877808,-0.1741333
1605202594439,106,0.057861328,1.2877808,-0.1741333
1605202594439,107,0.057861328,1.2877808,-0.1741333
1605202594439,108,-0.0107421875,1.2977905,0.1954956
1605202594441,109,-0.0107421875,1.2977905,0.1954956
1605202594441,110,-0.0107421875,1.2977905,0.1954956
1605202594442,111,0.18286133,1.2113647,0.06463623
1605202594443,112,0.18286133,1.2113647,0.06463623
1605202594444,113,0.18286133,1.2113647,0.06463623
1605202594444,114,0.25976562,0.92303467,-0.16485596
1605202594445,115,0.25976562,0.92303467,-0.16485596
1605202594445,116,0.8120117,0.95843506,-0.24176025
1605202594446,117,0.8120117,0.95843506,-0.24176025
1605202594447,118,0.1796875,1.0363159,-0.24786377
1605202594448,119,0.1796875,1.0363159,-0.24786377
1605202594448,120,0.15039062,0.7340698,-0.059143066
1605202594449,121,0.15039062,0.7340698,-0.059143066
1605202594450,122,0.25952148,0.7211304,-0.032287598
1605202594452,123,0.25952148,0.7211304,-0.032287598
1605202594453,124,0.30541992,0.9989624,-0.0064086914
1605202594453,125,0.30541992,0.9989624,-0.0064086914
1605202594454,126,0.4128418,1.3995972,-0.14239502
1605202594455,127,0.25976562,0.92303467,-0.16485596
1605202594456,128,-0.044189453,1.2379761,-0.27520752
1605202594457,129,0.4128418,1.3995972,-0.14239502
1605202594459,130,-0.044189453,1.2379761,-0.27520752
1605202594459,131,0.74243164,1.1068726,0.047546387
1605202594460,132,0.8120117,0.95843506,-0.24176025
1605202594461,133,0.74243164,1.1068726,0.047546387
1605202594463,134,0.1027832,0.6054077,0.002380371
1605202594463,135,0.1796875,1.0363159,-0.24786377
1605202594464,136,0.1027832,0.6054077,0.002380371
1605202594465,137,-0.32666016,0.69085693,-0.2300415
1605202594465,138,0.15039062,0.7340698,-0.059143066
1605202594467,139,-0.021240234,0.9723511,-0.616272
1605202594467,140,-0.32666016,0.69085693,-0.2300415
1605202594468,141,0.25952148,0.7211304,-0.032287598
1605202594468,142,-0.026123047,0.7526245,-0.49249268
1605202594470,143,-0.00390625,0.5819702,-0.30889893
1605202594471,144,-0.021240234,0.9723511,-0.616272
1605202594473,145,0.09667969,0.6715698,-0.011047363
1605202594473,146,-0.026123047,0.7526245,-0.49249268
1605202594474,147,0.30541992,0.9989624,-0.0064086914
1605202594475,148,-0.234375,1.6688843,0.18719482
1605202594476,149,-0.00390625,0.5819702,-0.30889893
1605202594476,150,0.4128418,1.3995972,-0.14239502
1605202594477,151,0.5776367,1.1261597,-0.074035645
1605202594478,152,0.09667969,0.6715698,-0.011047363
1605202594479,153,-0.044189453,1.2379761,-0.27520752
1605202594479,154,-0.12182617,0.6898804,0.0067749023
1605202594479,155,0.74243164,1.1068726,0.047546387
1605202594479,156,-0.4020996,0.9406128,-0.06304932
1605202594480,157,-0.234375,1.6688843,0.18719482
1605202594481,158,0.1027832,0.6054077,0.002380371
1605202594481,159,0.6489258,1.0289917,0.33807373
1605202594482,160,0.5776367,1.1261597,-0.074035645
1605202594483,161,0.24487305,1.0343628,-0.22808838
1605202594483,162,-0.32666016,0.69085693,-0.2300415
1605202594484,163,-0.12182617,0.6898804,0.0067749023
1605202594485,164,-0.021240234,0.9723511,-0.616272
1605202594485,165,-0.4020996,0.9406128,-0.06304932
1605202594485,166,0.13745117,0.8583374,0.3493042
1605202594487,167,-0.026123047,0.7526245,-0.49249268
1605202594487,168,0.6489258,1.0289917,0.33807373
1605202594487,169,0.49560547,0.8473511,0.17132568
1605202594490,170,-0.00390625,0.5819702,-0.30889893
1605202594491,171,0.24487305,1.0343628,-0.22808838
1605202594491,172,-0.048095703,1.0504761,-0.20758057
1605202594492,173,0.09667969,0.6715698,-0.011047363
1605202594492,174,0.13745117,0.8583374,0.3493042
1605202594493,175,-0.052246094,0.9286499,-0.066223145
1605202594493,176,0.49560547,0.8473511,0.17132568
1605202594493,177,0.13256836,0.9664917,-0.17779541
1605202594494,178,-0.234375,1.6688843,0.18719482
1605202594494,179,-0.048095703,1.0504761,-0.20758057
1605202594494,180,0.5776367,1.1261597,-0.074035645
1605202594495,181,-0.052246094,0.9286499,-0.066223145
1605202594495,182,-0.12182617,0.6898804,0.0067749023
1605202594496,183,-0.4020996,0.9406128,-0.06304932
1605202594496,184,0.13256836,0.9664917,-0.17779541
1605202594498,185,0.6489258,1.0289917,0.33807373
1605202594499,186,0.24487305,1.0343628,-0.22808838
1605202594500,187,0.13745117,0.8583374,0.3493042
1605202594501,188,0.49560547,0.8473511,0.17132568
1605202594503,189,-0.048095703,1.0504761,-0.20758057
1605202594504,190,-0.052246094,0.9286499,-0.066223145
1605202594505,191,0.13256836,0.9664917,-0.17779541
1605202597013,192,0.30664062,1.0075073,-0.20465088
1605202597016,193,0.30664062,1.0075073,-0.20465088
1605202597016,194,-0.4404297,1.3585815,0.018981934
1605202597017,195,0.30664062,1.0075073,-0.20465088
1605202597017,196,-0.4404297,1.3585815,0.018981934
1605202597017,197,-0.46923828,1.1268921,0.13323975
1605202597020,198,-0.4404297,1.3585815,0.018981934
1605202597021,199,0.088378906,0.35760498,-0.07891846
1605202597021,200,-0.46923828,1.1268921,0.13323975
1605202597021,201,-0.46923828,1.1268921,0.13323975
1605202597021,202,0.0769043,0.58758545,-0.26983643
1605202597023,203,0.088378906,0.35760498,-0.07891846
1605202597023,204,0.016357422,1.7389526,-0.4788208
1605202597023,205,0.088378906,0.35760498,-0.07891846
1605202597026,206,0.0769043,0.58758545,-0.26983643
1605202597026,207,-0.40722656,0.92718506,-0.5610962
1605202597027,208,0.0769043,0.58758545,-0.26983643
1605202597027,209,0.016357422,1.7389526,-0.4788208
1605202597027,210,0.016357422,1.7389526,-0.4788208
1605202597028,211,-0.40722656,0.92718506,-0.5610962
1605202597029,212,0.69750977,0.6884155,-0.35723877
1605202597029,213,0.69750977,0.6884155,-0.35723877
1605202597031,214,-0.40722656,0.92718506,-0.5610962
1605202597031,215,0.023925781,0.4706421,-0.39508057
1605202597031,216,0.023925781,0.4706421,-0.39508057
1605202597032,217,0.69750977,0.6884155,-0.35723877
1605202597033,218,-0.19970703,0.91156006,-0.031799316
1605202597033,219,0.023925781,0.4706421,-0.39508057
1605202597035,220,-0.53466797,1.0905151,-0.1585083
1605202597035,221,-0.19970703,0.91156006,-0.031799316
1605202597036,222,-0.19970703,0.91156006,-0.031799316
1605202597037,223,0.48828125,1.3827515,-0.28814697
1605202597037,224,-0.53466797,1.0905151,-0.1585083
1605202597038,225,-0.53466797,1.0905151,-0.1585083
1605202597039,226,0.24487305,0.9047241,0.20965576
1605202597039,227,0.48828125,1.3827515,-0.28814697
1605202597041,228,0.48828125,1.3827515,-0.28814697
1605202597043,229,0.24487305,0.9047241,0.20965576
1605202597044,230,-0.4580078,0.961853,-0.36212158
1605202597044,231,0.24487305,0.9047241,0.20965576
1605202597044,232,0.053710938,0.7050171,-0.5149536
1605202597045,233,-0.4580078,0.961853,-0.36212158
1605202597045,234,-0.4580078,0.961853,-0.36212158
1605202597046,235,0.053710938,0.7050171,-0.5149536
1605202597047,236,0.053710938,0.7050171,-0.5149536
1605202597048,237,0.31079102,1.0553589,0.043640137
1605202597049,238,0.31079102,1.0553589,0.043640137
1605202597053,239,0.31079102,1.0553589,0.043640137
1605202597053,240,0.12084961,1.2421265,-0.12188721
1605202597055,241,0.12084961,1.2421265,-0.12188721
1605202597056,242,0.12084961,1.2421265,-0.12188721
1605202597060,243,0.21655273,1.1669312,-0.15362549
1605202597061,244,0.21655273,1.1669312,-0.15362549
1605202597061,245,0.21655273,1.1669312,-0.15362549
1605202597061,246,-0.08959961,0.8185425,-0.42877197
1605202597062,247,-0.08959961,0.8185425,-0.42877197
1605202597062,248,-0.08959961,0.8185425,-0.42877197
1605202597062,249,0.12133789,0.7196655,-0.25738525
1605202597062,250,0.12133789,0.7196655,-0.25738525
1605202597062,251,0.12133789,0.7196655,-0.25738525
1605202597063,252,0.10888672,0.887146,-0.11968994
1605202597064,253,0.10888672,0.887146,-0.11968994
1605202597064,254,0.10888672,0.887146,-0.11968994
1605202597064,255,0.36767578,0.92230225,-0.15948486
1605202597065,256,0.36767578,0.92230225,-0.15948486
1605202597066,257,0.36767578,0.92230225,-0.15948486
1605202597067,258,-0.21972656,1.3165894,-0.27130127
1605202597068,259,-0.21972656,1.3165894,-0.27130127
1605202597069,260,-0.019042969,1.2650757,-0.10626221
1605202597070,261,-0.21972656,1.3165894,-0.27130127
1605202597071,262,-0.019042969,1.2650757,-0.10626221
1605202597072,263,-0.019042969,1.2650757,-0.10626221
1605202597073,264,-0.026123047,0.8720093,-0.0076293945
1605202597074,265,-0.026123047,0.8720093,-0.0076293945
1605202597075,266,-0.25927734,0.60272217,-0.15875244
1605202597075,267,-0.026123047,0.8720093,-0.0076293945
1605202597077,268,-0.25927734,0.60272217,-0.15875244
1605202597077,269,-0.3017578,0.59783936,-0.26275635
1605202597078,270,-0.25927734,0.60272217,-0.15875244
1605202597079,271,-0.3017578,0.59783936,-0.26275635
1605202597080,272,-0.3552246,0.73651123,-0.57354736
1605202597080,273,-0.3017578,0.59783936,-0.26275635
1605202597082,274,-0.3552246,0.73651123,-0.57354736
1605202597082,275,0.12866211,1.4721069,-0.27545166
1605202597082,276,-0.3552246,0.73651123,-0.57354736
1605202597083,277,0.12866211,1.4721069,-0.27545166
1605202597084,278,0.12866211,1.4721069,-0.27545166
1605202597085,279,-0.016357422,0.8739624,0.06414795
1605202597085,280,-0.016357422,0.8739624,0.06414795
1605202597086,281,-0.016357422,0.8739624,0.06414795
1605202597087,282,0.26098633,1.2282104,-0.22174072
1605202597087,283,0.26098633,1.2282104,-0.22174072
1605202597088,284,0.26098633,1.2282104,-0.22174072
1605202597089,285,0.037597656,0.74432373,-0.034729004
1605202597089,286,0.037597656,0.74432373,-0.034729004
1605202597089,287,0.037597656,0.74432373,-0.034729004
1605202599600,288,-0.104003906,0.8649292,-0.1897583
1605202599601,289,-0.104003906,0.8649292,-0.1897583
1605202599601,290,-0.104003906,0.8649292,-0.1897583
1605202599601,291,0.07104492,0.9244995,-0.07891846
1605202599601,292,0.07104492,0.9244995,-0.07891846
1605202599602,293,0.07104492,0.9244995,-0.07891846
1605202599602,294,0.31933594,1.0753784,0.021911621
1605202599602,295,0.31933594,1.0753784,0.021911621
1605202599603,296,-0.19799805,1.4650269,0.14886475
1605202599604,297,0.31933594,1.0753784,0.021911621
1605202599606,298,-0.19799805,1.4650269,0.14886475
1605202599607,299,-0.1574707,0.8270874,-0.3513794
1605202599607,300,-0.19799805,1.4650269,0.14886475
1605202599608,301,-0.1574707,0.8270874,-0.3513794
1605202599608,302,-0.20581055,0.34075928,-0.18756104
1605202599609,303,-0.1574707,0.8270874,-0.3513794
1605202599610,304,-0.022216797,0.77874756,0.06951904
1605202599611,305,-0.20581055,0.34075928,-0.18756104
1605202599612,306,0.052978516,1.234314,-0.31939697
1605202599613,307,0.12524414,1.0245972,0.14227295
1605202599614,308,-0.20581055,0.34075928,-0.18756104
1605202599614,309,-0.022216797,0.77874756,0.06951904
1605202599617,310,0.2614746,0.94403076,-0.12994385
1605202599617,311,-0.022216797,0.77874756,0.06951904
1605202599618,312,0.052978516,1.234314,-0.31939697
1605202599618,313,0.21191406,0.9555054,-0.054016113
1605202599619,314,0.052978516,1.234314,-0.31939697
1605202599620,315,0.4411621,1.0248413,-0.10870361
1605202599620,316,0.12524414,1.0245972,0.14227295
1605202599637,317,0.12524414,1.0245972,0.14227295
1605202599637,318,0.45947266,1.2125854,-0.15386963
1605202599638,319,0.2614746,0.94403076,-0.12994385
1605202599638,320,0.2614746,0.94403076,-0.12994385
1605202599638,321,0.033691406,0.9286499,0.070251465
1605202599638,322,0.21191406,0.9555054,-0.054016113
1605202599639,323,0.07080078,0.67108154,-0.097473145
1605202599639,324,0.21191406,0.9555054,-0.054016113
1605202599639,325,0.041748047,1.0214233,-0.012268066
1605202599639,326,0.4411621,1.0248413,-0.10870361
1605202599640,327,0.4411621,1.0248413,-0.10870361
1605202599640,328,0.14672852,1.1989136,-0.030822754
1605202599640,329,0.45947266,1.2125854,-0.15386963
1605202599641,330,0.07397461,1.3934937,-0.26470947
1605202599641,331,0.45947266,1.2125854,-0.15386963
1605202599641,332,0.033691406,0.9286499,0.070251465
1605202599642,333,0.22753906,0.7160034,-0.112854004
1605202599642,334,0.033691406,0.9286499,0.070251465
1605202599642,335,0.07080078,0.67108154,-0.097473145
1605202599643,336,-0.15307617,0.40667725,-0.364563
1605202599643,337,0.07080078,0.67108154,-0.097473145
1605202599643,338,0.041748047,1.0214233,-0.012268066
1605202599643,339,-0.30981445,0.47235107,-0.42877197
1605202599643,340,0.041748047,1.0214233,-0.012268066
1605202599644,341,0.14672852,1.1989136,-0.030822754
1605202599644,342,0.14672852,1.1989136,-0.030822754
1605202599645,343,0.07397461,1.3934937,-0.26470947
1605202599645,344,-0.05810547,0.9459839,-0.63848877
1605202599646,345,0.07397461,1.3934937,-0.26470947
1605202599646,346,0.22753906,0.7160034,-0.112854004
1605202599646,347,0.22753906,0.7160034,-0.112854004
1605202599646,348,0.3244629,1.4293823,-0.3394165
1605202599646,349,-0.15307617,0.40667725,-0.364563
1605202599646,350,-0.15307617,0.40667725,-0.364563
1605202599646,351,-0.33911133,0.63079834,-0.28179932
1605202599646,352,-0.30981445,0.47235107,-0.42877197
1605202599646,353,0.3942871,1.1742554,-0.023498535
1605202599646,354,-0.05810547,0.9459839,-0.63848877
1605202599646,355,-0.30981445,0.47235107,-0.42877197
1605202599647,356,0.29101562,0.83807373,-0.0791626
1605202599647,357,0.3244629,1.4293823,-0.3394165
1605202599647,358,-0.05810547,0.9459839,-0.63848877
1605202599647,359,0.053710938,0.8534546,-0.33770752
1605202599647,360,-0.33911133,0.63079834,-0.28179932
1605202599647,361,0.3244629,1.4293823,-0.3394165
1605202599647,362,0.4165039,0.91326904,-0.21759033
1605202599647,363,0.3942871,1.1742554,-0.023498535
1605202599647,364,-0.33911133,0.63079834,-0.28179932
1605202599647,365,0.122802734,1.1220093,-0.16778564
1605202599648,366,0.17358398,1.3143921,-0.20220947
1605202599648,367,0.3942871,1.1742554,-0.023498535
1605202599648,368,0.29101562,0.83807373,-0.0791626
1605202599648,369,0.51000977,1.4396362,-0.016418457
1605202599649,370,0.29101562,0.83807373,-0.0791626
1605202599649,371,0.053710938,0.8534546,-0.33770752
1605202599649,372,0.08959961,0.70965576,-0.004699707
1605202599651,373,0.053710938,0.8534546,-0.33770752
1605202599652,374,0.4165039,0.91326904,-0.21759033
1605202599653,375,0.122802734,1.1220093,-0.16778564
1605202599654,376,0.4165039,0.91326904,-0.21759033
1605202599654,377,0.17358398,1.3143921,-0.20220947
1605202599654,378,0.122802734,1.1220093,-0.16778564
1605202599655,379,0.17358398,1.3143921,-0.20220947
1605202599655,380,0.51000977,1.4396362,-0.016418457
1605202599656,381,0.08959961,0.70965576,-0.004699707
1605202599657,382,0.51000977,1.4396362,-0.016418457
1605202599658,383,0.08959961,0.70965576,-0.004699707
1605202602183,384,-0.07543945,0.40740967,-0.15460205
1605202602183,385,-0.07543945,0.40740967,-0.15460205
1605202602184,386,-0.07543945,0.40740967,-0.15460205
1605202602184,387,0.028808594,0.791687,-0.11383057
1605202602184,388,0.028808594,0.791687,-0.11383057
1605202602186,389,-0.30151367,0.98651123,0.1449585
1605202602186,390,0.028808594,0.791687,-0.11383057
1605202602188,391,0.09106445,1.3522339,0.10296631
1605202602188,392,-0.30151367,0.98651123,0.1449585
1605202602190,393,-0.30151367,0.98651123,0.1449585
1605202602190,394,0.09106445,1.3522339,0.10296631
1605202602191,395,0.09106445,1.3522339,0.10296631
1605202602193,396,0.5344238,0.95233154,-0.010803223
1605202602193,397,0.5344238,0.95233154,-0.010803223
1605202602194,398,-0.3762207,0.99505615,-0.35992432
1605202602195,399,-0.3762207,0.99505615,-0.35992432
1605202602196,400,0.17163086,0.72576904,-0.09552002
1605202602197,401,0.17163086,0.72576904,-0.09552002
1605202602197,402,-0.0024414062,1.0140991,-0.036193848
1605202602198,403,-0.0024414062,1.0140991,-0.036193848
1605202602199,404,0.31201172,1.2702026,-0.21759033
1605202602199,405,0.5344238,0.95233154,-0.010803223
1605202602200,406,0.31201172,1.2702026,-0.21759033
1605202602202,407,-0.12670898,1.0646362,-0.17681885
1605202602203,408,-0.3762207,0.99505615,-0.35992432
1605202602203,409,-0.12670898,1.0646362,-0.17681885
1605202602203,410,-0.25732422,0.76361084,-0.5466919
1605202602206,411,0.17163086,0.72576904,-0.09552002
1605202602207,412,-0.25732422,0.76361084,-0.5466919
1605202602207,413,0.28222656,0.88153076,-0.206604
1605202602207,414,-0.0024414062,1.0140991,-0.036193848
1605202602207,415,0.28222656,0.88153076,-0.206604
1605202602208,416,0.36816406,0.9984741,-0.082092285
1605202602208,417,0.31201172,1.2702026,-0.21759033
1605202602212,418,-0.0703125,0.885437,0.1083374
1605202602212,419,0.36816406,0.9984741,-0.082092285
1605202602213,420,-0.12670898,1.0646362,-0.17681885
1605202602214,421,-0.15258789,1.2658081,-0.33306885
1605202602215,422,-0.25732422,0.76361084,-0.5466919
1605202602215,423,0.04296875,0.99432373,-0.082092285
1605202602215,424,0.28222656,0.88153076,-0.206604
1605202602216,425,-0.0703125,0.885437,0.1083374
1605202602216,426,-0.15258789,1.2658081,-0.33306885
1605202602218,427,0.36816406,0.9984741,-0.082092285
1605202602218,428,0.16967773,1.2504272,-0.14141846
1605202602219,429,0.04296875,0.99432373,-0.082092285
1605202602220,430,0.03857422,0.9147339,-0.13653564
1605202602220,431,-0.0703125,0.885437,0.1083374
1605202602225,432,-0.12524414,0.5934448,-0.14654541
1605202602226,433,0.16967773,1.2504272,-0.14141846
1605202602226,434,-0.15258789,1.2658081,-0.33306885
1605202602226,435,-0.37597656,0.7033081,-0.46636963
1605202602227,436,0.04296875,0.99432373,-0.082092285
1605202602228,437,-0.24853516,0.79559326,-0.40533447
1605202602228,438,0.16967773,1.2504272,-0.14141846
1605202602229,439,-0.19873047,1.1652222,-0.34210205
1605202602229,440,0.03857422,0.9147339,-0.13653564
1605202602231,441,0.3330078,0.93963623,0.041931152
1605202602232,442,0.03857422,0.9147339,-0.13653564
1605202602233,443,-0.12524414,0.5934448,-0.14654541
1605202602233,444,0.080078125,1.1239624,-0.11773682
1605202602233,445,-0.12524414,0.5934448,-0.14654541
1605202602235,446,-0.37597656,0.7033081,-0.46636963
1605202602236,447,0.016113281,0.8143921,-0.08453369
1605202602236,448,-0.37597656,0.7033081,-0.46636963
1605202602238,449,-0.24853516,0.79559326,-0.40533447
1605202602238,450,-0.013183594,0.80389404,-0.15338135
1605202602238,451,-0.24853516,0.79559326,-0.40533447
1605202602239,452,-0.19873047,1.1652222,-0.34210205
1605202602240,453,0.24023438,0.9208374,-0.33746338
1605202602240,454,-0.19873047,1.1652222,-0.34210205
1605202602242,455,0.3330078,0.93963623,0.041931152
1605202602242,456,0.23022461,1.354187,-0.10992432
1605202602242,457,0.3330078,0.93963623,0.041931152
1605202602243,458,0.080078125,1.1239624,-0.11773682
1605202602244,459,0.09692383,1.2526245,-0.17462158
1605202602244,460,0.080078125,1.1239624,-0.11773682
1605202602245,461,0.016113281,0.8143921,-0.08453369
1605202602245,462,0.53027344,1.2921753,0.09100342
1605202602246,463,0.016113281,0.8143921,-0.08453369
1605202602246,464,0.1274414,0.821228,-0.10015869
1605202602247,465,-0.013183594,0.80389404,-0.15338135
1605202602247,466,-0.013183594,0.80389404,-0.15338135
1605202602248,467,0.24023438,0.9208374,-0.33746338
1605202602249,468,-0.060058594,0.5758667,0.001159668
1605202602249,469,0.23022461,1.354187,-0.10992432
1605202602250,470,0.24023438,0.9208374,-0.33746338
1605202602251,471,0.09692383,1.2526245,-0.17462158
1605202602252,472,0.23022461,1.354187,-0.10992432
1605202602252,473,0.53027344,1.2921753,0.09100342
1605202602253,474,0.09692383,1.2526245,-0.17462158
1605202602254,475,0.1274414,0.821228,-0.10015869
1605202602254,476,0.53027344,1.2921753,0.09100342
1605202602255,477,-0.060058594,0.5758667,0.001159668
1605202602256,478,0.1274414,0.821228,-0.10015869
1605202602257,479,-0.060058594,0.5758667,0.001159668
1605202604765,480,-0.016601562,0.6781616,-0.28131104
1605202604768,481,-0.016601562,0.6781616,-0.28131104
1605202604771,482,-0.3461914,1.2035522,-0.022766113
1605202604772,483,-0.016601562,0.6781616,-0.28131104
1605202604772,484,-0.3461914,1.2035522,-0.022766113
1605202604774,485,-0.2692871,0.96258545,0.22015381
1605202604774,486,-0.3461914,1.2035522,-0.022766113
1605202604775,487,-0.2692871,0.96258545,0.22015381
1605202604775,488,0.5175781,1.2382202,-0.044006348
1605202604776,489,-0.2692871,0.96258545,0.22015381
1605202604778,490,-0.21923828,0.90911865,-0.39630127
1605202604778,491,0.5175781,1.2382202,-0.044006348
1605202604779,492,-0.21923828,0.90911865,-0.39630127
1605202604780,493,0.5175781,1.2382202,-0.044006348
1605202604780,494,-0.064208984,0.8744507,-0.038635254
1605202604782,495,-0.064208984,0.8744507,-0.038635254
1605202604783,496,-0.21923828,0.90911865,-0.39630127
1605202604783,497,0.09082031,0.80633545,-0.2456665
1605202604783,498,0.09082031,0.80633545,-0.2456665
1605202604785,499,-0.064208984,0.8744507,-0.038635254
1605202604786,500,0.12475586,1.1508179,0.07122803
1605202604786,501,0.12475586,1.1508179,0.07122803
1605202604786,502,0.09082031,0.80633545,-0.2456665
1605202604786,503,0.22973633,1.1845093,0.031433105
1605202604788,504,0.12475586,1.1508179,0.07122803
1605202604788,505,-0.088134766,0.86151123,-0.37286377
1605202604789,506,0.22973633,1.1845093,0.031433105
1605202604789,507,0.22973633,1.1845093,0.031433105
1605202604790,508,-0.088134766,0.86151123,-0.37286377
1605202604791,509,-0.088134766,0.86151123,-0.37286377
1605202604791,510,0.05078125,0.77752686,-0.2444458
1605202604792,511,0.05078125,0.77752686,-0.2444458
1605202604793,512,0.12719727,0.90448,-0.28790283
1605202604793,513,0.05078125,0.77752686,-0.2444458
1605202604794,514,0.12719727,0.90448,-0.28790283
1605202604796,515,0.016357422,0.9682007,-0.101623535
1605202604796,516,0.12719727,0.90448,-0.28790283
1605202604797,517,0.016357422,0.9682007,-0.101623535
1605202604797,518,-0.017822266,1.4022827,-0.2913208
1605202604798,519,-0.017822266,1.4022827,-0.2913208
1605202604798,520,0.051513672,1.5126343,-0.24615479
1605202604799,521,0.051513672,1.5126343,-0.24615479
1605202604803,522,0.22753906,0.86712646,0.045837402
1605202604812,523,0.016357422,0.9682007,-0.101623535
1605202604813,524,-0.10229492,0.51556396,-0.13458252
1605202604815,525,-0.017822266,1.4022827,-0.2913208
1605202604815,526,0.22753906,0.86712646,0.045837402
1605202604816,527,-0.35620117,0.5895386,-0.16900635
1605202604818,528,0.051513672,1.5126343,-0.24615479
1605202604818,529,-0.10229492,0.51556396,-0.13458252
1605202604818,530,-0.36279297,0.71429443,-0.38970947
1605202604822,531,0.22753906,0.86712646,0.045837402
1605202604822,532,-0.28222656,1.2667847,-0.57110596
1605202604826,533,-0.10229492,0.51556396,-0.13458252
1605202604826,534,-0.35620117,0.5895386,-0.16900635
1605202604826,535,-0.36279297,0.71429443,-0.38970947
1605202604826,536,0.07763672,0.920105,-0.14776611
1605202604826,537,-0.35620117,0.5895386,-0.16900635
1605202604828,538,0.3791504,1.1591187,-0.02178955
1605202604828,539,-0.28222656,1.2667847,-0.57110596
1605202604828,540,-0.099853516,0.91033936,-0.1638794
1605202604830,541,0.0029296875,0.7289429,-0.085998535
1605202604830,542,0.07763672,0.920105,-0.14776611
1605202604830,543,-0.36279297,0.71429443,-0.38970947
1605202604831,544,0.25024414,0.9332886,-0.34576416
1605202604832,545,-0.28222656,1.2667847,-0.57110596
1605202604833,546,0.2199707,1.1583862,-0.32867432
1605202604834,547,0.07763672,0.920105,-0.14776611
1605202604834,548,0.3791504,1.1591187,-0.02178955
1605202604835,549,0.053955078,1.3829956,-0.21417236
1605202604836,550,0.3791504,1.1591187,-0.02178955
1605202604836,551,-0.099853516,0.91033936,-0.1638794
1605202604837,552,0.44873047,1.6764526,-0.070129395
1605202604837,553,-0.099853516,0.91033936,-0.1638794
1605202604838,554,0.0029296875,0.7289429,-0.085998535
1605202604838,555,0.19238281,0.87835693,0.08123779
1605202604838,556,0.0029296875,0.7289429,-0.085998535
1605202604839,557,0.25024414,0.9332886,-0.34576416
1605202604839,558,-0.10668945,0.13421631,0.03265381
1605202604839,559,0.25024414,0.9332886,-0.34576416
1605202604840,560,-0.04272461,0.84954834,-0.128479
1605202604841,561,0.2199707,1.1583862,-0.32867432
1605202604841,562,-0.7258301,1.0079956,0.41082764
1605202604841,563,0.2199707,1.1583862,-0.32867432
1605202604842,564,0.053955078,1.3829956,-0.21417236
1605202604843,565,0.44873047,1.6764526,-0.070129395
1605202604843,566,0.053955078,1.3829956,-0.21417236
1605202604843,567,0.44873047,1.6764526,-0.070129395
1605202604844,568,0.19238281,0.87835693,0.08123779
1605202604844,569,0.19238281,0.87835693,0.08123779
1605202604845,570,-0.10668945,0.13421631,0.03265381
1605202604845,571,-0.10668945,0.13421631,0.03265381
1605202604845,572,-0.04272461,0.84954834,-0.128479
1605202604846,573,-0.04272461,0.84954834,-0.128479
1605202604846,574,-0.7258301,1.0079956,0.41082764
1605202604847,575,-0.7258301,1.0079956,0.41082764
1605202607349,576,0.07910156,1.5758667,-0.31280518
1605202607349,577,0.07910156,1.5758667,-0.31280518
1605202607349,578,0.07910156,1.5758667,-0.31280518
1605202607351,579,0.3305664,0.93743896,0.117126465
1605202607351,580,0.3305664,0.93743896,0.117126465
1605202607353,581,0.3305664,0.93743896,0.117126465
1605202607353,582,-0.3725586,0.88812256,-0.31036377
1605202607354,583,-0.3725586,0.88812256,-0.31036377
1605202607357,584,-0.08496094,0.869812,-0.25616455
1605202607357,585,-0.08496094,0.869812,-0.25616455
1605202607358,586,-0.3725586,0.88812256,-0.31036377
1605202607358,587,0.23095703,1.0707397,0.021911621
1605202607358,588,0.23095703,1.0707397,0.021911621
1605202607358,589,-0.08496094,0.869812,-0.25616455
1605202607359,590,0.2680664,0.97039795,0.15570068
1605202607360,591,0.23095703,1.0707397,0.021911621
1605202607361,592,0.2680664,0.97039795,0.15570068
1605202607361,593,0.07080078,0.9706421,0.09832764
1605202607361,594,0.2680664,0.97039795,0.15570068
1605202607362,595,-0.22802734,0.93499756,-0.42803955
1605202607364,596,0.092041016,1.0162964,-0.04522705
1605202607364,597,0.07080078,0.9706421,0.09832764
1605202607364,598,0.07080078,0.9706421,0.09832764
1605202607365,599,-0.009277344,0.9574585,-0.44537354
1605202607367,600,-0.22802734,0.93499756,-0.42803955
1605202607368,601,-0.22802734,0.93499756,-0.42803955
1605202607368,602,0.095458984,1.0424194,0.11663818
1605202607369,603,0.092041016,1.0162964,-0.04522705
1605202607369,604,0.092041016,1.0162964,-0.04522705
1605202607369,605,-0.3256836,1.4857788,-0.29644775
1605202607371,606,-0.009277344,0.9574585,-0.44537354
1605202607371,607,-0.009277344,0.9574585,-0.44537354
1605202607371,608,0.032714844,0.7868042,-0.074523926
1605202607372,609,0.095458984,1.0424194,0.11663818
1605202607372,610,0.095458984,1.0424194,0.11663818
1605202607373,611,-0.07714844,0.5751343,-0.06695557
1605202607374,612,-0.34521484,0.74554443,-0.47833252
1605202607375,613,-0.3256836,1.4857788,-0.29644775
1605202607375,614,-0.3256836,1.4857788,-0.29644775
1605202607376,615,0.021484375,0.68792725,-0.2798462
1605202607377,616,0.032714844,0.7868042,-0.074523926
1605202607377,617,0.032714844,0.7868042,-0.074523926
1605202607377,618,-0.07714844,0.5751343,-0.06695557
1605202607378,619,-0.07714844,0.5751343,-0.06695557
1605202607379,620,0.26513672,1.4750366,-0.18927002
1605202607379,621,-0.34521484,0.74554443,-0.47833252
1605202607380,622,-0.63012695,0.83636475,-0.2637329
1605202607380,623,-0.34521484,0.74554443,-0.47833252
1605202607382,624,0.55615234,1.2648315,-0.003479004
1605202607382,625,0.021484375,0.68792725,-0.2798462
1605202607382,626,0.021484375,0.68792725,-0.2798462
1605202607383,627,0.019042969,0.77093506,0.3624878
1605202607384,628,0.26513672,1.4750366,-0.18927002
1605202607385,629,0.26513672,1.4750366,-0.18927002
1605202607385,630,-0.04711914,0.96307373,-0.028137207
1605202607385,631,-0.63012695,0.83636475,-0.2637329
1605202607386,632,-0.63012695,0.83636475,-0.2637329
1605202607387,633,0.18896484,0.9923706,0.17449951
1605202607387,634,0.55615234,1.2648315,-0.003479004
1605202607388,635,0.55615234,1.2648315,-0.003479004
1605202607388,636,0.18261719,0.9611206,0.034606934
1605202607389,637,0.019042969,0.77093506,0.3624878
1605202607389,638,0.019042969,0.77093506,0.3624878
1605202607390,639,0.19824219,0.9142456,0.030700684
1605202607390,640,-0.04711914,0.96307373,-0.028137207
1605202607391,641,-0.04711914,0.96307373,-0.028137207
1605202607391,642,-0.103759766,1.1618042,0.034606934
1605202607392,643,0.18896484,0.9923706,0.17449951
1605202607392,644,0.18896484,0.9923706,0.17449951
1605202607392,645,0.084228516,0.94281006,-0.3887329
1605202607394,646,0.18261719,0.9611206,0.034606934
1605202607394,647,0.18261719,0.9611206,0.034606934
1605202607394,648,0.05053711,0.39178467,-0.3196411
1605202607395,649,0.19824219,0.9142456,0.030700684
1605202607395,650,0.19824219,0.9142456,0.030700684
1605202607396,651,-0.2836914,0.7650757,-0.57891846
1605202607397,652,-0.103759766,1.1618042,0.034606934
1605202607398,653,-0.103759766,1.1618042,0.034606934
1605202607398,654,-0.18139648,0.9003296,-0.49639893
1605202607399,655,0.084228516,0.94281006,-0.3887329
1605202607399,656,0.084228516,0.94281006,-0.3887329
1605202607400,657,-0.053466797,1.1859741,-0.054504395
1605202607401,658,0.05053711,0.39178467,-0.3196411
1605202607401,659,0.05053711,0.39178467,-0.3196411
1605202607401,660,-0.15014648,0.85198975,-0.14581299
1605202607403,661,-0.2836914,0.7650757,-0.57891846
1605202607403,662,-0.2836914,0.7650757,-0.57891846
1605202607403,663,0.4675293,1.1549683,-0.12677002
1605202607404,664,-0.18139648,0.9003296,-0.49639893
1605202607405,665,-0.18139648,0.9003296,-0.49639893
1605202607406,666,-0.053466797,1.1859741,-0.054504395
1605202607406,667,-0.053466797,1.1859741,-0.054504395
1605202607408,668,-0.15014648,0.85198975,-0.14581299
1605202607408,669,0.4675293,1.1549683,-0.12677002
1605202607409,670,-0.15014648,0.85198975,-0.14581299
1605202607409,671,0.4675293,1.1549683,-0.12677002
1605202609934,672,-0.051757812,0.88201904,-0.3477173
1605202609935,673,-0.051757812,0.88201904,-0.3477173
1605202609935,674,-0.051757812,0.88201904,-0.3477173
1605202609935,675,-0.009033203,0.8981323,-0.30255127
1605202609937,676,-0.009033203,0.8981323,-0.30255127
1605202609937,677,-0.009033203,0.8981323,-0.30255127
1605202609937,678,0.10668945,0.94696045,-0.36236572
1605202609938,679,0.10668945,0.94696045,-0.36236572
1605202609940,680,0.20947266,0.9332886,-0.05279541
1605202609940,681,0.10668945,0.94696045,-0.36236572
1605202609941,682,0.20947266,0.9332886,-0.05279541
1605202609942,683,0.20947266,0.9332886,-0.05279541
1605202609943,684,-0.13867188,1.1727905,-0.16583252
1605202609943,685,-0.13867188,1.1727905,-0.16583252
1605202609946,686,-0.13867188,1.1727905,-0.16583252
1605202609946,687,-0.025634766,1.0761108,-0.17681885
1605202609946,688,-0.025634766,1.0761108,-0.17681885
1605202609947,689,-0.025634766,1.0761108,-0.17681885
1605202609947,690,0.3647461,1.0870972,-0.15924072
1605202609947,691,0.3647461,1.0870972,-0.15924072
1605202609948,692,-0.032714844,0.77679443,-0.13409424
1605202609950,693,-0.032714844,0.77679443,-0.13409424
1605202609950,694,-0.005859375,0.68182373,-0.18878174
1605202609951,695,0.3647461,1.0870972,-0.15924072
1605202609951,696,-0.005859375,0.68182373,-0.18878174
1605202609953,697,0.14428711,0.8954468,0.058532715
1605202609953,698,-0.032714844,0.77679443,-0.13409424
1605202609954,699,0.14428711,0.8954468,0.058532715
1605202609954,700,-0.5661621,0.97406006,-0.027648926
1605202609957,701,0.6657715,1.1879272,0.16473389
1605202609957,702,-0.5661621,0.97406006,-0.027648926
1605202609957,703,-0.005859375,0.68182373,-0.18878174
1605202609958,704,-0.096191406,1.0597534,0.062438965
1605202609958,705,0.6657715,1.1879272,0.16473389
1605202609959,706,0.14428711,0.8954468,0.058532715
1605202609960,707,-0.096191406,1.0597534,0.062438965
1605202609960,708,-0.5661621,0.97406006,-0.027648926
1605202609961,709,-0.12475586,0.94744873,-0.17071533
1605202609961,710,-0.12475586,0.94744873,-0.17071533
1605202609962,711,0.20385742,0.9008179,0.020202637
1605202609963,712,0.20385742,0.9008179,0.020202637
1605202609963,713,0.34155273,0.9293823,-0.03643799
1605202609964,714,0.34155273,0.9293823,-0.03643799
1605202609965,715,0.6657715,1.1879272,0.16473389
1605202609966,716,0.50268555,0.9052124,-0.074035645
1605202609966,717,0.50268555,0.9052124,-0.074035645
1605202609966,718,-0.031982422,1.0250854,0.077819824
1605202609968,719,-0.031982422,1.0250854,0.077819824
1605202609968,720,-0.096191406,1.0597534,0.062438965
1605202609968,721,-0.06591797,1.1698608,-0.43048096
1605202609970,722,-0.06591797,1.1698608,-0.43048096
1605202609970,723,-0.12475586,0.94744873,-0.17071533
1605202609970,724,0.22216797,1.2111206,-0.4229126
1605202609971,725,0.22216797,1.2111206,-0.4229126
1605202609972,726,0.35107422,0.93182373,-0.1560669
1605202609972,727,0.35107422,0.93182373,-0.1560669
1605202609973,728,0.20385742,0.9008179,0.020202637
1605202609974,729,-0.13574219,0.83270264,-0.047912598
1605202609974,730,-0.13574219,0.83270264,-0.047912598
1605202609975,731,0.34155273,0.9293823,-0.03643799
1605202609976,732,-0.27612305,0.81048584,-0.2715454
1605202609977,733,-0.27612305,0.81048584,-0.2715454
1605202609977,734,0.50268555,0.9052124,-0.074035645
1605202609978,735,-0.27172852,0.7509155,-0.22735596
1605202609978,736,-0.27172852,0.7509155,-0.22735596
1605202609978,737,-0.031982422,1.0250854,0.077819824
1605202609978,738,-0.30493164,1.2120972,-0.14263916
1605202609979,739,-0.06591797,1.1698608,-0.43048096
1605202609979,740,-0.30493164,1.2120972,-0.14263916
1605202609980,741,-0.24926758,0.91619873,-0.37261963
1605202609980,742,0.22216797,1.2111206,-0.4229126
1605202609981,743,-0.24926758,0.91619873,-0.37261963
1605202609981,744,0.35107422,0.93182373,-0.1560669
1605202609983,745,0.30810547,1.0099487,-0.10284424
1605202609984,746,-0.13574219,0.83270264,-0.047912598
1605202609984,747,0.30810547,1.0099487,-0.10284424
1605202609984,748,-0.07543945,0.8866577,-0.113342285
1605202609984,749,-0.27612305,0.81048584,-0.2715454
1605202609984,750,-0.061279297,1.0263062,-0.13482666
1605202609984,751,-0.07543945,0.8866577,-0.113342285
1605202609985,752,-0.27172852,0.7509155,-0.22735596
1605202609985,753,0.03125,0.8661499,-0.11578369
1605202609985,754,-0.061279297,1.0263062,-0.13482666
1605202609986,755,0.03125,0.8661499,-0.11578369
1605202609987,756,0.14624023,1.0050659,0.046081543
1605202609987,757,-0.30493164,1.2120972,-0.14263916
1605202609987,758,0.14624023,1.0050659,0.046081543
1605202609987,759,-0.0021972656,1.0072632,-0.20489502
1605202609988,760,-0.0021972656,1.0072632,-0.20489502
1605202609988,761,-0.24926758,0.91619873,-0.37261963
1605202609989,762,0.30810547,1.0099487,-0.10284424
1605202609990,763,-0.07543945,0.8866577,-0.113342285
1605202609990,764,-0.061279297,1.0263062,-0.13482666
1605202609992,765,0.03125,0.8661499,-0.11578369
1605202609992,766,0.14624023,1.0050659,0.046081543
1605202609993,767,-0.0021972656,1.0072632,-0.20489502
1605202612517,768,0.02368164,0.977478,0.17010498
1605202612520,769,0.02368164,0.977478,0.17010498
1605202612524,770,0.13867188,1.1530151,-0.2468872
1605202612527,771,0.13867188,1.1530151,-0.2468872
1605202612530,772,0.21728516,0.9918823,-0.25177002
1605202612535,773,0.21728516,0.9918823,-0.25177002
1605202612538,774,0.3852539,1.1801147,-0.21148682
1605202612541,775,0.3852539,1.1801147,-0.21148682
1605202612544,776,0.010986328,0.7037964,-0.066223145
1605202612548,777,0.010986328,0.7037964,-0.066223145
1605202612548,778,0.36816406,0.9352417,0.013122559
1605202612548,779,0.02368164,0.977478,0.17010498
1605202612550,780,-0.10058594,1.02948,0.32684326
1605202612554,781,0.13867188,1.1530151,-0.2468872
1605202612558,782,-0.2199707,0.9262085,0.0524292
1605202612562,783,0.21728516,0.9918823,-0.25177002
1605202612565,784,0.42407227,1.1464233,0.03314209
1605202612569,785,0.3852539,1.1801147,-0.21148682
1605202612572,786,-0.09863281,0.8512573,-0.07891846
1605202612576,787,0.010986328,0.7037964,-0.066223145
1605202612579,788,-0.015136719,0.934021,-0.25665283
1605202612580,789,0.36816406,0.9352417,0.013122559
1605202612581,790,0.26293945,0.8480835,-0.18536377
1605202612582,791,-0.10058594,1.02948,0.32684326
1605202612582,792,0.36816406,0.9352417,0.013122559
1605202612583,793,-0.2199707,0.9262085,0.0524292
1605202612584,794,0.42407227,1.1464233,0.03314209
1605202612585,795,-0.10058594,1.02948,0.32684326
1605202612586,796,-0.09863281,0.8512573,-0.07891846
1605202612587,797,-0.2199707,0.9262085,0.0524292
1605202612588,798,-0.015136719,0.934021,-0.25665283
1605202612589,799,0.42407227,1.1464233,0.03314209
1605202612590,800,0.26293945,0.8480835,-0.18536377
1605202612591,801,-0.09863281,0.8512573,-0.07891846
1605202612592,802,-0.12109375,0.8180542,-0.378479
1605202612593,803,-0.015136719,0.934021,-0.25665283
1605202612595,804,0.072021484,0.5856323,-0.55596924
1605202612595,805,-0.12109375,0.8180542,-0.378479
1605202612595,806,0.26293945,0.8480835,-0.18536377
1605202612596,807,0.072021484,0.5856323,-0.55596924
1605202612597,808,-0.12109375,0.8180542,-0.378479
1605202612599,809,0.075927734,0.46331787,-0.70880127
1605202612599,810,0.072021484,0.5856323,-0.55596924
1605202612599,811,0.10058594,0.36175537,-0.96759033
1605202612600,812,0.075927734,0.46331787,-0.70880127
1605202612601,813,0.10058594,0.36175537,-0.96759033
1605202612603,814,0.055664062,0.17010498,-1.2647095
1605202612603,815,0.075927734,0.46331787,-0.70880127
1605202612604,816,0.055664062,0.17010498,-1.2647095
1605202612604,817,0.10058594,0.36175537,-0.96759033
1605202612606,818,-0.09033203,-0.10235596,-1.4573364
1605202612606,819,-0.09033203,-0.10235596,-1.4573364
1605202612606,820,0.055664062,0.17010498,-1.2647095
1605202612607,821,0.13793945,0.004333496,-1.3035278
1605202612607,822,0.13793945,0.004333496,-1.3035278
1605202612607,823,-0.09033203,-0.10235596,-1.4573364
1605202612609,824,0.13793945,0.004333496,-1.3035278
1605202612609,825,0.2578125,-0.08502197,-1.1582642
1605202612611,826,0.2578125,-0.08502197,-1.1582642
1605202612611,827,0.2578125,-0.08502197,-1.1582642
1605202612611,828,0.30981445,0.008483887,-0.8713989
1605202612615,829,0.30981445,0.008483887,-0.8713989
1605202612615,830,0.30981445,0.008483887,-0.8713989
1605202612616,831,0.35791016,0.24945068,-0.6646118
1605202612616,832,0.35791016,0.24945068,-0.6646118
1605202612616,833,0.048095703,0.034362793,-0.76763916
1605202612616,834,0.35791016,0.24945068,-0.6646118
1605202612618,835,0.048095703,0.034362793,-0.76763916
1605202612618,836,0.03466797,0.07318115,-0.9697876
1605202612619,837,0.048095703,0.034362793,-0.76763916
1605202612619,838,0.03466797,0.07318115,-0.9697876
1605202612620,839,0.11645508,0.024841309,-1.0825806
1605202612620,840,0.03466797,0.07318115,-0.9697876
1605202612620,841,0.11645508,0.024841309,-1.0825806
1605202612622,842,0.16699219,-0.02520752,-1.1096802
1605202612623,843,0.11645508,0.024841309,-1.0825806
1605202612623,844,0.16699219,-0.02520752,-1.1096802
1605202612625,845,0.10253906,0.024597168,-0.9741821
1605202612626,846,0.16699219,-0.02520752,-1.1096802
1605202612626,847,0.10253906,0.024597168,-0.9741821
1605202612626,848,0.07714844,0.08050537,-0.9026489
1605202612626,849,0.07714844,0.08050537,-0.9026489
1605202612626,850,0.10253906,0.024597168,-0.9741821
1605202612627,851,-0.018798828,-0.00982666,-0.92974854
1605202612627,852,-0.018798828,-0.00982666,-0.92974854
1605202612627,853,0.07714844,0.08050537,-0.9026489
1605202612628,854,-0.034423828,0.085632324,-1.0523071
1605202612628,855,-0.034423828,0.085632324,-1.0523071
1605202612629,856,-0.0063476562,0.13275146,-1.1384888
1605202612629,857,-0.018798828,-0.00982666,-0.92974854
1605202612629,858,-0.0063476562,0.13275146,-1.1384888
1605202612630,859,-0.034423828,0.085632324,-1.0523071
1605202612631,860,-0.12597656,0.15863037,-1.0974731
1605202612632,861,-0.12597656,0.15863037,-1.0974731
1605202612633,862,-0.0063476562,0.13275146,-1.1384888
1605202612634,863,-0.12597656,0.15863037,-1.0974731
1605202615095,864,-0.21191406,0.18817139,-1.0842896
1605202615096,865,-0.21191406,0.18817139,-1.0842896
1605202615096,866,-0.1352539,0.117614746,-1.0825806
1605202615096,867,-0.1352539,0.117614746,-1.0825806
1605202615097,868,-0.1508789,0.17230225,-1.1231079
1605202615098,869,-0.21191406,0.18817139,-1.0842896
1605202615099,870,-0.1508789,0.17230225,-1.1231079
1605202615101,871,-0.1352539,0.117614746,-1.0825806
1605202615103,872,-0.19433594,0.21868896,-1.0859985
1605202615104,873,-0.1508789,0.17230225,-1.1231079
1605202615105,874,-0.21508789,0.3781128,-0.96051025
1605202615105,875,-0.24804688,0.48553467,-0.8994751
1605202615106,876,-0.19433594,0.21868896,-1.0859985
1605202615106,877,-0.21508789,0.3781128,-0.96051025
1605202615107,878,-0.3083496,0.55633545,-0.8362427
1605202615108,879,-0.19433594,0.21868896,-1.0859985
1605202615109,880,-0.119140625,0.67523193,-0.6223755
1605202615110,881,-0.045898438,0.6022339,-0.43341064
1605202615110,882,-0.24804688,0.48553467,-0.8994751
1605202615111,883,-0.3083496,0.55633545,-0.8362427
1605202615111,884,-0.122558594,0.7843628,-0.2559204
1605202615111,885,-0.119140625,0.67523193,-0.6223755
1605202615112,886,-0.10473633,1.0946655,-0.28961182
1605202615113,887,-0.045898438,0.6022339,-0.43341064
1605202615113,888,0.13452148,0.9957886,-0.26275635
1605202615113,889,-0.21508789,0.3781128,-0.96051025
1605202615114,890,-0.24804688,0.48553467,-0.8994751
1605202615115,891,-0.122558594,0.7843628,-0.2559204
1605202615116,892,-0.3083496,0.55633545,-0.8362427
1605202615116,893,-0.29956055,0.79559326,-0.35162354
1605202615117,894,-0.119140625,0.67523193,-0.6223755
1605202615117,895,-0.19555664,0.8036499,-0.43414307
1605202615117,896,-0.10473633,1.0946655,-0.28961182
1605202615117,897,-0.045898438,0.6022339,-0.43341064
1605202615118,898,0.13452148,0.9957886,-0.26275635
1605202615118,899,-0.122558594,0.7843628,-0.2559204
1605202615118,900,-0.29956055,0.79559326,-0.35162354
1605202615119,901,-0.10473633,1.0946655,-0.28961182
1605202615119,902,-0.19555664,0.8036499,-0.43414307
1605202615120,903,-0.19873047,0.6725464,-0.51275635
1605202615120,904,0.13452148,0.9957886,-0.26275635
1605202615120,905,-0.31225586,0.6691284,-0.67315674
1605202615121,906,-0.19873047,0.6725464,-0.51275635
1605202615121,907,-0.48168945,0.8529663,-0.25836182
1605202615122,908,-0.31225586,0.6691284,-0.67315674
1605202615122,909,-0.29956055,0.79559326,-0.35162354
1605202615122,910,-0.51123047,0.9904175,-0.50494385
1605202615122,911,-0.48168945,0.8529663,-0.25836182
1605202615123,912,0.012207031,0.96380615,-0.18121338
1605202615123,913,-0.19555664,0.8036499,-0.43414307
1605202615125,914,0.30517578,1.0673218,-0.09967041
1605202615126,915,-0.51123047,0.9904175,-0.50494385
1605202615126,916,-0.08496094,0.8925171,-0.47247314
1605202615126,917,-0.19873047,0.6725464,-0.51275635
1605202615127,918,0.012207031,0.96380615,-0.18121338
1605202615127,919,0.30517578,1.0673218,-0.09967041
1605202615127,920,0.10864258,0.9086304,-0.097717285
1605202615128,921,-0.31225586,0.6691284,-0.67315674
1605202615128,922,-0.48168945,0.8529663,-0.25836182
1605202615128,923,-0.08496094,0.8925171,-0.47247314
1605202615129,924,0.045898438,0.9100952,-0.23980713
1605202615129,925,-0.51123047,0.9904175,-0.50494385
1605202615129,926,0.10864258,0.9086304,-0.097717285
1605202615130,927,0.07910156,0.8978882,-0.15533447
1605202615130,928,0.045898438,0.9100952,-0.23980713
1605202615131,929,0.012207031,0.96380615,-0.18121338
1605202615131,930,0.07910156,0.8978882,-0.15533447
1605202615131,931,0.21948242,1.1134644,0.10394287
1605202615132,932,0.30517578,1.0673218,-0.09967041
1605202615132,933,0.21948242,1.1134644,0.10394287
1605202615133,934,-0.08496094,0.8925171,-0.47247314
1605202615133,935,-0.08203125,1.1920776,-0.1795044
1605202615133,936,0.10864258,0.9086304,-0.097717285
1605202615134,937,-0.08203125,1.1920776,-0.1795044
1605202615135,938,0.045898438,0.9100952,-0.23980713
1605202615135,939,0.23339844,1.1376343,-0.081848145
1605202615135,940,0.23339844,1.1376343,-0.081848145
1605202615136,941,0.25146484,0.9171753,-0.0881958
1605202615136,942,0.07910156,0.8978882,-0.15533447
1605202615137,943,0.25146484,0.9171753,-0.0881958
1605202615137,944,-0.16259766,0.76776123,-0.24786377
1605202615137,945,-0.16259766,0.76776123,-0.24786377
1605202615138,946,0.21948242,1.1134644,0.10394287
1605202615138,947,-0.08203125,1.1920776,-0.1795044
1605202615138,948,-0.0017089844,0.6991577,-0.3225708
1605202615139,949,0.23339844,1.1376343,-0.081848145
1605202615139,950,-0.0017089844,0.6991577,-0.3225708
1605202615140,951,0.015625,1.0167847,-0.15582275
1605202615140,952,0.25146484,0.9171753,-0.0881958
1605202615141,953,0.015625,1.0167847,-0.15582275
1605202615141,954,-0.16259766,0.76776123,-0.24786377
1605202615144,955,-0.296875,0.7887573,-0.1038208
1605202615144,956,-0.296875,0.7887573,-0.1038208
1605202615144,957,-0.0017089844,0.6991577,-0.3225708
1605202615144,958,0.015625,1.0167847,-0.15582275
1605202615144,959,-0.296875,0.7887573,-0.1038208
1605202617684,960,0.11401367,1.2494507,-0.23809814
1605202617688,961,0.11401367,1.2494507,-0.23809814
1605202617692,962,0.071777344,0.8661499,-0.17608643
1605202617696,963,0.071777344,0.8661499,-0.17608643
1605202617699,964,-0.21875,0.91326904,-0.37945557
1605202617703,965,-0.21875,0.91326904,-0.37945557
1605202617706,966,0.110839844,0.93573,-0.37457275
1605202617707,967,0.110839844,0.93573,-0.37457275
1605202617710,968,-0.15698242,0.73187256,-0.5315552
1605202617713,969,-0.15698242,0.73187256,-0.5315552
1605202617716,970,-0.20898438,0.5856323,-0.6182251
1605202617717,971,-0.20898438,0.5856323,-0.6182251
1605202617718,972,-9.765625E-4,0.633728,-0.62164307
1605202617719,973,0.11401367,1.2494507,-0.23809814
1605202617719,974,-0.14331055,0.5529175,-0.690979
1605202617720,975,0.071777344,0.8661499,-0.17608643
1605202617721,976,-0.17260742,0.47381592,-0.7937622
1605202617722,977,-0.21875,0.91326904,-0.37945557
1605202617723,978,-0.22607422,0.43597412,-0.8418579
1605202617724,979,0.110839844,0.93573,-0.37457275
1605202617725,980,-0.30200195,0.35125732,-0.89068604
1605202617726,981,-0.15698242,0.73187256,-0.5315552
1605202617727,982,-0.2644043,0.35906982,-1.0471802
1605202617728,983,-9.765625E-4,0.633728,-0.62164307
1605202617728,984,-0.20898438,0.5856323,-0.6182251
1605202617728,985,-0.14331055,0.5529175,-0.690979
1605202617729,986,-9.765625E-4,0.633728,-0.62164307
1605202617731,987,-0.28686523,0.23114014,-1.4331665
1605202617731,988,-0.17260742,0.47381592,-0.7937622
1605202617732,989,-0.14331055,0.5529175,-0.690979
1605202617732,990,-0.18652344,0.11932373,-1.0654907
1605202617733,991,-0.17260742,0.47381592,-0.7937622
1605202617734,992,-0.22094727,-0.089660645,-0.9885864
1605202617734,993,-0.22607422,0.43597412,-0.8418579
1605202617735,994,-0.1796875,-0.035461426,-1.0825806
1605202617735,995,-0.30200195,0.35125732,-0.89068604
1605202617736,996,-0.16308594,0.016540527,-1.062561
1605202617737,997,-0.2644043,0.35906982,-1.0471802
1605202617738,998,-0.22607422,0.43597412,-0.8418579
1605202617739,999,-0.30200195,0.35125732,-0.89068604
1605202617740,1000,-0.2475586,0.04046631,-0.9324341
1605202617741,1001,-0.2644043,0.35906982,-1.0471802
1605202617741,1002,-0.28686523,0.23114014,-1.4331665
1605202617741,1003,-0.3491211,0.04876709,-1.0054321
1605202617742,1004,-0.28686523,0.23114014,-1.4331665
1605202617743,1005,-0.26733398,-0.012512207,-0.9470825
1605202617743,1006,-0.18652344,0.11932373,-1.0654907
1605202617744,1007,-0.28710938,-0.011779785,-1.0186157
1605202617744,1008,-0.22094727,-0.089660645,-0.9885864
1605202617745,1009,-0.2644043,0.016052246,-0.9998169
1605202617745,1010,-0.18652344,0.11932373,-1.0654907
1605202617746,1011,-0.1796875,-0.035461426,-1.0825806
1605202617746,1012,-0.27319336,0.01727295,-0.99468994
1605202617747,1013,-0.22094727,-0.089660645,-0.9885864
1605202617748,1014,-0.16308594,0.016540527,-1.062561
1605202617749,1015,-0.2783203,-0.0154418945,-0.97735596
1605202617750,1016,-0.1796875,-0.035461426,-1.0825806
1605202617750,1017,-0.2475586,0.04046631,-0.9324341
1605202617750,1018,-0.16308594,0.016540527,-1.062561
1605202617753,1019,-0.3491211,0.04876709,-1.0054321
1605202617753,1020,-0.28344727,0.023376465,-0.9961548
1605202617754,1021,-0.2475586,0.04046631,-0.9324341
1605202617756,1022,-0.26733398,-0.012512207,-0.9470825
1605202617756,1023,-0.29541016,0.016052246,-0.9932251
1605202617757,1024,-0.3491211,0.04876709,-1.0054321
1605202617760,1025,-0.3017578,0.0040893555,-0.9690552
1605202617760,1026,-0.28710938,-0.011779785,-1.0186157
1605202617761,1027,-0.26733398,-0.012512207,-0.9470825
1605202617761,1028,-0.27319336,0.0119018555,-0.9885864
1605202617762,1029,-0.2644043,0.016052246,-0.9998169
1605202617762,1030,-0.2849121,0.025817871,-0.98687744
1605202617763,1031,-0.28710938,-0.011779785,-1.0186157
1605202617763,1032,-0.27319336,0.01727295,-0.99468994
1605202617765,1033,-0.27563477,0.031921387,-0.9829712
1605202617765,1034,-0.2644043,0.016052246,-0.9998169
1605202617774,1035,-0.2783203,-0.0154418945,-0.97735596
1605202617774,1036,-0.2619629,0.015808105,-1.0029907
1605202617774,1037,-0.27319336,0.01727295,-0.99468994
1605202617774,1038,-0.2783203,0.027282715,-0.9795532
1605202617774,1039,-0.2783203,-0.0154418945,-0.97735596
1605202617774,1040,-0.28344727,0.023376465,-0.9961548
1605202617775,1041,-0.29541016,0.016052246,-0.9932251
1605202617776,1042,-0.28344727,0.023376465,-0.9961548
1605202617776,1043,-0.3017578,0.0040893555,-0.9690552
1605202617776,1044,-0.29541016,0.016052246,-0.9932251
1605202617777,1045,-0.27319336,0.0119018555,-0.9885864
1605202617778,1046,-0.3017578,0.0040893555,-0.9690552
1605202617778,1047,-0.2849121,0.025817871,-0.98687744
1605202617779,1048,-0.27563477,0.031921387,-0.9829712
1605202617780,1049,-0.2619629,0.015808105,-1.0029907
1605202617781,1050,-0.27319336,0.0119018555,-0.9885864
1605202617781,1051,-0.2783203,0.027282715,-0.9795532
1605202617782,1052,-0.2849121,0.025817871,-0.98687744
1605202617782,1053,-0.27563477,0.031921387,-0.9829712
1605202617783,1054,-0.2619629,0.015808105,-1.0029907
1605202617785,1055,-0.2783203,0.027282715,-0.9795532
1605202620263,1056,-0.26611328,0.04095459,-0.99835205
1605202620264,1057,-0.26611328,0.04095459,-0.99835205
1605202620264,1058,-0.26611328,0.04095459,-0.99835205
1605202620264,1059,-0.24487305,0.050231934,-0.9883423
1605202620264,1060,-0.24487305,0.050231934,-0.9883423
1605202620265,1061,-0.24487305,0.050231934,-0.9883423
1605202620266,1062,-0.27685547,0.05731201,-1.0100708
1605202620266,1063,-0.27685547,0.05731201,-1.0100708
1605202620267,1064,-0.27685547,0.05731201,-1.0100708
1605202620267,1065,-0.24072266,0.03265381,-0.97613525
1605202620269,1066,-0.24072266,0.03265381,-0.97613525
1605202620269,1067,-0.25732422,0.042663574,-1.0073853
1605202620269,1068,-0.24072266,0.03265381,-0.97613525
1605202620269,1069,-0.25732422,0.042663574,-1.0073853
1605202620270,1070,-0.23901367,0.05706787,-0.9915161
1605202620270,1071,-0.25732422,0.042663574,-1.0073853
1605202620271,1072,-0.23901367,0.05706787,-0.9915161
1605202620271,1073,-0.25341797,0.05609131,-0.99346924
1605202620272,1074,-0.23901367,0.05706787,-0.9915161
1605202620273,1075,-0.25341797,0.05609131,-0.99346924
1605202620273,1076,-0.26245117,0.055114746,-0.9968872
1605202620273,1077,-0.25341797,0.05609131,-0.99346924
1605202620274,1078,-0.26245117,0.055114746,-0.9968872
1605202620274,1079,-0.2541504,0.046081543,-0.99176025
1605202620275,1080,-0.26245117,0.055114746,-0.9968872
1605202620277,1081,-0.2541504,0.046081543,-0.99176025
1605202620277,1082,-0.22485352,0.04949951,-1.0027466
1605202620277,1083,-0.2541504,0.046081543,-0.99176025
1605202620277,1084,-0.22485352,0.04949951,-1.0027466
1605202620277,1085,-0.24951172,0.04046631,-0.9956665
1605202620277,1086,-0.24951172,0.04046631,-0.9956665
1605202620277,1087,-0.22485352,0.04949951,-1.0027466
1605202620277,1088,-0.25317383,0.055603027,-0.9944458
1605202620278,1089,-0.24951172,0.04046631,-0.9956665
1605202620278,1090,-0.25317383,0.055603027,-0.9944458
1605202620278,1091,-0.24926758,0.059265137,-0.99420166
1605202620279,1092,-0.25317383,0.055603027,-0.9944458
1605202620280,1093,-0.24926758,0.059265137,-0.99420166
1605202620280,1094,-0.26611328,0.05682373,-0.9985962
1605202620280,1095,-0.26611328,0.05682373,-0.9985962
1605202620281,1096,-0.24584961,0.039001465,-0.9776001
1605202620281,1097,-0.24926758,0.059265137,-0.99420166
1605202620282,1098,-0.24584961,0.039001465,-0.9776001
1605202620282,1099,-0.23901367,0.050720215,-1.013977
1605202620282,1100,-0.23901367,0.050720215,-1.013977
1605202620283,1101,-0.26611328,0.05682373,-0.9985962
1605202620284,1102,-0.25219727,0.057556152,-0.9915161
1605202620284,1103,-0.25219727,0.057556152,-0.9915161
1605202620284,1104,-0.24584961,0.039001465,-0.9776001
1605202620285,1105,-0.2319336,0.05291748,-0.9961548
1605202620285,1106,-0.23901367,0.050720215,-1.013977
1605202620285,1107,-0.24951172,0.042907715,-0.9961548
1605202620286,1108,-0.25219727,0.057556152,-0.9915161
1605202620286,1109,-0.25708008,0.054870605,-0.9907837
1605202620287,1110,-0.2319336,0.05291748,-0.9961548
1605202620287,1111,-0.24951172,0.042907715,-0.9961548
1605202620288,1112,-0.23535156,0.049743652,-1.0037231
1605202620288,1113,-0.2319336,0.05291748,-0.9961548
1605202620289,1114,-0.25097656,0.04901123,-0.9939575
1605202620289,1115,-0.25708008,0.054870605,-0.9907837
1605202620290,1116,-0.24438477,0.058044434,-0.98883057
1605202620290,1117,-0.24951172,0.042907715,-0.9961548
1605202620290,1118,-0.23535156,0.049743652,-1.0037231
1605202620291,1119,-0.25708008,0.054870605,-0.9907837
1605202620291,1120,-0.25097656,0.04901123,-0.9939575
1605202620292,1121,-0.24560547,0.047546387,-1.0015259
1605202620292,1122,-0.24438477,0.058044434,-0.98883057
1605202620292,1123,-0.2607422,0.04925537,-0.9902954
1605202620293,1124,-0.24560547,0.047546387,-1.0015259
1605202620293,1125,-0.2319336,0.054138184,-0.9937134
1605202620293,1126,-0.2607422,0.04925537,-0.9902954
1605202620294,1127,-0.23535156,0.049743652,-1.0037231
1605202620294,1128,-0.25512695,0.050476074,-0.99786377
1605202620295,1129,-0.2319336,0.054138184,-0.9937134
1605202620295,1130,-0.25097656,0.04901123,-0.9939575
1605202620295,1131,-0.25512695,0.050476074,-0.99786377
1605202620296,1132,-0.26464844,0.058776855,-0.98443604
1605202620296,1133,-0.24438477,0.058044434,-0.98883057
1605202620298,1134,-0.26464844,0.058776855,-0.98443604
1605202620298,1135,-0.22485352,0.04486084,-1.003479
1605202620298,1136,-0.24560547,0.047546387,-1.0015259
1605202620298,1137,-0.22485352,0.04486084,-1.003479
1605202620298,1138,-0.25195312,0.046325684,-0.99468994
1605202620298,1139,-0.25195312,0.046325684,-0.99468994
1605202620298,1140,-0.25463867,0.051208496,-0.9859009
1605202620298,1141,-0.2607422,0.04925537,-0.9902954
1605202620299,1142,-0.23852539,0.050476074,-1.0037231
1605202620299,1143,-0.25463867,0.051208496,-0.9859009
1605202620299,1144,-0.2319336,0.054138184,-0.9937134
1605202620300,1145,-0.23852539,0.050476074,-1.0037231
1605202620301,1146,-0.25512695,0.050476074,-0.99786377
1605202620301,1147,-0.26464844,0.058776855,-0.98443604
1605202620302,1148,-0.22485352,0.04486084,-1.003479
1605202620302,1149,-0.25195312,0.046325684,-0.99468994
1605202620303,1150,-0.25463867,0.051208496,-0.9859009
1605202620304,1151,-0.23852539,0.050476074,-1.0037231
1605202622851,1152,-0.2644043,0.054382324,-0.99224854
1605202622855,1153,-0.2644043,0.054382324,-0.99224854
1605202622858,1154,-0.24389648,0.050476074,-0.9907837
1605202622862,1155,-0.24389648,0.050476074,-0.9907837
1605202622865,1156,-0.2475586,0.051940918,-0.9951782
1605202622869,1157,-0.2475586,0.051940918,-0.9951782
1605202622873,1158,-0.25683594,0.05609131,-0.9915161
1605202622876,1159,-0.25683594,0.05609131,-0.9915161
1605202622878,1160,-0.22875977,0.05316162,-1.0007935
1605202622878,1161,-0.22875977,0.05316162,-1.0007935
1605202622882,1162,-0.2644043,0.054382324,-0.99224854
1605202622886,1163,-0.24951172,0.06390381,-0.9981079
1605202622889,1164,-0.24389648,0.050476074,-0.9907837
1605202622892,1165,-0.2487793,0.058288574,-0.9873657
1605202622894,1166,-0.24902344,0.046813965,-1.0012817
1605202622895,1167,-0.24951172,0.06390381,-0.9981079
1605202622895,1168,-0.26586914,0.049743652,-0.9944458
1605202622895,1169,-0.2475586,0.051940918,-0.9951782
1605202622897,1170,-0.2553711,0.04095459,-0.9907837
1605202622898,1171,-0.25683594,0.05609131,-0.9915161
1605202622899,1172,-0.26586914,0.006286621,-0.9990845
1605202622900,1173,-0.22875977,0.05316162,-1.0007935
1605202622901,1174,-0.2980957,0.008239746,-0.98150635
1605202622901,1175,-0.2487793,0.058288574,-0.9873657
1605202622902,1176,-0.24951172,0.06390381,-0.9981079
1605202622904,1177,-0.24902344,0.046813965,-1.0012817
1605202622904,1178,-0.2487793,0.058288574,-0.9873657
1605202622905,1179,-0.26586914,0.049743652,-0.9944458
1605202622907,1180,-0.2890625,0.03656006,-0.98638916
1605202622908,1181,-0.24902344,0.046813965,-1.0012817
1605202622909,1182,-0.23608398,-0.008361816,-1.0015259
1605202622910,1183,-0.26586914,0.049743652,-0.9944458
1605202622910,1184,-0.2553711,0.04095459,-0.9907837
1605202622910,1185,-0.2553711,0.04095459,-0.9907837
1605202622911,1186,-0.27563477,-0.061340332,-0.98150635
1605202622913,1187,-0.26586914,0.006286621,-0.9990845
1605202622913,1188,-0.25195312,-0.04425049,-0.99713135
1605202622914,1189,-0.2980957,0.008239746,-0.98150635
1605202622916,1190,-0.26293945,-0.0725708,-1.1963501
1605202622917,1191,-0.2890625,0.03656006,-0.98638916
1605202622917,1192,-0.26586914,0.006286621,-0.9990845
1605202622918,1193,-0.38256836,0.042419434,-1.1033325
1605202622919,1194,-0.2980957,0.008239746,-0.98150635
1605202622920,1195,-0.23608398,-0.008361816,-1.0015259
1605202622921,1196,-0.29492188,0.11395264,-1.0803833
1605202622921,1197,-0.2890625,0.03656006,-0.98638916
1605202622922,1198,-0.27563477,-0.061340332,-0.98150635
1605202622923,1199,-0.14575195,0.3378296,-1.0095825
1605202622923,1200,-0.23608398,-0.008361816,-1.0015259
1605202622924,1201,-0.25195312,-0.04425049,-0.99713135
1605202622924,1202,-0.1496582,0.29803467,-0.986145
1605202622925,1203,-0.27563477,-0.061340332,-0.98150635
1605202622926,1204,-0.26293945,-0.0725708,-1.1963501
1605202622927,1205,-0.11035156,0.3204956,-0.92974854
1605202622927,1206,-0.25195312,-0.04425049,-0.99713135
1605202622928,1207,-0.38256836,0.042419434,-1.1033325
1605202622928,1208,-0.08642578,0.33441162,-0.88287354
1605202622929,1209,-0.26293945,-0.0725708,-1.1963501
1605202622930,1210,-0.05419922,0.3859253,-0.8557739
1605202622930,1211,-0.29492188,0.11395264,-1.0803833
1605202622930,1212,-0.38256836,0.042419434,-1.1033325
1605202622932,1213,-0.07128906,0.513855,-0.8369751
1605202622933,1214,-0.29492188,0.11395264,-1.0803833
1605202622933,1215,-0.14575195,0.3378296,-1.0095825
1605202622933,1216,-0.02368164,0.6703491,-0.7786255
1605202622934,1217,-0.1496582,0.29803467,-0.986145
1605202622934,1218,-0.14575195,0.3378296,-1.0095825
1605202622935,1219,-0.11035156,0.3204956,-0.92974854
1605202622935,1220,-0.1496582,0.29803467,-0.986145
1605202622936,1221,0.012451172,0.73773193,-0.5532837
1605202622936,1222,-0.11035156,0.3204956,-0.92974854
1605202622937,1223,0.064208984,0.77337646,-0.5496216
1605202622937,1224,-0.08642578,0.33441162,-0.88287354
1605202622939,1225,-0.08642578,0.33441162,-0.88287354
1605202622939,1226,0.08105469,0.6947632,-0.4631958
1605202622939,1227,-0.05419922,0.3859253,-0.8557739
1605202622940,1228,-0.05419922,0.3859253,-0.8557739
1605202622940,1229,-0.047607422,0.80584717,-0.4006958
1605202622941,1230,-0.07128906,0.513855,-0.8369751
1605202622942,1231,-0.07128906,0.513855,-0.8369751
1605202622942,1232,0.005859375,0.9328003,-0.37628174
1605202622943,1233,-0.02368164,0.6703491,-0.7786255
1605202622943,1234,-0.02368164,0.6703491,-0.7786255
1605202622944,1235,0.10864258,0.89593506,-0.3460083
1605202622945,1236,0.012451172,0.73773193,-0.5532837
1605202622945,1237,0.012451172,0.73773193,-0.5532837
1605202622945,1238,0.064208984,0.77337646,-0.5496216
1605202622946,1239,0.064208984,0.77337646,-0.5496216
1605202622947,1240,0.08105469,0.6947632,-0.4631958
1605202622947,1241,0.08105469,0.6947632,-0.4631958
1605202622948,1242,-0.047607422,0.80584717,-0.4006958
1605202622949,1243,-0.047607422,0.80584717,-0.4006958
1605202622949,1244,0.005859375,0.9328003,-0.37628174
1605202622950,1245,0.005859375,0.9328003,-0.37628174
1605202622950,1246,0.10864258,0.89593506,-0.3460083
1605202622951,1247,0.10864258,0.89593506,-0.3460083
1605202625435,1248,0.27246094,0.93255615,-0.23590088
1605202625436,1249,0.27246094,0.93255615,-0.23590088
1605202625436,1250,0.27246094,0.93255615,-0.23590088
1605202625436,1251,-0.07543945,0.949646,-0.32720947
1605202625437,1252,-0.07543945,0.949646,-0.32720947
1605202625439,1253,-0.18554688,1.1005249,-0.1897583
1605202625440,1254,-0.07543945,0.949646,-0.32720947
1605202625440,1255,-0.18554688,1.1005249,-0.1897583
1605202625440,1256,-0.09082031,1.032898,-0.18414307
1605202625441,1257,-0.18554688,1.1005249,-0.1897583
1605202625443,1258,-0.0234375,0.9069214,-0.06427002
1605202625445,1259,-0.09082031,1.032898,-0.18414307
1605202625446,1260,-0.09082031,1.032898,-0.18414307
1605202625446,1261,-2.4414062E-4,0.9718628,-0.2390747
1605202625447,1262,-0.0234375,0.9069214,-0.06427002
1605202625447,1263,-0.0234375,0.9069214,-0.06427002
1605202625448,1264,-0.23803711,0.90448,-0.2444458
1605202625448,1265,-0.21289062,0.7260132,-0.25421143
1605202625451,1266,-2.4414062E-4,0.9718628,-0.2390747
1605202625451,1267,-0.14770508,0.73602295,-0.36602783
1605202625451,1268,-2.4414062E-4,0.9718628,-0.2390747
1605202625454,1269,-0.23803711,0.90448,-0.2444458
1605202625457,1270,-0.23803711,0.90448,-0.2444458
1605202625459,1271,-0.21289062,0.7260132,-0.25421143
1605202625462,1272,-0.21289062,0.7260132,-0.25421143
1605202625464,1273,-0.14770508,0.73602295,-0.36602783
1605202625466,1274,-0.14770508,0.73602295,-0.36602783
1605202625469,1275,-0.16845703,0.8619995,-0.5095825
1605202625472,1276,-0.16845703,0.8619995,-0.5095825
1605202625475,1277,-0.36206055,1.0219116,-0.47857666
1605202625479,1278,-0.36206055,1.0219116,-0.47857666
1605202625481,1279,-0.18701172,1.1635132,-0.33966064
1605202625484,1280,-0.18701172,1.1635132,-0.33966064
1605202625487,1281,-0.33374023,0.7628784,-0.21026611
1605202625489,1282,-0.33374023,0.7628784,-0.21026611
1605202625492,1283,0.34521484,1.1117554,0.085632324
1605202625493,1284,0.34521484,1.1117554,0.085632324
1605202625497,1285,-0.14868164,0.9389038,-0.10015869
1605202625497,1286,-0.14868164,0.9389038,-0.10015869
1605202625497,1287,-0.16845703,0.8619995,-0.5095825
1605202625498,1288,0.17285156,0.91522217,0.18377686
1605202625498,1289,0.17285156,0.91522217,0.18377686
1605202625498,1290,0.30273438,0.979187,0.13641357
1605202625498,1291,-0.36206055,1.0219116,-0.47857666
1605202625501,1292,0.13208008,0.90618896,0.078063965
1605202625501,1293,0.30273438,0.979187,0.13641357
1605202625501,1294,-0.18701172,1.1635132,-0.33966064
1605202625502,1295,0.13208008,0.90618896,0.078063965
1605202625503,1296,-0.33374023,0.7628784,-0.21026611
1605202625503,1297,0.15576172,0.92767334,0.039978027
1605202625504,1298,0.34521484,1.1117554,0.085632324
1605202625505,1299,0.2265625,0.9850464,0.012634277
1605202625506,1300,-0.14868164,0.9389038,-0.10015869
1605202625509,1301,0.099609375,0.9730835,0.09197998
1605202625509,1302,0.15576172,0.92767334,0.039978027
1605202625510,1303,0.17285156,0.91522217,0.18377686
1605202625510,1304,-0.22167969,1.314148,0.11956787
1605202625512,1305,-0.11010742,1.062439,-0.300354
1605202625512,1306,0.30273438,0.979187,0.13641357
1605202625513,1307,-0.35351562,0.4755249,-0.25079346
1605202625514,1308,-0.24780273,0.7103882,-0.34576416
1605202625514,1309,0.13208008,0.90618896,0.078063965
1605202625515,1310,0.2265625,0.9850464,0.012634277
1605202625516,1311,-0.06347656,0.90496826,-0.52838135
1605202625517,1312,0.15576172,0.92767334,0.039978027
1605202625517,1313,0.099609375,0.9730835,0.09197998
1605202625518,1314,0.2265625,0.9850464,0.012634277
1605202625519,1315,-0.33496094,0.77508545,-0.5466919
1605202625519,1316,-0.22167969,1.314148,0.11956787
1605202625519,1317,0.099609375,0.9730835,0.09197998
1605202625521,1318,-0.21679688,0.7640991,-0.4348755
1605202625521,1319,-0.11010742,1.062439,-0.300354
1605202625521,1320,-0.22167969,1.314148,0.11956787
1605202625522,1321,-0.35351562,0.4755249,-0.25079346
1605202625522,1322,-0.18237305,0.8312378,-0.3970337
1605202625523,1323,-0.11010742,1.062439,-0.300354
1605202625525,1324,-0.24780273,0.7103882,-0.34576416
1605202625525,1325,-0.13305664,0.84368896,-0.49713135
1605202625525,1326,-0.35351562,0.4755249,-0.25079346
1605202625526,1327,-0.06347656,0.90496826,-0.52838135
1605202625526,1328,-0.24780273,0.7103882,-0.34576416
1605202625527,1329,-0.056152344,0.9057007,-0.5317993
1605202625527,1330,-0.33496094,0.77508545,-0.5466919
1605202625527,1331,-0.06347656,0.90496826,-0.52838135
1605202625529,1332,-0.22729492,1.274353,-0.065979004
1605202625530,1333,-0.21679688,0.7640991,-0.4348755
1605202625530,1334,-0.33496094,0.77508545,-0.5466919
1605202625530,1335,-0.18237305,0.8312378,-0.3970337
1605202625531,1336,-0.21679688,0.7640991,-0.4348755
1605202625532,1337,-0.18237305,0.8312378,-0.3970337
1605202625532,1338,-0.13305664,0.84368896,-0.49713135
1605202625533,1339,-0.13305664,0.84368896,-0.49713135
1605202625533,1340,-0.056152344,0.9057007,-0.5317993
1605202625534,1341,-0.056152344,0.9057007,-0.5317993
1605202625535,1342,-0.22729492,1.274353,-0.065979004
1605202625536,1343,-0.22729492,1.274353,-0.065979004
1605202628019,1344,-0.09814453,0.69036865,0.0026245117
1605202628023,1345,-0.09814453,0.69036865,0.0026245117
1605202628026,1346,0.31396484,1.1517944,0.04876709
1605202628029,1347,0.31396484,1.1517944,0.04876709
1605202628031,1348,-0.07519531,0.9135132,-0.12384033
1605202628032,1349,-0.09814453,0.69036865,0.0026245117
1605202628032,1350,-0.07519531,0.9135132,-0.12384033
1605202628034,1351,0.10229492,0.91278076,0.05999756
1605202628034,1352,0.10229492,0.91278076,0.05999756
1605202628036,1353,0.119384766,0.9398804,0.02508545
1605202628036,1354,0.119384766,0.9398804,0.02508545
1605202628037,1355,0.31396484,1.1517944,0.04876709
1605202628037,1356,0.0637207,0.9064331,-0.06500244
1605202628038,1357,-0.07519531,0.9135132,-0.12384033
1605202628038,1358,0.1616211,0.90667725,0.013122559
1605202628039,1359,0.10229492,0.91278076,0.05999756
1605202628040,1360,0.12207031,0.96795654,0.07342529
1605202628041,1361,0.24780273,1.2523804,-0.004211426
1605202628042,1362,0.119384766,0.9398804,0.02508545
1605202628042,1363,0.0637207,0.9064331,-0.06500244
1605202628042,1364,-0.057861328,1.0895386,-0.07574463
1605202628045,1365,0.0637207,0.9064331,-0.06500244
1605202628045,1366,0.1616211,0.90667725,0.013122559
1605202628046,1367,-0.14501953,0.8175659,-0.026916504
1605202628046,1368,0.1616211,0.90667725,0.013122559
1605202628046,1369,0.12207031,0.96795654,0.07342529
1605202628046,1370,0.07324219,1.2938843,0.010192871
1605202628047,1371,0.24780273,1.2523804,-0.004211426
1605202628049,1372,0.12207031,0.96795654,0.07342529
1605202628050,1373,0.08642578,0.9384155,-0.14361572
1605202628050,1374,-0.057861328,1.0895386,-0.07574463
1605202628050,1375,-0.15844727,0.80096436,-0.2456665
1605202628052,1376,0.24780273,1.2523804,-0.004211426
1605202628056,1377,-0.21313477,0.78460693,-0.34747314
1605202628060,1378,-0.057861328,1.0895386,-0.07574463
1605202628063,1379,-0.013427734,0.6901245,-0.33746338
1605202628066,1380,-0.14501953,0.8175659,-0.026916504
1605202628070,1381,-0.14111328,0.86053467,-0.16314697
1605202628073,1382,0.07324219,1.2938843,0.010192871
1605202628077,1383,-0.35986328,0.9125366,-0.024719238
1605202628078,1384,-0.03564453,1.2011108,0.042663574
1605202628079,1385,0.08642578,0.9384155,-0.14361572
1605202628079,1386,-0.14501953,0.8175659,-0.026916504
1605202628080,1387,0.25805664,0.9760132,0.3007202
1605202628086,1388,-0.15844727,0.80096436,-0.2456665
1605202628087,1389,-0.26757812,1.0744019,-0.07989502
1605202628088,1390,-0.21313477,0.78460693,-0.34747314
1605202628091,1391,-0.171875,0.9894409,-0.2962036
1605202628091,1392,-0.013427734,0.6901245,-0.33746338
1605202628092,1393,0.21557617,0.9125366,0.3444214
1605202628093,1394,0.07324219,1.2938843,0.010192871
1605202628095,1395,9.765625E-4,0.9918823,-0.035949707
1605202628096,1396,0.08642578,0.9384155,-0.14361572
1605202628096,1397,-0.14111328,0.86053467,-0.16314697
1605202628098,1398,-0.15844727,0.80096436,-0.2456665
1605202628098,1399,-0.35986328,0.9125366,-0.024719238
1605202628099,1400,-0.21313477,0.78460693,-0.34747314
1605202628099,1401,-0.03564453,1.2011108,0.042663574
1605202628101,1402,0.25805664,0.9760132,0.3007202
1605202628102,1403,-0.013427734,0.6901245,-0.33746338
1605202628104,1404,0.017089844,0.93914795,0.08856201
1605202628104,1405,-0.14111328,0.86053467,-0.16314697
1605202628105,1406,-0.26757812,1.0744019,-0.07989502
1605202628106,1407,0.040039062,0.9660034,0.017028809
1605202628108,1408,-0.35986328,0.9125366,-0.024719238
1605202628108,1409,-0.171875,0.9894409,-0.2962036
1605202628108,1410,-0.09692383,0.9789429,-0.059387207
1605202628108,1411,0.21557617,0.9125366,0.3444214
1605202628110,1412,-0.048583984,0.9413452,-0.12408447
1605202628110,1413,9.765625E-4,0.9918823,-0.035949707
1605202628110,1414,0.047851562,0.96502686,-0.08795166
1605202628111,1415,-0.03564453,1.2011108,0.042663574
1605202628111,1416,0.017089844,0.93914795,0.08856201
1605202628112,1417,0.040039062,0.9660034,0.017028809
1605202628112,1418,0.09838867,0.9567261,-0.039123535
1605202628112,1419,-0.09692383,0.9789429,-0.059387207
1605202628113,1420,-0.13085938,1.0348511,-0.23077393
1605202628113,1421,0.25805664,0.9760132,0.3007202
1605202628114,1422,-0.048583984,0.9413452,-0.12408447
1605202628114,1423,-0.20800781,1.0280151,-0.20513916
1605202628114,1424,-0.26757812,1.0744019,-0.07989502
1605202628115,1425,0.047851562,0.96502686,-0.08795166
1605202628115,1426,-0.171875,0.9894409,-0.2962036
1605202628116,1427,0.09838867,0.9567261,-0.039123535
1605202628116,1428,-0.13085938,1.0348511,-0.23077393
1605202628117,1429,0.21557617,0.9125366,0.3444214
1605202628117,1430,9.765625E-4,0.9918823,-0.035949707
1605202628117,1431,-0.20800781,1.0280151,-0.20513916
1605202628118,1432,0.017089844,0.93914795,0.08856201
1605202628119,1433,0.040039062,0.9660034,0.017028809
1605202628120,1434,-0.09692383,0.9789429,-0.059387207
1605202628120,1435,-0.048583984,0.9413452,-0.12408447
1605202628121,1436,0.047851562,0.96502686,-0.08795166
1605202628122,1437,0.09838867,0.9567261,-0.039123535
1605202628124,1438,-0.13085938,1.0348511,-0.23077393
1605202628124,1439,-0.20800781,1.0280151,-0.20513916
1605202630801,1440,-0.26245117,1.1015015,-0.14434814
1605202630801,1441,-0.26245117,1.1015015,-0.14434814
1605202630802,1442,-0.26245117,1.1015015,-0.14434814
1605202630803,1443,-0.084228516,0.93182373,-0.11260986
1605202630804,1444,-0.084228516,0.93182373,-0.11260986
1605202630804,1445,-0.084228516,0.93182373,-0.11260986
1605202630805,1446,-0.056884766,1.0082397,0.04144287
1605202630806,1447,-0.056884766,1.0082397,0.04144287
1605202630808,1448,-0.14697266,0.97406006,-0.19781494
1605202630808,1449,-0.14697266,0.97406006,-0.19781494
1605202630809,1450,-0.056884766,1.0082397,0.04144287
1605202630810,1451,-0.17480469,0.78167725,-0.21954346
1605202630811,1452,-0.14697266,0.97406006,-0.19781494
1605202630813,1453,-0.21264648,0.7020874,-0.24957275
1605202630813,1454,-0.17480469,0.78167725,-0.21954346
1605202630814,1455,-0.17480469,0.78167725,-0.21954346
1605202630816,1456,-0.24267578,0.82855225,-0.38946533
1605202630816,1457,-0.21264648,0.7020874,-0.24957275
1605202630817,1458,-0.21264648,0.7020874,-0.24957275
1605202630817,1459,-0.23999023,0.9430542,-0.5305786
1605202630819,1460,-0.24267578,0.82855225,-0.38946533
1605202630819,1461,-0.24267578,0.82855225,-0.38946533
1605202630819,1462,-0.37817383,0.9179077,-0.40509033
1605202630819,1463,-0.23999023,0.9430542,-0.5305786
1605202630820,1464,-0.23999023,0.9430542,-0.5305786
1605202630822,1465,-0.37817383,0.9179077,-0.40509033
1605202630822,1466,-0.37817383,0.9179077,-0.40509033
1605202630823,1467,-0.16210938,1.213562,-0.41656494
1605202630823,1468,-0.16210938,1.213562,-0.41656494
1605202630825,1469,-0.13720703,0.6864624,0.01727295
1605202630825,1470,-0.16210938,1.213562,-0.41656494
1605202630825,1471,-0.13720703,0.6864624,0.01727295
1605202630826,1472,-0.13720703,0.6864624,0.01727295
1605202630827,1473,0.26635742,1.1742554,-0.012512207
1605202630829,1474,0.26635742,1.1742554,-0.012512207
1605202630829,1475,-0.12182617,0.8859253,0.0016479492
1605202630830,1476,0.26635742,1.1742554,-0.012512207
1605202630830,1477,-0.12182617,0.8859253,0.0016479492
1605202630831,1478,-0.12182617,0.8859253,0.0016479492
1605202630831,1479,0.18603516,0.89886475,0.13543701
1605202630831,1480,0.18603516,0.89886475,0.13543701
1605202630833,1481,0.1940918,0.9743042,0.06878662
1605202630834,1482,0.1940918,0.9743042,0.06878662
1605202630834,1483,0.10864258,0.93304443,-3.0517578E-4
1605202630835,1484,0.18603516,0.89886475,0.13543701
1605202630835,1485,0.10864258,0.93304443,-3.0517578E-4
1605202630837,1486,0.1953125,0.9484253,0.093933105
1605202630839,1487,0.1940918,0.9743042,0.06878662
1605202630839,1488,0.0056152344,0.9525757,0.10076904
1605202630839,1489,0.1953125,0.9484253,0.093933105
1605202630840,1490,0.10864258,0.93304443,-3.0517578E-4
1605202630841,1491,0.0056152344,0.9525757,0.10076904
1605202630841,1492,-0.17675781,1.3417358,0.14764404
1605202630841,1493,-0.17675781,1.3417358,0.14764404
1605202630842,1494,0.1953125,0.9484253,0.093933105
1605202630843,1495,-0.17797852,0.9315796,-0.054748535
1605202630844,1496,-0.17797852,0.9315796,-0.054748535
1605202630844,1497,0.0056152344,0.9525757,0.10076904
1605202630845,1498,-0.49926758,0.60565186,-0.26885986
1605202630845,1499,-0.17675781,1.3417358,0.14764404
1605202630846,1500,-0.49926758,0.60565186,-0.26885986
1605202630846,1501,-0.17016602,0.87908936,-0.39605713
1605202630847,1502,-0.17797852,0.9315796,-0.054748535
1605202630848,1503,-0.17016602,0.87908936,-0.39605713
1605202630848,1504,-0.115722656,0.85980225,-0.4138794
1605202630849,1505,-0.115722656,0.85980225,-0.4138794
1605202630850,1506,-0.49926758,0.60565186,-0.26885986
1605202630850,1507,-0.4482422,0.79901123,-0.3748169
1605202630851,1508,-0.4482422,0.79901123,-0.3748169
1605202630852,1509,-0.17016602,0.87908936,-0.39605713
1605202630852,1510,-0.28735352,0.8161011,-0.29986572
1605202630853,1511,-0.28735352,0.8161011,-0.29986572
1605202630854,1512,-0.115722656,0.85980225,-0.4138794
1605202630854,1513,-0.25927734,0.8517456,-0.28277588
1605202630856,1514,-0.4482422,0.79901123,-0.3748169
1605202630856,1515,-0.25927734,0.8517456,-0.28277588
1605202630856,1516,-0.28955078,0.8517456,-0.33966064
1605202630857,1517,-0.28735352,0.8161011,-0.29986572
1605202630858,1518,-0.28955078,0.8517456,-0.33966064
1605202630858,1519,-0.31762695,0.89837646,-0.35821533
1605202630858,1520,-0.31762695,0.89837646,-0.35821533
1605202630859,1521,-0.24145508,1.2960815,-0.33843994
1605202630860,1522,-0.25927734,0.8517456,-0.28277588
1605202630861,1523,-0.24145508,1.2960815,-0.33843994
1605202630861,1524,-0.35839844,0.64886475,0.11517334
1605202630862,1525,-0.28955078,0.8517456,-0.33966064
1605202630863,1526,-0.35839844,0.64886475,0.11517334
1605202630863,1527,0.11621094,1.1063843,-7.9345703E-4
1605202630863,1528,-0.31762695,0.89837646,-0.35821533
1605202630865,1529,0.11621094,1.1063843,-7.9345703E-4
1605202630866,1530,-0.24145508,1.2960815,-0.33843994
1605202630866,1531,0.24926758,0.97943115,-0.005432129
1605202630866,1532,0.24926758,0.97943115,-0.005432129
1605202630866,1533,-0.35839844,0.64886475,0.11517334
1605202630867,1534,0.11621094,1.1063843,-7.9345703E-4
1605202630868,1535,0.24926758,0.97943115,-0.005432129
1605202633186,1536,0.006591797,0.88201904,-0.08868408
1605202633189,1537,0.006591797,0.88201904,-0.08868408
1605202633190,1538,0.14428711,0.9557495,0.051208496
1605202633190,1539,0.006591797,0.88201904,-0.08868408
1605202633191,1540,0.14428711,0.9557495,0.051208496
1605202633191,1541,0.14428711,0.9557495,0.051208496
1605202633193,1542,0.064697266,0.9293823,-0.031311035
1605202633194,1543,0.064697266,0.9293823,-0.031311035
1605202633194,1544,0.064697266,0.9293823,-0.031311035
1605202633194,1545,0.06616211,0.8986206,-0.024475098
1605202633196,1546,0.06616211,0.8986206,-0.024475098
1605202633197,1547,0.06616211,0.8986206,-0.024475098
1605202633197,1548,0.12597656,0.9071655,0.039245605
1605202633202,1549,0.12597656,0.9071655,0.039245605
1605202633202,1550,0.12597656,0.9071655,0.039245605
1605202633203,1551,0.115722656,0.99261475,0.04095459
1605202633203,1552,0.115722656,0.99261475,0.04095459
1605202633203,1553,0.115722656,0.99261475,0.04095459
1605202633203,1554,0.25634766,1.1239624,-0.08770752
1605202633203,1555,0.25634766,1.1239624,-0.08770752
1605202633205,1556,0.25634766,1.1239624,-0.08770752
1605202633205,1557,0.18164062,1.2243042,-0.047668457
1605202633205,1558,0.18164062,1.2243042,-0.047668457
1605202633206,1559,-0.22338867,0.9071655,-0.031311035
1605202633210,1560,-0.22338867,0.9071655,-0.031311035
1605202633210,1561,0.18164062,1.2243042,-0.047668457
1605202633211,1562,0.21679688,1.1400757,0.03704834
1605202633214,1563,-0.22338867,0.9071655,-0.031311035
1605202633214,1564,0.19970703,0.949646,-0.06939697
1605202633214,1565,0.21679688,1.1400757,0.03704834
1605202633215,1566,0.21679688,1.1400757,0.03704834
1605202633215,1567,0.19970703,0.949646,-0.06939697
1605202633217,1568,0.19970703,0.949646,-0.06939697
1605202633217,1569,-0.04663086,0.9215698,-0.1873169
1605202633218,1570,-0.04663086,0.9215698,-0.1873169
1605202633218,1571,-0.04663086,0.9215698,-0.1873169
1605202633218,1572,-0.011474609,0.83587646,-0.28009033
1605202633220,1573,-0.011474609,0.83587646,-0.28009033
1605202633220,1574,-0.011474609,0.83587646,-0.28009033
1605202633220,1575,0.022705078,0.7020874,-0.25933838
1605202633222,1576,0.022705078,0.7020874,-0.25933838
1605202633222,1577,0.022705078,0.7020874,-0.25933838
1605202633223,1578,0.045654297,1.012146,-0.12042236
1605202633224,1579,0.045654297,1.012146,-0.12042236
1605202633224,1580,0.045654297,1.012146,-0.12042236
1605202633225,1581,-0.24487305,0.81121826,-0.16607666
1605202633226,1582,-0.24487305,0.81121826,-0.16607666
1605202633231,1583,-0.011474609,1.2015991,0.2098999
1605202633232,1584,-0.011474609,1.2015991,0.2098999
1605202633233,1585,0.122802734,1.0560913,0.11053467
1605202633234,1586,0.122802734,1.0560913,0.11053467
1605202633234,1587,-0.14648438,0.9418335,-0.20587158
1605202633235,1588,-0.14648438,0.9418335,-0.20587158
1605202633236,1589,-0.24487305,0.81121826,-0.16607666
1605202633237,1590,-0.083740234,0.98114014,-0.035461426
1605202633237,1591,-0.083740234,0.98114014,-0.035461426
1605202633237,1592,-0.020263672,0.97698975,-0.061584473
1605202633238,1593,-0.020263672,0.97698975,-0.061584473
1605202633239,1594,0.08129883,0.9581909,-0.008361816
1605202633241,1595,0.049560547,0.9664917,0.03704834
1605202633241,1596,0.08129883,0.9581909,-0.008361816
1605202633243,1597,-0.036376953,0.98065186,-0.101379395
1605202633243,1598,0.049560547,0.9664917,0.03704834
1605202633245,1599,-0.011474609,1.2015991,0.2098999
1605202633245,1600,-0.036376953,0.98065186,-0.101379395
1605202633246,1601,-0.025390625,0.9904175,-0.062561035
1605202633247,1602,-0.009521484,1.0143433,-0.15777588
1605202633247,1603,0.122802734,1.0560913,0.11053467
1605202633247,1604,-0.025390625,0.9904175,-0.062561035
1605202633248,1605,-0.28051758,1.0233765,-0.28497314
1605202633248,1606,-0.009521484,1.0143433,-0.15777588
1605202633250,1607,-0.14648438,0.9418335,-0.20587158
1605202633250,1608,-0.28051758,1.0233765,-0.28497314
1605202633252,1609,-0.29370117,1.0048218,-0.4541626
1605202633253,1610,-0.083740234,0.98114014,-0.035461426
1605202633253,1611,-0.29370117,1.0048218,-0.4541626
1605202633253,1612,0.03173828,0.8602905,-0.1885376
1605202633254,1613,-0.020263672,0.97698975,-0.061584473
1605202633254,1614,0.03173828,0.8602905,-0.1885376
1605202633256,1615,-0.48632812,0.7626343,-0.2966919
1605202633256,1616,-0.48632812,0.7626343,-0.2966919
1605202633259,1617,0.08129883,0.9581909,-0.008361816
1605202633260,1618,-0.22143555,0.791687,-0.27911377
1605202633260,1619,-0.22143555,0.791687,-0.27911377
1605202633271,1620,-0.35205078,0.75457764,-0.29864502
1605202633271,1621,0.049560547,0.9664917,0.03704834
1605202633271,1622,-0.35205078,0.75457764,-0.29864502
1605202633273,1623,-0.036376953,0.98065186,-0.101379395
1605202633274,1624,-0.025390625,0.9904175,-0.062561035
1605202633275,1625,-0.009521484,1.0143433,-0.15777588
1605202633276,1626,-0.28051758,1.0233765,-0.28497314
1605202633277,1627,-0.29370117,1.0048218,-0.4541626
1605202633281,1628,0.03173828,0.8602905,-0.1885376
1605202633281,1629,-0.48632812,0.7626343,-0.2966919
1605202633285,1630,-0.22143555,0.791687,-0.27911377
1605202633287,1631,-0.35205078,0.75457764,-0.29864502
1605202635572,1632,-0.2980957,0.8324585,-0.48492432
1605202635575,1633,-0.2980957,0.8324585,-0.48492432
1605202635579,1634,-0.27148438,0.87786865,-0.37286377
1605202635583,1635,-0.27148438,0.87786865,-0.37286377
1605202635586,1636,-0.16015625,1.3273315,-0.40582275
1605202635591,1637,-0.16015625,1.3273315,-0.40582275
1605202635594,1638,-0.29907227,0.7081909,0.07562256
1605202635596,1639,-0.29907227,0.7081909,0.07562256
1605202635596,1640,0.33691406,1.1095581,0.066589355
1605202635596,1641,-0.2980957,0.8324585,-0.48492432
1605202635597,1642,-0.27148438,0.87786865,-0.37286377
1605202635597,1643,-0.03466797,0.97821045,-0.105041504
1605202635599,1644,-0.16015625,1.3273315,-0.40582275
1605202635599,1645,0.33691406,1.1095581,0.066589355
1605202635599,1646,0.0715332,0.8602905,0.17449951
1605202635601,1647,-0.29907227,0.7081909,0.07562256
1605202635602,1648,-0.03466797,0.97821045,-0.105041504
1605202635602,1649,0.18261719,1.0065308,0.039489746
1605202635602,1650,0.33691406,1.1095581,0.066589355
1605202635603,1651,0.0715332,0.8602905,0.17449951
1605202635604,1652,-0.03466797,0.97821045,-0.105041504
1605202635605,1653,0.18261719,1.0065308,0.039489746
1605202635606,1654,0.0715332,0.8602905,0.17449951
1605202635607,1655,0.091552734,0.961853,-0.05303955
1605202635608,1656,0.091552734,0.961853,-0.05303955
1605202635609,1657,0.18261719,1.0065308,0.039489746
1605202635609,1658,0.24316406,0.9142456,0.035339355
1605202635610,1659,0.24316406,0.9142456,0.035339355
1605202635611,1660,0.091552734,0.961853,-0.05303955
1605202635611,1661,0.1081543,0.993103,0.06097412
1605202635612,1662,0.1081543,0.993103,0.06097412
1605202635612,1663,0.24316406,0.9142456,0.035339355
1605202635614,1664,-0.37304688,1.1456909,0.1762085
1605202635614,1665,-0.37304688,1.1456909,0.1762085
1605202635614,1666,0.1081543,0.993103,0.06097412
1605202635615,1667,-0.16137695,0.98358154,-0.16021729
1605202635615,1668,-0.37304688,1.1456909,0.1762085
1605202635617,1669,-0.13916016,0.70965576,-0.41973877
1605202635618,1670,-0.16137695,0.98358154,-0.16021729
1605202635618,1671,-0.16137695,0.98358154,-0.16021729
1605202635618,1672,0.010009766,0.7699585,-0.35406494
1605202635620,1673,-0.13916016,0.70965576,-0.41973877
1605202635620,1674,-0.3178711,0.85614014,-0.30963135
1605202635620,1675,0.010009766,0.7699585,-0.35406494
1605202635621,1676,-0.11303711,0.9569702,-0.3098755
1605202635622,1677,-0.3178711,0.85614014,-0.30963135
1605202635622,1678,0.07080078,0.8703003,-0.34136963
1605202635623,1679,-0.11303711,0.9569702,-0.3098755
1605202635624,1680,-0.08496094,1.1276245,-0.18536377
1605202635625,1681,-0.13916016,0.70965576,-0.41973877
1605202635626,1682,0.07080078,0.8703003,-0.34136963
1605202635626,1683,-0.122802734,0.8961792,-0.030090332
1605202635627,1684,0.010009766,0.7699585,-0.35406494
1605202635627,1685,-0.08496094,1.1276245,-0.18536377
1605202635627,1686,-0.3178711,0.85614014,-0.30963135
1605202635629,1687,-0.122802734,0.8961792,-0.030090332
1605202635629,1688,-0.11303711,0.9569702,-0.3098755
1605202635631,1689,0.2890625,1.0072632,-0.07330322
1605202635631,1690,0.07080078,0.8703003,-0.34136963
1605202635632,1691,0.2890625,1.0072632,-0.07330322
1605202635632,1692,0.2006836,0.9945679,-0.026428223
1605202635633,1693,0.2006836,0.9945679,-0.026428223
1605202635634,1694,0.018554688,0.9154663,-0.02545166
1605202635634,1695,-0.08496094,1.1276245,-0.18536377
1605202635635,1696,0.018554688,0.9154663,-0.02545166
1605202635636,1697,-0.122802734,0.8961792,-0.030090332
1605202635637,1698,0.1574707,0.9225464,0.02923584
1605202635637,1699,0.1574707,0.9225464,0.02923584
1605202635638,1700,0.2890625,1.0072632,-0.07330322
1605202635639,1701,0.2006836,0.9945679,-0.026428223
1605202635640,1702,0.048339844,0.92303467,0.0211792
1605202635640,1703,0.048339844,0.92303467,0.0211792
1605202635640,1704,0.056396484,0.9935913,0.05706787
1605202635640,1705,0.056396484,0.9935913,0.05706787
1605202635642,1706,0.20166016,1.1461792,-0.010314941
1605202635642,1707,0.20166016,1.1461792,-0.010314941
1605202635643,1708,0.018554688,0.9154663,-0.02545166
1605202635644,1709,0.11645508,1.1749878,-0.06011963
1605202635645,1710,0.11645508,1.1749878,-0.06011963
1605202635645,1711,0.1574707,0.9225464,0.02923584
1605202635645,1712,-0.27197266,0.85858154,-0.081604004
1605202635647,1713,0.048339844,0.92303467,0.0211792
1605202635647,1714,-0.27197266,0.85858154,-0.081604004
1605202635647,1715,0.2927246,1.2521362,-0.0020141602
1605202635649,1716,0.056396484,0.9935913,0.05706787
1605202635649,1717,0.2927246,1.2521362,-0.0020141602
1605202635650,1718,0.17749023,0.8866577,-0.25323486
1605202635651,1719,0.20166016,1.1461792,-0.010314941
1605202635652,1720,0.17749023,0.8866577,-0.25323486
1605202635652,1721,-0.095214844,0.81414795,-0.23028564
1605202635653,1722,-0.095214844,0.81414795,-0.23028564
1605202635654,1723,0.11645508,1.1749878,-0.06011963
1605202635656,1724,-0.27197266,0.85858154,-0.081604004
1605202635657,1725,0.2927246,1.2521362,-0.0020141602
1605202635658,1726,0.17749023,0.8866577,-0.25323486
1605202635659,1727,-0.095214844,0.81414795,-0.23028564
1605202638155,1728,-0.027832031,0.72772217,-0.2925415
1605202638158,1729,-0.027832031,0.72772217,-0.2925415
1605202638162,1730,0.083984375,0.8383179,-0.29156494
1605202638165,1731,0.083984375,0.8383179,-0.29156494
1605202638168,1732,-0.21118164,0.9359741,0.027038574
1605202638172,1733,-0.21118164,0.9359741,0.027038574
1605202638176,1734,-0.18286133,1.0133667,-0.011047363
1605202638179,1735,-0.18286133,1.0133667,-0.011047363
1605202638183,1736,0.37280273,1.0578003,0.26605225
1605202638187,1737,0.37280273,1.0578003,0.26605225
1605202638187,1738,-0.027832031,0.72772217,-0.2925415
1605202638188,1739,-0.071777344,1.0031128,0.04925537
1605202638188,1740,-0.071777344,1.0031128,0.04925537
1605202638188,1741,0.083984375,0.8383179,-0.29156494
1605202638189,1742,-0.35913086,1.0631714,-0.2703247
1605202638190,1743,-0.21118164,0.9359741,0.027038574
1605202638191,1744,-0.0031738281,0.9384155,0.07293701
1605202638192,1745,-0.18286133,1.0133667,-0.011047363
1605202638195,1746,0.14794922,1.0004272,-0.008361816
1605202638195,1747,0.37280273,1.0578003,0.26605225
1605202638195,1748,-0.35913086,1.0631714,-0.2703247
1605202638196,1749,0.020019531,0.93743896,0.008972168
1605202638197,1750,-0.0031738281,0.9384155,0.07293701
1605202638197,1751,-0.071777344,1.0031128,0.04925537
1605202638198,1752,-0.037353516,0.99383545,-0.016662598
1605202638198,1753,0.14794922,1.0004272,-0.008361816
1605202638200,1754,-0.35913086,1.0631714,-0.2703247
1605202638200,1755,0.020019531,0.93743896,0.008972168
1605202638201,1756,-0.017822266,1.0006714,-0.13946533
1605202638204,1757,-0.037353516,0.99383545,-0.016662598
1605202638205,1758,0.041259766,1.0062866,-0.14678955
1605202638206,1759,-0.0031738281,0.9384155,0.07293701
1605202638207,1760,-0.017822266,1.0006714,-0.13946533
1605202638208,1761,0.14794922,1.0004272,-0.008361816
1605202638208,1762,-0.34643555,0.9113159,-0.2942505
1605202638208,1763,0.041259766,1.0062866,-0.14678955
1605202638209,1764,0.020019531,0.93743896,0.008972168
1605202638210,1765,-0.34643555,0.9113159,-0.2942505
1605202638212,1766,-0.27929688,1.1964722,-0.3008423
1605202638212,1767,-0.037353516,0.99383545,-0.016662598
1605202638214,1768,-0.27929688,1.1964722,-0.3008423
1605202638216,1769,-0.017822266,1.0006714,-0.13946533
1605202638216,1770,0.0107421875,0.8571167,-0.10089111
1605202638216,1771,0.0107421875,0.8571167,-0.10089111
1605202638217,1772,0.041259766,1.0062866,-0.14678955
1605202638218,1773,-0.34643555,0.9113159,-0.2942505
1605202638220,1774,-0.3544922,0.8134155,-0.29766846
1605202638220,1775,-0.3544922,0.8134155,-0.29766846
1605202638221,1776,-0.27929688,1.1964722,-0.3008423
1605202638222,1777,0.0107421875,0.8571167,-0.10089111
1605202638223,1778,-0.18603516,0.76434326,-0.32354736
1605202638224,1779,-0.18603516,0.76434326,-0.32354736
1605202638226,1780,-0.3544922,0.8134155,-0.29766846
1605202638226,1781,-0.33447266,0.72991943,-0.27789307
1605202638228,1782,-0.33447266,0.72991943,-0.27789307
1605202638228,1783,-0.18603516,0.76434326,-0.32354736
1605202638228,1784,-0.36572266,0.8864136,-0.5540161
1605202638229,1785,-0.33447266,0.72991943,-0.27789307
1605202638229,1786,-0.38891602,0.93621826,-0.29205322
1605202638230,1787,-0.36572266,0.8864136,-0.5540161
1605202638230,1788,-0.36572266,0.8864136,-0.5540161
1605202638231,1789,-0.38891602,0.93621826,-0.29205322
1605202638231,1790,-0.26635742,1.1105347,-0.3267212
1605202638231,1791,-0.38891602,0.93621826,-0.29205322
1605202638232,1792,0.028808594,0.869812,-0.019592285
1605202638232,1793,-0.26635742,1.1105347,-0.3267212
1605202638233,1794,0.16821289,1.0975952,-0.0115356445
1605202638233,1795,0.028808594,0.869812,-0.019592285
1605202638233,1796,-0.26635742,1.1105347,-0.3267212
1605202638235,1797,-0.18676758,0.8703003,0.1437378
1605202638235,1798,0.16821289,1.0975952,-0.0115356445
1605202638235,1799,0.028808594,0.869812,-0.019592285
1605202638235,1800,0.26782227,0.90911865,0.26678467
1605202638236,1801,0.16821289,1.0975952,-0.0115356445
1605202638236,1802,-0.18676758,0.8703003,0.1437378
1605202638237,1803,0.25732422,0.9435425,0.12884521
1605202638237,1804,-0.18676758,0.8703003,0.1437378
1605202638238,1805,0.13427734,0.91864014,0.0067749023
1605202638238,1806,0.26782227,0.90911865,0.26678467
1605202638239,1807,0.25732422,0.9435425,0.12884521
1605202638239,1808,0.2626953,0.94866943,0.050720215
1605202638239,1809,0.26782227,0.90911865,0.26678467
1605202638240,1810,0.13427734,0.91864014,0.0067749023
1605202638240,1811,0.25732422,0.9435425,0.12884521
1605202638241,1812,-9.765625E-4,0.9411011,0.09661865
1605202638241,1813,0.2626953,0.94866943,0.050720215
1605202638241,1814,-0.20898438,1.3439331,0.18304443
1605202638241,1815,0.13427734,0.91864014,0.0067749023
1605202638242,1816,-9.765625E-4,0.9411011,0.09661865
1605202638243,1817,0.2626953,0.94866943,0.050720215
1605202638243,1818,-0.1159668,1.0814819,-3.0517578E-4
1605202638243,1819,-0.20898438,1.3439331,0.18304443
1605202638244,1820,-9.765625E-4,0.9411011,0.09661865
1605202638246,1821,-0.20898438,1.3439331,0.18304443
1605202638246,1822,-0.1159668,1.0814819,-3.0517578E-4
1605202638247,1823,-0.1159668,1.0814819,-3.0517578E-4
1605202640740,1824,-0.30541992,0.5363159,-0.15386963
1605202640740,1825,-0.30541992,0.5363159,-0.15386963
1605202640740,1826,-0.30541992,0.5363159,-0.15386963
1605202640742,1827,-0.2446289,0.82684326,-0.4981079
1605202640747,1828,-0.2446289,0.82684326,-0.4981079
1605202640748,1829,-0.2446289,0.82684326,-0.4981079
1605202640748,1830,-0.25073242,0.7716675,-0.44732666
1605202640751,1831,-0.25073242,0.7716675,-0.44732666
1605202640756,1832,-0.39331055,0.76483154,-0.40948486
1605202640758,1833,-0.25073242,0.7716675,-0.44732666
1605202640758,1834,-0.39331055,0.76483154,-0.40948486
1605202640761,1835,-0.39331055,0.76483154,-0.40948486
1605202640764,1836,-0.33789062,0.82489014,-0.33551025
1605202640767,1837,-0.33789062,0.82489014,-0.33551025
1605202640770,1838,-0.27270508,0.82366943,-0.395813
1605202640774,1839,-0.27270508,0.82366943,-0.395813
1605202640779,1840,-0.265625,1.2816772,-0.15899658
1605202640779,1841,-0.33789062,0.82489014,-0.33551025
1605202640780,1842,-0.265625,1.2816772,-0.15899658
1605202640782,1843,-0.27270508,0.82366943,-0.395813
1605202640782,1844,-0.22045898,0.7494507,-0.19927979
1605202640783,1845,-0.22045898,0.7494507,-0.19927979
1605202640784,1846,-0.265625,1.2816772,-0.15899658
1605202640785,1847,0.31420898,1.0932007,0.093933105
1605202640786,1848,-0.22045898,0.7494507,-0.19927979
1605202640787,1849,0.31420898,1.0932007,0.093933105
1605202640787,1850,0.07055664,0.9406128,-0.14019775
1605202640787,1851,0.31420898,1.0932007,0.093933105
1605202640790,1852,0.07055664,0.9406128,-0.14019775
1605202640790,1853,0.07055664,0.9406128,-0.14019775
1605202640790,1854,-0.08300781,0.9069214,-0.08477783
1605202640791,1855,-0.08300781,0.9069214,-0.08477783
1605202640791,1856,-0.08300781,0.9069214,-0.08477783
1605202640791,1857,0.1821289,0.9779663,0.026550293
1605202640793,1858,0.1821289,0.9779663,0.026550293
1605202640794,1859,0.05053711,0.9137573,-0.077697754
1605202640795,1860,0.05053711,0.9137573,-0.077697754
1605202640795,1861,0.07446289,0.9393921,-0.034484863
1605202640796,1862,0.07446289,0.9393921,-0.034484863
1605202640797,1863,0.13964844,0.9281616,-0.019104004
1605202640798,1864,0.16967773,1.2423706,0.014831543
1605202640799,1865,0.13964844,0.9281616,-0.019104004
1605202640800,1866,0.1821289,0.9779663,0.026550293
1605202640800,1867,-0.06689453,1.107605,-0.078186035
1605202640801,1868,0.05053711,0.9137573,-0.077697754
1605202640801,1869,-0.026367188,0.996521,-0.12945557
1605202640802,1870,0.38208008,1.1583862,-0.11553955
1605202640802,1871,0.16967773,1.2423706,0.014831543
1605202640803,1872,-0.06225586,0.7526245,-0.31134033
1605202640804,1873,-0.06689453,1.107605,-0.078186035
1605202640804,1874,0.07446289,0.9393921,-0.034484863
1605202640805,1875,-0.0546875,0.6950073,-0.2341919
1605202640806,1876,-0.026367188,0.996521,-0.12945557
1605202640806,1877,0.13964844,0.9281616,-0.019104004
1605202640807,1878,0.18188477,0.93255615,-0.21002197
1605202640811,1879,0.38208008,1.1583862,-0.11553955
1605202640812,1880,0.16967773,1.2423706,0.014831543
1605202640816,1881,-0.06225586,0.7526245,-0.31134033
1605202640817,1882,-0.28735352,0.85736084,-0.07354736
1605202640818,1883,-0.0546875,0.6950073,-0.2341919
1605202640819,1884,0.17285156,1.0497437,-0.09918213
1605202640819,1885,0.26879883,1.072937,0.33416748
1605202640819,1886,0.18188477,0.93255615,-0.21002197
1605202640819,1887,-0.08081055,0.9430542,0.1930542
1605202640819,1888,-0.4255371,1.1061401,-0.08868408
1605202640820,1889,-0.28735352,0.85736084,-0.07354736
1605202640820,1890,-0.06713867,0.9437866,-0.10650635
1605202640820,1891,0.17285156,1.0497437,-0.09918213
1605202640820,1892,0.19946289,0.98480225,-0.097961426
1605202640820,1893,0.26879883,1.072937,0.33416748
1605202640821,1894,-0.06689453,1.107605,-0.078186035
1605202640821,1895,-0.026367188,0.996521,-0.12945557
1605202640822,1896,0.09423828,0.9540405,-0.0032348633
1605202640823,1897,0.38208008,1.1583862,-0.11553955
1605202640823,1898,-0.0068359375,1.0026245,-0.07989502
1605202640824,1899,-0.08081055,0.9430542,0.1930542
1605202640825,1900,-0.014160156,1.0331421,-0.18341064
1605202640826,1901,-0.06225586,0.7526245,-0.31134033
1605202640826,1902,-0.4255371,1.1061401,-0.08868408
1605202640826,1903,-0.06713867,0.9437866,-0.10650635
1605202640827,1904,-0.0546875,0.6950073,-0.2341919
1605202640829,1905,0.18188477,0.93255615,-0.21002197
1605202640830,1906,-0.28735352,0.85736084,-0.07354736
1605202640831,1907,0.19946289,0.98480225,-0.097961426
1605202640831,1908,0.09423828,0.9540405,-0.0032348633
1605202640832,1909,0.17285156,1.0497437,-0.09918213
1605202640833,1910,-0.0068359375,1.0026245,-0.07989502
1605202640833,1911,0.26879883,1.072937,0.33416748
1605202640835,1912,-0.014160156,1.0331421,-0.18341064
1605202640835,1913,-0.08081055,0.9430542,0.1930542
1605202640836,1914,-0.4255371,1.1061401,-0.08868408
1605202640837,1915,-0.06713867,0.9437866,-0.10650635
1605202640837,1916,0.19946289,0.98480225,-0.097961426
1605202640838,1917,0.09423828,0.9540405,-0.0032348633
1605202640839,1918,-0.0068359375,1.0026245,-0.07989502
1605202640841,1919,-0.014160156,1.0331421,-0.18341064
1605202643321,1920,-0.23486328,0.9550171,-0.32818604
1605202643324,1921,-0.23486328,0.9550171,-0.32818604
1605202643326,1922,-0.1418457,1.0980835,-0.47052002
1605202643329,1923,-0.1418457,1.0980835,-0.47052002
1605202643333,1924,0.0021972656,0.8624878,-0.10284424
1605202643337,1925,0.0021972656,0.8624878,-0.10284424
1605202643340,1926,-0.4489746,0.80926514,-0.32452393
1605202643342,1927,-0.4489746,0.80926514,-0.32452393
1605202643343,1928,-0.17504883,0.8241577,-0.35943604
1605202643344,1929,-0.23486328,0.9550171,-0.32818604
1605202643344,1930,-0.21923828,0.75042725,-0.28399658
1605202643345,1931,-0.1418457,1.0980835,-0.47052002
1605202643346,1932,-0.17504883,0.8241577,-0.35943604
1605202643347,1933,0.0021972656,0.8624878,-0.10284424
1605202643349,1934,-0.4489746,0.80926514,-0.32452393
1605202643350,1935,-0.21923828,0.75042725,-0.28399658
1605202643350,1936,-0.17504883,0.8241577,-0.35943604
1605202643351,1937,-0.3100586,0.8053589,-0.45147705
1605202643352,1938,-0.21923828,0.75042725,-0.28399658
1605202643353,1939,-0.3100586,0.8053589,-0.45147705
1605202643354,1940,-0.31958008,0.8878784,-0.4619751
1605202643355,1941,-0.3100586,0.8053589,-0.45147705
1605202643355,1942,-0.31958008,0.8878784,-0.4619751
1605202643356,1943,-0.15405273,1.2931519,-0.4414673
1605202643357,1944,-0.31958008,0.8878784,-0.4619751
1605202643357,1945,-0.39282227,0.6893921,-0.020324707
1605202643357,1946,-0.15405273,1.2931519,-0.4414673
1605202643358,1947,-0.15405273,1.2931519,-0.4414673
1605202643359,1948,0.39257812,1.1620483,0.12322998
1605202643359,1949,-0.39282227,0.6893921,-0.020324707
1605202643360,1950,-0.09814453,0.9640503,-0.16558838
1605202643361,1951,0.39257812,1.1620483,0.12322998
1605202643361,1952,-0.39282227,0.6893921,-0.020324707
1605202643362,1953,-0.09814453,0.9640503,-0.16558838
1605202643362,1954,0.22631836,0.9335327,0.17694092
1605202643362,1955,0.39257812,1.1620483,0.12322998
1605202643364,1956,0.22631836,0.9335327,0.17694092
1605202643364,1957,0.21240234,0.9020386,0.09857178
1605202643365,1958,-0.09814453,0.9640503,-0.16558838
1605202643365,1959,0.21240234,0.9020386,0.09857178
1605202643365,1960,0.1730957,0.95428467,-0.013000488
1605202643366,1961,0.22631836,0.9335327,0.17694092
1605202643367,1962,0.1730957,0.95428467,-0.013000488
1605202643367,1963,0.1508789,0.9450073,0.04949951
1605202643367,1964,0.1508789,0.9450073,0.04949951
1605202643368,1965,0.21240234,0.9020386,0.09857178
1605202643369,1966,0.122558594,1.0187378,0.06121826
1605202643369,1967,0.1730957,0.95428467,-0.013000488
1605202643370,1968,0.122558594,1.0187378,0.06121826
1605202643371,1969,0.1508789,0.9450073,0.04949951
1605202643371,1970,-0.15942383,1.2716675,0.18548584
1605202643371,1971,-0.15942383,1.2716675,0.18548584
1605202643373,1972,0.122558594,1.0187378,0.06121826
1605202643373,1973,0.006591797,0.79071045,-0.3189087
1605202643373,1974,0.006591797,0.79071045,-0.3189087
1605202643374,1975,-0.15942383,1.2716675,0.18548584
1605202643375,1976,-0.38061523,0.52557373,-0.40826416
1605202643375,1977,-0.38061523,0.52557373,-0.40826416
1605202643381,1978,0.006591797,0.79071045,-0.3189087
1605202643381,1979,-0.11010742,0.789978,-0.2312622
1605202643382,1980,-0.38061523,0.52557373,-0.40826416
1605202643382,1981,-0.11010742,0.789978,-0.2312622
1605202643382,1982,-0.11010742,0.789978,-0.2312622
1605202643383,1983,-0.091796875,0.8751831,-0.30743408
1605202643383,1984,-0.091796875,0.8751831,-0.30743408
1605202643383,1985,-0.091796875,0.8751831,-0.30743408
1605202643386,1986,0.0048828125,1.0282593,-0.2617798
1605202643387,1987,0.0048828125,1.0282593,-0.2617798
1605202643387,1988,0.14135742,0.96307373,0.018249512
1605202643389,1989,-0.1887207,1.2086792,-0.2144165
1605202643391,1990,0.0048828125,1.0282593,-0.2617798
1605202643392,1991,0.14135742,0.96307373,0.018249512
1605202643392,1992,0.22021484,0.8825073,-0.01763916
1605202643393,1993,-0.1887207,1.2086792,-0.2144165
1605202643393,1994,0.14135742,0.96307373,0.018249512
1605202643396,1995,0.36206055,1.0001831,-0.09942627
1605202643397,1996,-0.1887207,1.2086792,-0.2144165
1605202643397,1997,0.22021484,0.8825073,-0.01763916
1605202643397,1998,-0.0048828125,0.95111084,-0.17340088
1605202643397,1999,0.22021484,0.8825073,-0.01763916
1605202643397,2000,0.36206055,1.0001831,-0.09942627
1605202643397,2001,0.12426758,0.8834839,0.020446777
1605202643397,2002,0.36206055,1.0001831,-0.09942627
1605202643398,2003,-0.0048828125,0.95111084,-0.17340088
1605202643400,2004,-0.0048828125,0.95111084,-0.17340088
1605202643401,2005,0.12426758,0.8834839,0.020446777
1605202643401,2006,0.053710938,0.9401245,0.026794434
1605202643401,2007,0.053710938,0.9401245,0.026794434
1605202643401,2008,0.12426758,0.8834839,0.020446777
1605202643401,2009,0.005859375,0.9401245,0.10687256
1605202643401,2010,0.005859375,0.9401245,0.10687256
1605202643403,2011,0.053710938,0.9401245,0.026794434
1605202643403,2012,0.16723633,1.0700073,0.014343262
1605202643403,2013,0.16723633,1.0700073,0.014343262
1605202643403,2014,0.005859375,0.9401245,0.10687256
1605202643404,2015,0.16723633,1.0700073,0.014343262
1605202645907,2016,0.20629883,1.1625366,-0.09112549
1605202645911,2017,0.20629883,1.1625366,-0.09112549
1605202645914,2018,0.027832031,0.99261475,-0.09527588
1605202645918,2019,0.027832031,0.99261475,-0.09527588
1605202645922,2020,0.1496582,1.0160522,-0.10845947
1605202645926,2021,0.1496582,1.0160522,-0.10845947
1605202645930,2022,0.38208008,1.2606812,-0.06915283
1605202645932,2023,0.38208008,1.2606812,-0.06915283
1605202645936,2024,-0.061035156,0.9567261,-0.19342041
1605202645939,2025,-0.061035156,0.9567261,-0.19342041
1605202645943,2026,0.013671875,0.6781616,-0.22271729
1605202645944,2027,0.013671875,0.6781616,-0.22271729
1605202645945,2028,-0.0847168,0.4315796,-0.2559204
1605202645946,2029,-0.0847168,0.4315796,-0.2559204
1605202645947,2030,-0.12597656,0.979187,-0.29327393
1605202645949,2031,-0.12597656,0.979187,-0.29327393
1605202645949,2032,0.20629883,1.1625366,-0.09112549
1605202645950,2033,-0.63012695,1.0914917,0.3287964
1605202645950,2034,0.027832031,0.99261475,-0.09527588
1605202645951,2035,-0.017333984,1.2304077,-0.10064697
1605202645952,2036,0.1496582,1.0160522,-0.10845947
1605202645956,2037,0.40478516,0.9779663,0.20428467
1605202645956,2038,0.38208008,1.2606812,-0.06915283
1605202645957,2039,-0.63012695,1.0914917,0.3287964
1605202645958,2040,-0.30908203,1.0221558,-0.26519775
1605202645958,2041,-0.061035156,0.9567261,-0.19342041
1605202645958,2042,-0.017333984,1.2304077,-0.10064697
1605202645958,2043,0.11645508,0.90301514,-0.11383057
1605202645959,2044,0.40478516,0.9779663,0.20428467
1605202645960,2045,0.19921875,0.9525757,0.11077881
1605202645961,2046,-0.30908203,1.0221558,-0.26519775
1605202645962,2047,0.035888672,0.94647217,0.042907715
1605202645963,2048,0.11645508,0.90301514,-0.11383057
1605202645964,2049,0.037109375,0.93304443,0.09954834
1605202645965,2050,0.19921875,0.9525757,0.11077881
1605202645967,2051,-0.008544922,1.0089722,-0.159729
1605202645967,2052,0.013671875,0.6781616,-0.22271729
1605202645967,2053,0.035888672,0.94647217,0.042907715
1605202645967,2054,-0.0847168,0.4315796,-0.2559204
1605202645969,2055,0.08129883,0.94207764,-0.11505127
1605202645969,2056,0.037109375,0.93304443,0.09954834
1605202645969,2057,-0.12597656,0.979187,-0.29327393
1605202645970,2058,0.14111328,0.9413452,-0.039855957
1605202645971,2059,-0.008544922,1.0089722,-0.159729
1605202645971,2060,-0.63012695,1.0914917,0.3287964
1605202645972,2061,0.12548828,0.9545288,-0.0960083
1605202645972,2062,0.08129883,0.94207764,-0.11505127
1605202645972,2063,-0.017333984,1.2304077,-0.10064697
1605202645974,2064,-0.036376953,0.99090576,-0.14190674
1605202645974,2065,0.14111328,0.9413452,-0.039855957
1605202645975,2066,0.40478516,0.9779663,0.20428467
1605202645975,2067,0.018554688,1.1654663,-0.10064697
1605202645975,2068,0.12548828,0.9545288,-0.0960083
1605202645978,2069,-0.30908203,1.0221558,-0.26519775
1605202645978,2070,-0.036376953,0.99090576,-0.14190674
1605202645978,2071,-0.2006836,1.0192261,-0.190979
1605202645979,2072,-0.07446289,1.1002808,-0.13482666
1605202645979,2073,0.11645508,0.90301514,-0.11383057
1605202645980,2074,0.018554688,1.1654663,-0.10064697
1605202645981,2075,-0.115478516,0.8746948,-0.09820557
1605202645981,2076,0.19921875,0.9525757,0.11077881
1605202645982,2077,-0.2006836,1.0192261,-0.190979
1605202645983,2078,-0.07446289,1.1002808,-0.13482666
1605202645983,2079,0.035888672,0.94647217,0.042907715
1605202645984,2080,-0.28979492,0.7711792,-0.31329346
1605202645984,2081,0.037109375,0.93304443,0.09954834
1605202645984,2082,-0.24633789,0.6486206,-0.34454346
1605202645986,2083,-0.115478516,0.8746948,-0.09820557
1605202645986,2084,-0.008544922,1.0089722,-0.159729
1605202645987,2085,-0.15625,0.7509155,-0.4661255
1605202645988,2086,-0.28979492,0.7711792,-0.31329346
1605202645988,2087,0.08129883,0.94207764,-0.11505127
1605202645989,2088,-0.19750977,0.94940186,-0.5796509
1605202645989,2089,0.14111328,0.9413452,-0.039855957
1605202645990,2090,-0.056884766,1.3031616,-0.32965088
1605202645990,2091,-0.24633789,0.6486206,-0.34454346
1605202645992,2092,0.12548828,0.9545288,-0.0960083
1605202645994,2093,-0.28173828,0.76483154,0.048034668
1605202645994,2094,-0.15625,0.7509155,-0.4661255
1605202645994,2095,-0.036376953,0.99090576,-0.14190674
1605202645995,2096,0.22998047,1.043396,0.0848999
1605202645996,2097,-0.19750977,0.94940186,-0.5796509
1605202645996,2098,0.018554688,1.1654663,-0.10064697
1605202645998,2099,-0.056884766,1.3031616,-0.32965088
1605202645998,2100,-0.2006836,1.0192261,-0.190979
1605202645999,2101,-0.28173828,0.76483154,0.048034668
1605202646000,2102,-0.07446289,1.1002808,-0.13482666
1605202646000,2103,0.22998047,1.043396,0.0848999
1605202646001,2104,-0.115478516,0.8746948,-0.09820557
1605202646002,2105,-0.28979492,0.7711792,-0.31329346
1605202646003,2106,-0.24633789,0.6486206,-0.34454346
1605202646005,2107,-0.15625,0.7509155,-0.4661255
1605202646006,2108,-0.19750977,0.94940186,-0.5796509
1605202646006,2109,-0.056884766,1.3031616,-0.32965088
1605202646008,2110,-0.28173828,0.76483154,0.048034668
1605202646009,2111,0.22998047,1.043396,0.0848999
1605202648485,2112,0.13574219,0.9989624,-0.12310791
1605202648485,2113,0.13574219,0.9989624,-0.12310791
1605202648486,2114,0.13574219,0.9989624,-0.12310791
1605202648486,2115,0.076416016,0.90301514,0.14666748
1605202648487,2116,0.076416016,0.90301514,0.14666748
1605202648487,2117,0.15844727,1.008728,-0.0044555664
1605202648488,2118,0.15844727,1.008728,-0.0044555664
1605202648488,2119,0.045166016,1.0343628,-0.024230957
1605202648493,2120,0.076416016,0.90301514,0.14666748
1605202648494,2121,0.19042969,0.9972534,0.18450928
1605202648494,2122,0.045166016,1.0343628,-0.024230957
1605202648494,2123,0.15844727,1.008728,-0.0044555664
1605202648494,2124,0.19042969,0.9972534,0.18450928
1605202648494,2125,0.045166016,1.0343628,-0.024230957
1605202648496,2126,-0.12890625,1.0065308,-0.026184082
1605202648496,2127,-0.12890625,1.0065308,-0.026184082
1605202648497,2128,-0.13989258,0.88739014,-0.2642212
1605202648497,2129,-0.13989258,0.88739014,-0.2642212
1605202648499,2130,0.19042969,0.9972534,0.18450928
1605202648499,2131,0.072265625,0.7640991,-0.3821411
1605202648500,2132,0.072265625,0.7640991,-0.3821411
1605202648501,2133,-0.12890625,1.0065308,-0.026184082
1605202648501,2134,-0.09033203,0.74261475,-0.5059204
1605202648501,2135,-0.09033203,0.74261475,-0.5059204
1605202648501,2136,-0.13989258,0.88739014,-0.2642212
1605202648502,2137,-0.3564453,0.87005615,-0.39678955
1605202648503,2138,0.072265625,0.7640991,-0.3821411
1605202648503,2139,-0.18652344,0.836853,-0.33648682
1605202648503,2140,-0.3564453,0.87005615,-0.39678955
1605202648504,2141,-0.09033203,0.74261475,-0.5059204
1605202648504,2142,-0.18652344,0.836853,-0.33648682
1605202648505,2143,-0.3564453,0.87005615,-0.39678955
1605202648506,2144,-0.14160156,0.8287964,-0.4529419
1605202648506,2145,-0.14160156,0.8287964,-0.4529419
1605202648506,2146,-0.18652344,0.836853,-0.33648682
1605202648508,2147,-0.17944336,1.2550659,-0.27520752
1605202648508,2148,-0.14160156,0.8287964,-0.4529419
1605202648509,2149,-0.17944336,1.2550659,-0.27520752
1605202648509,2150,-0.17944336,1.2550659,-0.27520752
1605202648509,2151,-0.111083984,0.75164795,0.0018920898
1605202648509,2152,-0.111083984,0.75164795,0.0018920898
1605202648510,2153,-0.111083984,0.75164795,0.0018920898
1605202648510,2154,0.40844727,1.0883179,-5.493164E-4
1605202648510,2155,0.40844727,1.0883179,-5.493164E-4
1605202648511,2156,0.40844727,1.0883179,-5.493164E-4
1605202648511,2157,0.18237305,0.9159546,-0.10772705
1605202648511,2158,0.18237305,0.9159546,-0.10772705
1605202648511,2159,-0.026611328,0.9105835,-0.070617676
1605202648511,2160,0.18237305,0.9159546,-0.10772705
1605202648512,2161,-0.026611328,0.9105835,-0.070617676
1605202648512,2162,-0.026611328,0.9105835,-0.070617676
1605202648512,2163,0.2253418,0.9242554,0.0072631836
1605202648513,2164,0.2253418,0.9242554,0.0072631836
1605202648513,2165,0.18554688,0.93865967,-0.058166504
1605202648514,2166,0.2253418,0.9242554,0.0072631836
1605202648514,2167,0.12890625,1.0082397,-0.050598145
1605202648515,2168,0.18554688,0.93865967,-0.058166504
1605202648515,2169,0.18554688,0.93865967,-0.058166504
1605202648515,2170,0.09326172,1.2289429,-0.04473877
1605202648515,2171,-0.09692383,1.0473022,-0.11065674
1605202648516,2172,0.36816406,1.25531,-0.09869385
1605202648516,2173,0.107910156,0.80584717,-0.16265869
1605202648517,2174,-0.0769043,0.70477295,-0.16973877
1605202648517,2175,0.12890625,1.0082397,-0.050598145
1605202648518,2176,0.103271484,0.79315186,-0.21051025
1605202648518,2177,0.12890625,1.0082397,-0.050598145
1605202648519,2178,0.09326172,1.2289429,-0.04473877
1605202648519,2179,-0.12792969,1.0370483,0.11517334
1605202648519,2180,0.09326172,1.2289429,-0.04473877
1605202648520,2181,-0.09692383,1.0473022,-0.11065674
1605202648520,2182,-0.34057617,0.89056396,-0.27105713
1605202648520,2183,0.36816406,1.25531,-0.09869385
1605202648521,2184,0.43920898,1.1559448,0.42132568
1605202648521,2185,-0.09692383,1.0473022,-0.11065674
1605202648521,2186,-0.05834961,1.024353,-0.1663208
1605202648522,2187,0.107910156,0.80584717,-0.16265869
1605202648522,2188,0.36816406,1.25531,-0.09869385
1605202648523,2189,-0.25024414,0.97991943,-0.04425049
1605202648523,2190,0.107910156,0.80584717,-0.16265869
1605202648523,2191,-0.0769043,0.70477295,-0.16973877
1605202648523,2192,-0.03491211,0.9454956,-0.06451416
1605202648525,2193,0.103271484,0.79315186,-0.21051025
1605202648525,2194,-0.0769043,0.70477295,-0.16973877
1605202648525,2195,-0.12792969,1.0370483,0.11517334
1605202648526,2196,0.103271484,0.79315186,-0.21051025
1605202648526,2197,-0.34057617,0.89056396,-0.27105713
1605202648526,2198,-0.12792969,1.0370483,0.11517334
1605202648527,2199,0.43920898,1.1559448,0.42132568
1605202648527,2200,-0.34057617,0.89056396,-0.27105713
1605202648527,2201,-0.05834961,1.024353,-0.1663208
1605202648528,2202,0.43920898,1.1559448,0.42132568
1605202648528,2203,-0.25024414,0.97991943,-0.04425049
1605202648528,2204,-0.05834961,1.024353,-0.1663208
1605202648529,2205,-0.03491211,0.9454956,-0.06451416
1605202648529,2206,-0.25024414,0.97991943,-0.04425049
1605202648530,2207,-0.03491211,0.9454956,-0.06451416
1605202651071,2208,0.13720703,1.0211792,-0.070617676
1605202651075,2209,0.13720703,1.0211792,-0.070617676
1605202651079,2210,0.0075683594,0.9581909,-0.05670166
1605202651080,2211,0.13720703,1.0211792,-0.070617676
1605202651080,2212,0.0075683594,0.9581909,-0.05670166
1605202651083,2213,-0.1352539,0.9996948,0.0138549805
1605202651087,2214,-0.1352539,0.9996948,0.0138549805
1605202651089,2215,0.044677734,1.0702515,-0.12677002
1605202651090,2216,0.044677734,1.0702515,-0.12677002
1605202651092,2217,0.0075683594,0.9581909,-0.05670166
1605202651094,2218,-0.56884766,0.9491577,-0.49053955
1605202651095,2219,-0.1352539,0.9996948,0.0138549805
1605202651096,2220,-0.24682617,0.91082764,-0.44488525
1605202651097,2221,0.044677734,1.0702515,-0.12677002
1605202651098,2222,-0.23950195,0.5673218,-0.11480713
1605202651099,2223,-0.56884766,0.9491577,-0.49053955
1605202651100,2224,-0.31103516,0.75579834,-0.41070557
1605202651101,2225,-0.24682617,0.91082764,-0.44488525
1605202651102,2226,-0.41601562,0.7999878,-0.3027954
1605202651103,2227,-0.23950195,0.5673218,-0.11480713
1605202651105,2228,-0.41430664,0.8571167,-0.4932251
1605202651105,2229,-0.31103516,0.75579834,-0.41070557
1605202651106,2230,-0.41601562,0.7999878,-0.3027954
1605202651107,2231,-0.56884766,0.9491577,-0.49053955
1605202651107,2232,-0.34326172,1.121521,-0.2781372
1605202651111,2233,-0.41430664,0.8571167,-0.4932251
1605202651111,2234,-0.3564453,0.8156128,-0.23834229
1605202651112,2235,-0.24682617,0.91082764,-0.44488525
1605202651112,2236,-0.21850586,0.97869873,-0.1572876
1605202651112,2237,-0.34326172,1.121521,-0.2781372
1605202651113,2238,-0.13574219,0.9579468,-0.22735596
1605202651113,2239,-0.23950195,0.5673218,-0.11480713
1605202651113,2240,-0.3564453,0.8156128,-0.23834229
1605202651113,2241,-0.17993164,0.99212646,-0.19903564
1605202651113,2242,-0.21850586,0.97869873,-0.1572876
1605202651115,2243,-0.028564453,0.96307373,-0.15655518
1605202651115,2244,-0.13574219,0.9579468,-0.22735596
1605202651116,2245,-0.31103516,0.75579834,-0.41070557
1605202651117,2246,-0.17993164,0.99212646,-0.19903564
1605202651117,2247,-0.41601562,0.7999878,-0.3027954
1605202651117,2248,-0.18701172,0.94451904,-0.18927002
1605202651118,2249,-0.41430664,0.8571167,-0.4932251
1605202651118,2250,-0.09350586,0.93304443,-0.12579346
1605202651119,2251,-0.34326172,1.121521,-0.2781372
1605202651120,2252,-0.028564453,0.96307373,-0.15655518
1605202651121,2253,-0.018554688,0.99871826,-0.034240723
1605202651122,2254,-0.18701172,0.94451904,-0.18927002
1605202651123,2255,-0.3564453,0.8156128,-0.23834229
1605202651123,2256,-0.07519531,0.9574585,-0.06085205
1605202651124,2257,-0.09350586,0.93304443,-0.12579346
1605202651124,2258,-0.0126953125,1.0377808,-0.28448486
1605202651125,2259,-0.21850586,0.97869873,-0.1572876
1605202651125,2260,0.042236328,0.668396,-0.109436035
1605202651126,2261,-0.018554688,0.99871826,-0.034240723
1605202651126,2262,-0.13574219,0.9579468,-0.22735596
1605202651128,2263,0.22583008,0.66278076,-0.3394165
1605202651128,2264,-0.07519531,0.9574585,-0.06085205
1605202651128,2265,-0.17993164,0.99212646,-0.19903564
1605202651129,2266,-0.13916016,1.7787476,-0.24615479
1605202651129,2267,-0.0126953125,1.0377808,-0.28448486
1605202651129,2268,-0.028564453,0.96307373,-0.15655518
1605202651131,2269,-0.18701172,0.94451904,-0.18927002
1605202651131,2270,0.042236328,0.668396,-0.109436035
1605202651131,2271,-0.6323242,0.70843506,-0.35162354
1605202651133,2272,-0.09350586,0.93304443,-0.12579346
1605202651133,2273,0.22583008,0.66278076,-0.3394165
1605202651133,2274,0.45288086,1.0036011,-0.36383057
1605202651135,2275,-0.018554688,0.99871826,-0.034240723
1605202651135,2276,-0.13916016,1.7787476,-0.24615479
1605202651135,2277,0.0073242188,0.58636475,-0.53692627
1605202651137,2278,-0.6323242,0.70843506,-0.35162354
1605202651137,2279,-0.07519531,0.9574585,-0.06085205
1605202651137,2280,-0.037353516,0.6769409,-0.22149658
1605202651138,2281,0.45288086,1.0036011,-0.36383057
1605202651140,2282,-0.0126953125,1.0377808,-0.28448486
1605202651140,2283,-0.34155273,1.0394897,-0.3250122
1605202651140,2284,0.042236328,0.668396,-0.109436035
1605202651140,2285,0.0073242188,0.58636475,-0.53692627
1605202651141,2286,-0.19262695,1.1432495,-0.05670166
1605202651142,2287,0.22583008,0.66278076,-0.3394165
1605202651143,2288,-0.037353516,0.6769409,-0.22149658
1605202651143,2289,0.2199707,1.0131226,-0.029846191
