# Sensor position: Wrist
# Sensor side: Right
# Activity type: Movement
# Activity code: 9
# Subject id: s1655560
timestamp,seq,accel_x,accel_y,accel_z
1605203062391,0,0.5654297,-0.24615479,0.696228
1605203062391,1,0.5654297,-0.24615479,0.696228
1605203062391,2,0.5654297,-0.24615479,0.696228
1605203062392,3,0.5625,-0.24273682,0.7086792
1605203062392,4,0.5625,-0.24273682,0.7086792
1605203062393,5,0.5566406,-0.23150635,0.7572632
1605203062393,6,0.5566406,-0.23150635,0.7572632
1605203062394,7,0.5625,-0.24273682,0.7086792
1605203062394,8,0.5686035,-0.26275635,0.7440796
1605203062395,9,0.5686035,-0.26275635,0.7440796
1605203062395,10,0.5566406,-0.23150635,0.7572632
1605203062396,11,0.4814453,-0.29815674,0.7301636
1605203062396,12,0.4814453,-0.29815674,0.7301636
1605203062397,13,0.5686035,-0.26275635,0.7440796
1605203062397,14,0.47827148,-0.26104736,0.7665405
1605203062397,15,0.47827148,-0.26104736,0.7665405
1605203062398,16,0.4814453,-0.29815674,0.7301636
1605203062399,17,0.5239258,-0.26934814,0.78948975
1605203062399,18,0.47827148,-0.26104736,0.7665405
1605203062400,19,0.5395508,-0.27398682,0.77215576
1605203062405,20,0.5239258,-0.26934814,0.78948975
1605203062405,21,0.6022949,-0.31866455,0.78045654
1605203062405,22,0.5239258,-0.26934814,0.78948975
1605203062405,23,0.5395508,-0.27398682,0.77215576
1605203062406,24,0.57836914,-0.32354736,0.76898193
1605203062406,25,0.5395508,-0.27398682,0.77215576
1605203062406,26,0.5473633,-0.35235596,0.80804443
1605203062407,27,0.60668945,-0.39923096,0.65179443
1605203062408,28,0.6022949,-0.31866455,0.78045654
1605203062408,29,0.6022949,-0.31866455,0.78045654
1605203062408,30,0.65234375,-0.56085205,0.53900146
1605203062408,31,0.57836914,-0.32354736,0.76898193
1605203062409,32,0.57836914,-0.32354736,0.76898193
1605203062410,33,0.3984375,-0.71295166,0.58587646
1605203062410,34,0.5473633,-0.35235596,0.80804443
1605203062410,35,0.5473633,-0.35235596,0.80804443
1605203062411,36,0.08959961,-0.5996704,0.6444702
1605203062411,37,0.60668945,-0.39923096,0.65179443
1605203062412,38,0.60668945,-0.39923096,0.65179443
1605203062412,39,0.65234375,-0.56085205,0.53900146
1605203062413,40,0.028564453,-0.72052,0.807312
1605203062414,41,0.65234375,-0.56085205,0.53900146
1605203062414,42,0.3984375,-0.71295166,0.58587646
1605203062414,43,0.15600586,-0.9038696,0.84954834
1605203062415,44,0.08959961,-0.5996704,0.6444702
1605203062415,45,0.3984375,-0.71295166,0.58587646
1605203062416,46,0.43969727,-1.1914673,0.6383667
1605203062416,47,0.028564453,-0.72052,0.807312
1605203062416,48,0.08959961,-0.5996704,0.6444702
1605203062416,49,0.5644531,-1.22052,0.4977417
1605203062417,50,0.15600586,-0.9038696,0.84954834
1605203062418,51,0.028564453,-0.72052,0.807312
1605203062418,52,0.4699707,-0.92633057,0.08880615
1605203062418,53,0.30517578,-0.59039307,-0.14385986
1605203062419,54,0.15600586,-0.9038696,0.84954834
1605203062419,55,0.43969727,-1.1914673,0.6383667
1605203062419,56,0.43969727,-1.1914673,0.6383667
1605203062420,57,0.5644531,-1.22052,0.4977417
1605203062420,58,0.24658203,-0.7036743,-0.21270752
1605203062420,59,0.5644531,-1.22052,0.4977417
1605203062421,60,0.4699707,-0.92633057,0.08880615
1605203062421,61,0.4699707,-0.92633057,0.08880615
1605203062421,62,0.2446289,-0.9656372,-0.26202393
1605203062421,63,0.30517578,-0.59039307,-0.14385986
1605203062422,64,0.07397461,-1.2341919,-0.22491455
1605203062422,65,0.30517578,-0.59039307,-0.14385986
1605203062423,66,0.24658203,-0.7036743,-0.21270752
1605203062423,67,0.24658203,-0.7036743,-0.21270752
1605203062424,68,0.03955078,-1.2217407,-0.23345947
1605203062425,69,0.2446289,-0.9656372,-0.26202393
1605203062425,70,0.2446289,-0.9656372,-0.26202393
1605203062425,71,0.23852539,-1.0913696,-0.15386963
1605203062425,72,0.07397461,-1.2341919,-0.22491455
1605203062425,73,0.21679688,-1.1257935,-0.2144165
1605203062426,74,0.07397461,-1.2341919,-0.22491455
1605203062426,75,0.03955078,-1.2217407,-0.23345947
1605203062427,76,0.04296875,-1.0447388,-0.5317993
1605203062428,77,0.23852539,-1.0913696,-0.15386963
1605203062428,78,0.03955078,-1.2217407,-0.23345947
1605203062428,79,-0.095214844,-0.78619385,-0.68414307
1605203062429,80,0.21679688,-1.1257935,-0.2144165
1605203062429,81,0.23852539,-1.0913696,-0.15386963
1605203062430,82,-0.059814453,-1.0037231,-0.7053833
1605203062430,83,0.04296875,-1.0447388,-0.5317993
1605203062430,84,0.21679688,-1.1257935,-0.2144165
1605203062430,85,-0.0107421875,-0.9505005,-0.6548462
1605203062431,86,0.04296875,-1.0447388,-0.5317993
1605203062431,87,-0.095214844,-0.78619385,-0.68414307
1605203062431,88,0.11254883,-0.87945557,-0.65948486
1605203062432,89,-0.059814453,-1.0037231,-0.7053833
1605203062433,90,-0.095214844,-0.78619385,-0.68414307
1605203062433,91,-0.0107421875,-0.9505005,-0.6548462
1605203062433,92,-0.059814453,-1.0037231,-0.7053833
1605203062434,93,0.11254883,-0.87945557,-0.65948486
1605203062434,94,-0.0107421875,-0.9505005,-0.6548462
1605203062435,95,0.11254883,-0.87945557,-0.65948486
1605203064782,96,0.16015625,-0.79644775,-0.59820557
1605203064782,97,0.16015625,-0.79644775,-0.59820557
1605203064783,98,0.16015625,-0.79644775,-0.59820557
1605203064783,99,0.22631836,-0.79888916,-0.58795166
1605203064783,100,0.22631836,-0.79888916,-0.58795166
1605203064785,101,0.22631836,-0.79888916,-0.58795166
1605203064787,102,0.31030273,-0.6692505,-0.6355591
1605203064787,103,0.31030273,-0.6692505,-0.6355591
1605203064790,104,0.36938477,-0.5601196,-0.6724243
1605203064791,105,0.36938477,-0.5601196,-0.6724243
1605203064791,106,0.31030273,-0.6692505,-0.6355591
1605203064791,107,0.32836914,-0.4500122,-0.5864868
1605203064791,108,0.32836914,-0.4500122,-0.5864868
1605203064792,109,0.36938477,-0.5601196,-0.6724243
1605203064794,110,0.39746094,-0.6404419,-0.7112427
1605203064794,111,0.32836914,-0.4500122,-0.5864868
1605203064795,112,0.39746094,-0.6404419,-0.7112427
1605203064796,113,0.63427734,-0.94317627,-0.84381104
1605203064797,114,0.39746094,-0.6404419,-0.7112427
1605203064798,115,0.51123047,-1.0088501,-0.52838135
1605203064799,116,0.63427734,-0.94317627,-0.84381104
1605203064801,117,0.35083008,-0.84161377,-0.42315674
1605203064801,118,0.51123047,-1.0088501,-0.52838135
1605203064802,119,0.63427734,-0.94317627,-0.84381104
1605203064803,120,0.28637695,-0.70318604,-0.39263916
1605203064804,121,0.51123047,-1.0088501,-0.52838135
1605203064804,122,0.35083008,-0.84161377,-0.42315674
1605203064804,123,0.29956055,-0.77423096,-0.48687744
1605203064806,124,0.28637695,-0.70318604,-0.39263916
1605203064806,125,0.35083008,-0.84161377,-0.42315674
1605203064808,126,0.29956055,-0.77423096,-0.48687744
1605203064809,127,0.28637695,-0.70318604,-0.39263916
1605203064810,128,0.32763672,-0.7456665,-0.52178955
1605203064810,129,0.32763672,-0.7456665,-0.52178955
1605203064811,130,0.29956055,-0.77423096,-0.48687744
1605203064812,131,0.36816406,-0.92559814,-0.5615845
1605203064812,132,0.36816406,-0.92559814,-0.5615845
1605203064813,133,0.32763672,-0.7456665,-0.52178955
1605203064813,134,0.30395508,-0.8098755,-0.43218994
1605203064814,135,0.30395508,-0.8098755,-0.43218994
1605203064814,136,0.36816406,-0.92559814,-0.5615845
1605203064815,137,0.32373047,-0.8413696,-0.30108643
1605203064815,138,0.32373047,-0.8413696,-0.30108643
1605203064816,139,0.30395508,-0.8098755,-0.43218994
1605203064816,140,0.46850586,-0.9451294,-0.32232666
1605203064816,141,0.46850586,-0.9451294,-0.32232666
1605203064817,142,0.59716797,-1.0342407,-0.32720947
1605203064818,143,0.32373047,-0.8413696,-0.30108643
1605203064818,144,0.59716797,-1.0342407,-0.32720947
1605203064818,145,0.5996094,-1.0325317,-0.38726807
1605203064819,146,0.5996094,-1.0325317,-0.38726807
1605203064819,147,0.46850586,-0.9451294,-0.32232666
1605203064821,148,0.32836914,-0.85479736,-0.8982544
1605203064822,149,0.32836914,-0.85479736,-0.8982544
1605203064822,150,0.59716797,-1.0342407,-0.32720947
1605203064822,151,0.14111328,-0.4451294,-1.2908325
1605203064822,152,0.14111328,-0.4451294,-1.2908325
1605203064823,153,0.12768555,0.051696777,-1.5046997
1605203064823,154,0.5996094,-1.0325317,-0.38726807
1605203064824,155,0.12768555,0.051696777,-1.5046997
1605203064824,156,-0.16186523,-0.16656494,-1.423645
1605203064826,157,0.32836914,-0.85479736,-0.8982544
1605203064826,158,-0.27075195,-0.12701416,-1.0750122
1605203064826,159,-0.16186523,-0.16656494,-1.423645
1605203064827,160,-0.19189453,-0.22735596,-0.9175415
1605203064828,161,0.14111328,-0.4451294,-1.2908325
1605203064828,162,-0.27075195,-0.12701416,-1.0750122
1605203064830,163,0.09057617,-0.2637329,-0.82232666
1605203064830,164,0.12768555,0.051696777,-1.5046997
1605203064831,165,-0.19189453,-0.22735596,-0.9175415
1605203064831,166,0.21484375,-0.01763916,-0.63726807
1605203064831,167,-0.16186523,-0.16656494,-1.423645
1605203064833,168,0.09057617,-0.2637329,-0.82232666
1605203064833,169,0.35205078,0.1359253,-0.6387329
1605203064833,170,-0.27075195,-0.12701416,-1.0750122
1605203064834,171,0.53564453,0.27874756,-0.70562744
1605203064834,172,0.21484375,-0.01763916,-0.63726807
1605203064835,173,-0.19189453,-0.22735596,-0.9175415
1605203064836,174,0.35205078,0.1359253,-0.6387329
1605203064836,175,0.6496582,0.27557373,-0.6643677
1605203064837,176,0.09057617,-0.2637329,-0.82232666
1605203064837,177,0.53564453,0.27874756,-0.70562744
1605203064839,178,0.21484375,-0.01763916,-0.63726807
1605203064839,179,0.7890625,0.27679443,-0.8442993
1605203064840,180,0.6496582,0.27557373,-0.6643677
1605203064840,181,0.35205078,0.1359253,-0.6387329
1605203064840,182,0.7890625,0.27679443,-0.8442993
1605203064840,183,0.8935547,0.35516357,-0.9636841
1605203064841,184,0.53564453,0.27874756,-0.70562744
1605203064842,185,0.8935547,0.35516357,-0.9636841
1605203064842,186,0.77124023,0.3258667,-1.0005493
1605203064843,187,0.6496582,0.27557373,-0.6643677
1605203064843,188,0.77124023,0.3258667,-1.0005493
1605203064845,189,0.7890625,0.27679443,-0.8442993
1605203064846,190,0.8935547,0.35516357,-0.9636841
1605203064846,191,0.77124023,0.3258667,-1.0005493
1605203067365,192,0.6347656,0.13372803,-1.140686
1605203067367,193,0.6347656,0.13372803,-1.140686
1605203067367,194,0.42700195,-0.024230957,-1.2073364
1605203067368,195,0.6347656,0.13372803,-1.140686
1605203067370,196,0.30932617,-0.074279785,-1.217102
1605203067371,197,0.42700195,-0.024230957,-1.2073364
1605203067373,198,0.42700195,-0.024230957,-1.2073364
1605203067379,199,0.30932617,-0.074279785,-1.217102
1605203067380,200,0.30932617,-0.074279785,-1.217102
1605203067384,201,0.27978516,-0.070373535,-1.2739868
1605203067387,202,0.27978516,-0.070373535,-1.2739868
1605203067394,203,0.4489746,-0.028381348,-1.3320923
1605203067394,204,0.4489746,-0.028381348,-1.3320923
1605203067395,205,0.6755371,0.10491943,-1.154602
1605203067397,206,0.6755371,0.10491943,-1.154602
1605203067398,207,0.9926758,0.13763428,-0.98638916
1605203067400,208,0.9926758,0.13763428,-0.98638916
1605203067403,209,0.9638672,-0.13092041,-0.7876587
1605203067405,210,0.9638672,-0.13092041,-0.7876587
1605203067408,211,0.7885742,-0.41168213,-0.5432739
1605203067410,212,0.7885742,-0.41168213,-0.5432739
1605203067413,213,0.53027344,-0.43389893,-0.47906494
1605203067414,214,0.53027344,-0.43389893,-0.47906494
1605203067416,215,0.10205078,-0.29986572,-0.704895
1605203067416,216,0.10205078,-0.29986572,-0.704895
1605203067417,217,-0.19140625,-0.14727783,-0.8423462
1605203067419,218,-0.19140625,-0.14727783,-0.8423462
1605203067419,219,-0.39672852,-0.12628174,-1.0747681
1605203067421,220,-0.39672852,-0.12628174,-1.0747681
1605203067422,221,-0.47192383,-0.101135254,-1.187561
1605203067422,222,0.27978516,-0.070373535,-1.2739868
1605203067424,223,0.4489746,-0.028381348,-1.3320923
1605203067425,224,-0.40039062,-0.22320557,-1.1973267
1605203067425,225,0.6755371,0.10491943,-1.154602
1605203067426,226,-0.47192383,-0.101135254,-1.187561
1605203067426,227,-0.26342773,-0.14117432,-1.1260376
1605203067427,228,0.9926758,0.13763428,-0.98638916
1605203067427,229,0.9638672,-0.13092041,-0.7876587
1605203067428,230,-0.40039062,-0.22320557,-1.1973267
1605203067429,231,0.7885742,-0.41168213,-0.5432739
1605203067430,232,-0.26342773,-0.14117432,-1.1260376
1605203067431,233,0.53027344,-0.43389893,-0.47906494
1605203067434,234,-0.31469727,0.020202637,-1.0342407
1605203067434,235,-0.31469727,0.020202637,-1.0342407
1605203067434,236,0.10205078,-0.29986572,-0.704895
1605203067435,237,-0.30004883,-0.1741333,-1.0606079
1605203067435,238,-0.19140625,-0.14727783,-0.8423462
1605203067436,239,-0.30004883,-0.1741333,-1.0606079
1605203067436,240,-0.26367188,-0.23590088,-0.9158325
1605203067436,241,-0.39672852,-0.12628174,-1.0747681
1605203067438,242,-0.26367188,-0.23590088,-0.9158325
1605203067439,243,-0.23706055,-0.07110596,-0.9751587
1605203067439,244,-0.47192383,-0.101135254,-1.187561
1605203067439,245,-0.23706055,-0.07110596,-0.9751587
1605203067440,246,-0.25268555,-0.10845947,-1.0164185
1605203067441,247,-0.40039062,-0.22320557,-1.1973267
1605203067442,248,-0.25268555,-0.10845947,-1.0164185
1605203067443,249,-0.26342773,-0.14117432,-1.1260376
1605203067443,250,-0.14135742,-0.44171143,-1.1387329
1605203067444,251,-0.14135742,-0.44171143,-1.1387329
1605203067444,252,-0.31469727,0.020202637,-1.0342407
1605203067444,253,-0.1550293,-0.6934204,-1.0234985
1605203067444,254,-0.1550293,-0.6934204,-1.0234985
1605203067445,255,-0.30004883,-0.1741333,-1.0606079
1605203067445,256,0.033935547,-0.55474854,-0.6992798
1605203067445,257,0.033935547,-0.55474854,-0.6992798
1605203067446,258,-0.26367188,-0.23590088,-0.9158325
1605203067446,259,0.10083008,-0.5977173,-0.36505127
1605203067447,260,0.10083008,-0.5977173,-0.36505127
1605203067448,261,-0.23706055,-0.07110596,-0.9751587
1605203067449,262,0.31811523,-0.48712158,-0.45318604
1605203067449,263,0.31811523,-0.48712158,-0.45318604
1605203067450,264,-0.25268555,-0.10845947,-1.0164185
1605203067451,265,0.5280762,-0.34014893,-0.6951294
1605203067451,266,0.5280762,-0.34014893,-0.6951294
1605203067453,267,-0.14135742,-0.44171143,-1.1387329
1605203067453,268,0.6220703,-0.6956177,-1.0305786
1605203067454,269,0.6220703,-0.6956177,-1.0305786
1605203067455,270,-0.1550293,-0.6934204,-1.0234985
1605203067455,271,0.5307617,-0.84552,-0.8484497
1605203067456,272,0.5307617,-0.84552,-0.8484497
1605203067457,273,0.42407227,-0.8838501,-0.69537354
1605203067457,274,0.033935547,-0.55474854,-0.6992798
1605203067458,275,0.42407227,-0.8838501,-0.69537354
1605203067458,276,0.45629883,-0.81622314,-0.6367798
1605203067458,277,0.45629883,-0.81622314,-0.6367798
1605203067460,278,0.45361328,-0.87042236,-0.76690674
1605203067460,279,0.10083008,-0.5977173,-0.36505127
1605203067461,280,0.45361328,-0.87042236,-0.76690674
1605203067461,281,0.31811523,-0.48712158,-0.45318604
1605203067463,282,0.5280762,-0.34014893,-0.6951294
1605203067463,283,0.6220703,-0.6956177,-1.0305786
1605203067464,284,0.5307617,-0.84552,-0.8484497
1605203067466,285,0.42407227,-0.8838501,-0.69537354
1605203067466,286,0.45629883,-0.81622314,-0.6367798
1605203067467,287,0.45361328,-0.87042236,-0.76690674
1605203069948,288,0.12988281,-1.2979126,-1.1497192
1605203069949,289,0.12988281,-1.2979126,-1.1497192
1605203069950,290,0.12988281,-1.2979126,-1.1497192
1605203069952,291,0.10473633,-0.8062134,-0.90338135
1605203069954,292,0.10473633,-0.8062134,-0.90338135
1605203069955,293,0.0078125,-0.4036255,-0.7449341
1605203069956,294,0.10473633,-0.8062134,-0.90338135
1605203069958,295,0.0078125,-0.4036255,-0.7449341
1605203069961,296,0.0078125,-0.4036255,-0.7449341
1605203069962,297,-0.14038086,-0.23809814,-0.675354
1605203069965,298,-0.14038086,-0.23809814,-0.675354
1605203069967,299,-0.1850586,-0.124816895,-0.5576782
1605203069968,300,-0.14038086,-0.23809814,-0.675354
1605203069969,301,-0.13720703,0.010681152,-0.51397705
1605203069969,302,-0.1850586,-0.124816895,-0.5576782
1605203069971,303,-0.1850586,-0.124816895,-0.5576782
1605203069975,304,0.1550293,-0.07672119,-0.77008057
1605203069975,305,-0.13720703,0.010681152,-0.51397705
1605203069976,306,0.34521484,-0.15924072,-1.1380005
1605203069976,307,0.38012695,-0.15167236,-1.2466431
1605203069978,308,0.1550293,-0.07672119,-0.77008057
1605203069981,309,0.36035156,-0.2756958,-1.0540161
1605203069981,310,-0.13720703,0.010681152,-0.51397705
1605203069981,311,0.5161133,-0.39190674,-0.9109497
1605203069984,312,0.72631836,-0.58673096,-0.83551025
1605203069984,313,0.1550293,-0.07672119,-0.77008057
1605203069984,314,0.68969727,-0.6387329,-0.73272705
1605203069987,315,0.34521484,-0.15924072,-1.1380005
1605203069988,316,0.34521484,-0.15924072,-1.1380005
1605203069989,317,0.6101074,-0.53570557,-0.79107666
1605203069990,318,0.38012695,-0.15167236,-1.2466431
1605203069991,319,0.51416016,-0.60235596,-0.881897
1605203069991,320,0.36035156,-0.2756958,-1.0540161
1605203069991,321,0.46069336,-0.67974854,-0.87384033
1605203069992,322,0.5161133,-0.39190674,-0.9109497
1605203069992,323,0.38012695,-0.15167236,-1.2466431
1605203069993,324,0.37841797,-0.6314087,-0.88653564
1605203069993,325,0.36035156,-0.2756958,-1.0540161
1605203069993,326,0.17651367,-0.4668579,-0.81256104
1605203069994,327,0.5161133,-0.39190674,-0.9109497
1605203069995,328,0.72631836,-0.58673096,-0.83551025
1605203069995,329,0.68969727,-0.6387329,-0.73272705
1605203069996,330,0.72631836,-0.58673096,-0.83551025
1605203069996,331,0.68969727,-0.6387329,-0.73272705
1605203069997,332,0.6101074,-0.53570557,-0.79107666
1605203069997,333,0.087402344,-0.39605713,-0.70880127
1605203069997,334,0.6101074,-0.53570557,-0.79107666
1605203069998,335,0.51416016,-0.60235596,-0.881897
1605203069999,336,0.045654297,-0.4109497,-0.66851807
1605203069999,337,0.14575195,-0.2715454,-0.6157837
1605203070000,338,0.46069336,-0.67974854,-0.87384033
1605203070000,339,0.37841797,-0.6314087,-0.88653564
1605203070001,340,0.24584961,-0.1428833,-0.7932739
1605203070001,341,0.38452148,-0.2420044,-1.0662231
1605203070002,342,0.17651367,-0.4668579,-0.81256104
1605203070002,343,0.51416016,-0.60235596,-0.881897
1605203070003,344,0.38378906,-0.13238525,-1.1624146
1605203070003,345,0.46069336,-0.67974854,-0.87384033
1605203070003,346,0.3630371,-0.06866455,-1.225647
1605203070003,347,0.087402344,-0.39605713,-0.70880127
1605203070004,348,0.045654297,-0.4109497,-0.66851807
1605203070005,349,0.14575195,-0.2715454,-0.6157837
1605203070005,350,0.37841797,-0.6314087,-0.88653564
1605203070006,351,0.33935547,-0.20855713,-1.2620239
1605203070006,352,0.17651367,-0.4668579,-0.81256104
1605203070006,353,0.22338867,-0.23150635,-1.1680298
1605203070007,354,0.087402344,-0.39605713,-0.70880127
1605203070007,355,0.21313477,-0.14483643,-1.0159302
1605203070008,356,0.24584961,-0.1428833,-0.7932739
1605203070009,357,0.09692383,-0.054260254,-0.9507446
1605203070009,358,0.045654297,-0.4109497,-0.66851807
1605203070009,359,0.38452148,-0.2420044,-1.0662231
1605203070009,360,0.06689453,-0.015930176,-0.99835205
1605203070010,361,0.38378906,-0.13238525,-1.1624146
1605203070010,362,0.118896484,-0.117492676,-0.9702759
1605203070011,363,0.14575195,-0.2715454,-0.6157837
1605203070011,364,0.33789062,-0.32183838,-0.9968872
1605203070011,365,0.3630371,-0.06866455,-1.225647
1605203070012,366,0.24584961,-0.1428833,-0.7932739
1605203070012,367,0.33935547,-0.20855713,-1.2620239
1605203070013,368,0.38452148,-0.2420044,-1.0662231
1605203070013,369,0.22338867,-0.23150635,-1.1680298
1605203070014,370,0.38378906,-0.13238525,-1.1624146
1605203070014,371,0.21313477,-0.14483643,-1.0159302
1605203070014,372,0.3630371,-0.06866455,-1.225647
1605203070015,373,0.09692383,-0.054260254,-0.9507446
1605203070015,374,0.33935547,-0.20855713,-1.2620239
1605203070015,375,0.06689453,-0.015930176,-0.99835205
1605203070016,376,0.22338867,-0.23150635,-1.1680298
1605203070016,377,0.118896484,-0.117492676,-0.9702759
1605203070017,378,0.21313477,-0.14483643,-1.0159302
1605203070017,379,0.33789062,-0.32183838,-0.9968872
1605203070017,380,0.09692383,-0.054260254,-0.9507446
1605203070018,381,0.06689453,-0.015930176,-0.99835205
1605203070019,382,0.118896484,-0.117492676,-0.9702759
1605203070019,383,0.33789062,-0.32183838,-0.9968872
1605203072534,384,0.65063477,-0.58917236,-1.1629028
1605203072535,385,0.6401367,-0.47027588,-0.9800415
1605203072536,386,0.65063477,-0.58917236,-1.1629028
1605203072540,387,0.49804688,-0.16558838,-0.5899048
1605203072544,388,0.6401367,-0.47027588,-0.9800415
1605203072547,389,0.27246094,-0.027404785,-0.553772
1605203072549,390,0.49804688,-0.16558838,-0.5899048
1605203072551,391,0.21362305,0.1161499,-0.69195557
1605203072553,392,0.27246094,-0.027404785,-0.553772
1605203072554,393,0.3251953,-0.089416504,-1.164856
1605203072557,394,0.21362305,0.1161499,-0.69195557
1605203072562,395,0.38500977,-0.29840088,-1.079895
1605203072573,396,0.3251953,-0.089416504,-1.164856
1605203072574,397,0.65063477,-0.58917236,-1.1629028
1605203072577,398,0.29052734,-0.41168213,-0.8557739
1605203072584,399,0.38500977,-0.29840088,-1.079895
1605203072584,400,0.39575195,-0.43780518,-0.9990845
1605203072584,401,0.6401367,-0.47027588,-0.9800415
1605203072588,402,0.49804688,-0.16558838,-0.5899048
1605203072591,403,0.68066406,-0.40045166,-1.5029907
1605203072593,404,0.27246094,-0.027404785,-0.553772
1605203072594,405,0.8144531,-0.536438,-1.4414673
1605203072595,406,0.21362305,0.1161499,-0.69195557
1605203072596,407,0.29052734,-0.41168213,-0.8557739
1605203072596,408,0.5275879,-0.42926025,-0.9902954
1605203072597,409,0.3251953,-0.089416504,-1.164856
1605203072598,410,0.21923828,-0.28790283,-0.56378174
1605203072599,411,0.38500977,-0.29840088,-1.079895
1605203072600,412,0.2097168,-0.14239502,-0.44171143
1605203072600,413,0.29052734,-0.41168213,-0.8557739
1605203072601,414,0.1730957,-7.9345703E-4,-0.3164673
1605203072601,415,0.39575195,-0.43780518,-0.9990845
1605203072602,416,0.2355957,-0.10211182,-0.5569458
1605203072603,417,0.68066406,-0.40045166,-1.5029907
1605203072604,418,0.10253906,-0.44073486,-1.326477
1605203072605,419,0.23999023,-0.5540161,-1.300354
1605203072606,420,0.8144531,-0.536438,-1.4414673
1605203072606,421,0.24633789,-0.5586548,-0.9885864
1605203072607,422,0.5275879,-0.42926025,-0.9902954
1605203072608,423,0.21923828,-0.28790283,-0.56378174
1605203072609,424,0.2097168,-0.14239502,-0.44171143
1605203072610,425,0.28808594,-0.7234497,-0.8843384
1605203072610,426,0.1730957,-7.9345703E-4,-0.3164673
1605203072611,427,0.2355957,-0.10211182,-0.5569458
1605203072611,428,0.26220703,-0.80792236,-0.9077759
1605203072612,429,0.10253906,-0.44073486,-1.326477
1605203072612,430,0.23999023,-0.5540161,-1.300354
1605203072613,431,0.39575195,-0.43780518,-0.9990845
1605203072613,432,0.005859375,-0.72491455,-1.1189575
1605203072614,433,0.68066406,-0.40045166,-1.5029907
1605203072614,434,0.24633789,-0.5586548,-0.9885864
1605203072614,435,-0.17138672,-0.57891846,-1.0264282
1605203072615,436,0.8144531,-0.536438,-1.4414673
1605203072615,437,0.28808594,-0.7234497,-0.8843384
1605203072615,438,-0.29296875,-0.48321533,-1.0144653
1605203072616,439,0.5275879,-0.42926025,-0.9902954
1605203072617,440,0.26220703,-0.80792236,-0.9077759
1605203072617,441,-0.24365234,-0.6043091,-1.1038208
1605203072617,442,0.21923828,-0.28790283,-0.56378174
1605203072617,443,0.005859375,-0.72491455,-1.1189575
1605203072617,444,-0.21289062,-0.5918579,-0.9487915
1605203072618,445,0.2097168,-0.14239502,-0.44171143
1605203072618,446,-0.17138672,-0.57891846,-1.0264282
1605203072618,447,-0.3413086,-0.548645,-0.8152466
1605203072619,448,0.1730957,-7.9345703E-4,-0.3164673
1605203072619,449,-0.29296875,-0.48321533,-1.0144653
1605203072619,450,-0.59716797,-0.54229736,-0.75616455
1605203072619,451,0.2355957,-0.10211182,-0.5569458
1605203072620,452,-0.6574707,-0.66973877,-0.8623657
1605203072620,453,0.10253906,-0.44073486,-1.326477
1605203072621,454,-0.24365234,-0.6043091,-1.1038208
1605203072621,455,-0.60913086,-0.5598755,-0.71173096
1605203072621,456,0.23999023,-0.5540161,-1.300354
1605203072622,457,-0.21289062,-0.5918579,-0.9487915
1605203072622,458,-0.4152832,-0.4920044,-0.77227783
1605203072623,459,0.24633789,-0.5586548,-0.9885864
1605203072623,460,-0.3413086,-0.548645,-0.8152466
1605203072624,461,-0.12988281,-0.4360962,-0.91485596
1605203072624,462,-0.59716797,-0.54229736,-0.75616455
1605203072624,463,0.28808594,-0.7234497,-0.8843384
1605203072625,464,0.26220703,-0.80792236,-0.9077759
1605203072625,465,-0.6574707,-0.66973877,-0.8623657
1605203072626,466,0.005859375,-0.72491455,-1.1189575
1605203072626,467,-0.60913086,-0.5598755,-0.71173096
1605203072626,468,-0.4152832,-0.4920044,-0.77227783
1605203072626,469,-0.17138672,-0.57891846,-1.0264282
1605203072627,470,-0.12988281,-0.4360962,-0.91485596
1605203072627,471,-0.29296875,-0.48321533,-1.0144653
1605203072628,472,-0.24365234,-0.6043091,-1.1038208
1605203072628,473,-0.21289062,-0.5918579,-0.9487915
1605203072629,474,-0.3413086,-0.548645,-0.8152466
1605203072630,475,-0.59716797,-0.54229736,-0.75616455
1605203072630,476,-0.6574707,-0.66973877,-0.8623657
1605203072631,477,-0.60913086,-0.5598755,-0.71173096
1605203072631,478,-0.4152832,-0.4920044,-0.77227783
1605203072632,479,-0.12988281,-0.4360962,-0.91485596
1605203075118,480,-0.08251953,-0.29693604,-0.835022
1605203075120,481,0.044677734,-0.51690674,-0.8821411
1605203075123,482,-0.08251953,-0.29693604,-0.835022
1605203075127,483,-0.053466797,-0.4817505,-0.7996216
1605203075131,484,0.044677734,-0.51690674,-0.8821411
1605203075134,485,-0.006591797,-0.5906372,-0.741272
1605203075135,486,-0.053466797,-0.4817505,-0.7996216
1605203075138,487,0.0056152344,-0.7654419,-0.3899536
1605203075140,488,-0.006591797,-0.5906372,-0.741272
1605203075142,489,0.05126953,-0.7571411,0.074157715
1605203075146,490,0.0056152344,-0.7654419,-0.3899536
1605203075148,491,0.42016602,-0.7942505,0.32659912
1605203075152,492,0.05126953,-0.7571411,0.074157715
1605203075156,493,0.57714844,-0.7107544,0.43011475
1605203075159,494,0.42016602,-0.7942505,0.32659912
1605203075161,495,0.7937012,-0.8284302,0.215271
1605203075162,496,0.57714844,-0.7107544,0.43011475
1605203075165,497,-0.08251953,-0.29693604,-0.835022
1605203075166,498,0.7937012,-0.8284302,0.215271
1605203075169,499,0.8371582,-1.0606079,0.08709717
1605203075172,500,0.044677734,-0.51690674,-0.8821411
1605203075176,501,0.7524414,-1.2896118,-0.09625244
1605203075179,502,-0.053466797,-0.4817505,-0.7996216
1605203075181,503,0.8027344,-1.0823364,-0.085754395
1605203075182,504,0.8371582,-1.0606079,0.08709717
1605203075182,505,-0.006591797,-0.5906372,-0.741272
1605203075182,506,1.0581055,-0.6734009,-0.13848877
1605203075183,507,0.7524414,-1.2896118,-0.09625244
1605203075184,508,0.67041016,-0.4356079,-0.26690674
1605203075185,509,0.8027344,-1.0823364,-0.085754395
1605203075186,510,0.2133789,-0.5737915,-0.29766846
1605203075187,511,1.0581055,-0.6734009,-0.13848877
1605203075187,512,0.67041016,-0.4356079,-0.26690674
1605203075188,513,0.0056152344,-0.7654419,-0.3899536
1605203075188,514,0.19921875,-0.6433716,-0.5491333
1605203075190,515,0.48950195,-1.0200806,-0.61431885
1605203075190,516,0.05126953,-0.7571411,0.074157715
1605203075191,517,0.7883301,-1.357727,-0.58551025
1605203075192,518,0.42016602,-0.7942505,0.32659912
1605203075193,519,0.6723633,-1.3247681,-0.44293213
1605203075194,520,0.57714844,-0.7107544,0.43011475
1605203075195,521,0.60180664,-1.0261841,-0.5203247
1605203075195,522,0.7937012,-0.8284302,0.215271
1605203075196,523,0.2133789,-0.5737915,-0.29766846
1605203075196,524,0.5925293,-0.88482666,-0.74664307
1605203075197,525,0.19921875,-0.6433716,-0.5491333
1605203075202,526,0.5488281,-0.67388916,-0.76153564
1605203075203,527,0.48950195,-1.0200806,-0.61431885
1605203075204,528,0.8371582,-1.0606079,0.08709717
1605203075204,529,0.44970703,-0.18682861,-0.6511841
1605203075204,530,0.7883301,-1.357727,-0.58551025
1605203075205,531,0.7524414,-1.2896118,-0.09625244
1605203075205,532,0.6723633,-1.3247681,-0.44293213
1605203075206,533,0.8027344,-1.0823364,-0.085754395
1605203075206,534,0.60180664,-1.0261841,-0.5203247
1605203075210,535,0.5925293,-0.88482666,-0.74664307
1605203075211,536,0.3269043,0.22454834,-0.48590088
1605203075212,537,0.5488281,-0.67388916,-0.76153564
1605203075213,538,0.2553711,0.20526123,-0.4788208
1605203075214,539,1.0581055,-0.6734009,-0.13848877
1605203075216,540,0.34033203,0.18890381,-0.4277954
1605203075218,541,0.44970703,-0.18682861,-0.6511841
1605203075218,542,0.36035156,0.11590576,-0.5256958
1605203075219,543,0.67041016,-0.4356079,-0.26690674
1605203075219,544,0.3269043,0.22454834,-0.48590088
1605203075220,545,0.34765625,-0.19268799,-0.8945923
1605203075220,546,0.2133789,-0.5737915,-0.29766846
1605203075221,547,0.2553711,0.20526123,-0.4788208
1605203075223,548,0.24487305,-0.41607666,-1.0239868
1605203075223,549,0.19921875,-0.6433716,-0.5491333
1605203075223,550,0.34033203,0.18890381,-0.4277954
1605203075224,551,0.2878418,-0.630188,-1.0852661
1605203075224,552,0.36035156,0.11590576,-0.5256958
1605203075224,553,0.48950195,-1.0200806,-0.61431885
1605203075225,554,0.33325195,-0.6980591,-0.80352783
1605203075225,555,0.34765625,-0.19268799,-0.8945923
1605203075226,556,0.28857422,-0.88946533,-0.7241821
1605203075226,557,0.7883301,-1.357727,-0.58551025
1605203075227,558,0.6723633,-1.3247681,-0.44293213
1605203075227,559,0.24487305,-0.41607666,-1.0239868
1605203075227,560,0.60180664,-1.0261841,-0.5203247
1605203075228,561,0.2878418,-0.630188,-1.0852661
1605203075228,562,0.5925293,-0.88482666,-0.74664307
1605203075229,563,0.33325195,-0.6980591,-0.80352783
1605203075229,564,0.5488281,-0.67388916,-0.76153564
1605203075230,565,0.28857422,-0.88946533,-0.7241821
1605203075230,566,0.44970703,-0.18682861,-0.6511841
1605203075231,567,0.3269043,0.22454834,-0.48590088
1605203075232,568,0.2553711,0.20526123,-0.4788208
1605203075232,569,0.34033203,0.18890381,-0.4277954
1605203075233,570,0.36035156,0.11590576,-0.5256958
1605203075234,571,0.34765625,-0.19268799,-0.8945923
1605203075234,572,0.24487305,-0.41607666,-1.0239868
1605203075235,573,0.2878418,-0.630188,-1.0852661
1605203075235,574,0.33325195,-0.6980591,-0.80352783
1605203075236,575,0.28857422,-0.88946533,-0.7241821
1605203077702,576,0.4951172,-0.99713135,-1.0122681
1605203077705,577,0.4951172,-0.99713135,-1.0122681
1605203077709,578,0.4807129,-0.7234497,-1.1013794
1605203077713,579,0.4807129,-0.7234497,-1.1013794
1605203077716,580,0.45043945,-0.6572876,-1.1587524
1605203077720,581,0.45043945,-0.6572876,-1.1587524
1605203077724,582,0.35864258,-0.6331177,-0.94854736
1605203077727,583,0.35864258,-0.6331177,-0.94854736
1605203077731,584,0.21533203,-0.6135864,-0.769104
1605203077734,585,0.21533203,-0.6135864,-0.769104
1605203077737,586,0.16967773,-0.48590088,-0.6375122
1605203077739,587,0.16967773,-0.48590088,-0.6375122
1605203077742,588,0.14208984,-0.35235596,-0.6536255
1605203077747,589,0.14208984,-0.35235596,-0.6536255
1605203077749,590,0.06738281,-0.23883057,-0.644104
1605203077750,591,0.06738281,-0.23883057,-0.644104
1605203077752,592,-0.31152344,-0.18096924,-0.8242798
1605203077754,593,-0.31152344,-0.18096924,-0.8242798
1605203077755,594,-0.22265625,-0.14483643,-0.89556885
1605203077757,595,-0.22265625,-0.14483643,-0.89556885
1605203077758,596,0.114746094,-0.054992676,-0.5881958
1605203077759,597,0.20043945,-0.047424316,-1.2393188
1605203077760,598,0.114746094,-0.054992676,-0.5881958
1605203077761,599,0.37817383,-1.4448853,-1.9998169
1605203077762,600,0.20043945,-0.047424316,-1.2393188
1605203077763,601,-0.06958008,-0.6746216,-1.5010376
1605203077765,602,0.4951172,-0.99713135,-1.0122681
1605203077768,603,0.37817383,-1.4448853,-1.9998169
1605203077768,604,0.4807129,-0.7234497,-1.1013794
1605203077772,605,-0.06958008,-0.6746216,-1.5010376
1605203077772,606,0.45043945,-0.6572876,-1.1587524
1605203077773,607,-0.22973633,-0.3538208,-0.66363525
1605203077775,608,-0.34643555,-0.36505127,-0.3887329
1605203077777,609,-0.22973633,-0.3538208,-0.66363525
1605203077777,610,0.35864258,-0.6331177,-0.94854736
1605203077778,611,-0.34643555,-0.36505127,-0.3887329
1605203077778,612,-0.31054688,-0.23248291,-0.10992432
1605203077778,613,0.21533203,-0.6135864,-0.769104
1605203077779,614,-0.052246094,-0.21173096,-0.0569458
1605203077779,615,0.16967773,-0.48590088,-0.6375122
1605203077779,616,0.2836914,-0.5335083,-0.9573364
1605203077779,617,0.60595703,0.29925537,-0.6873169
1605203077779,618,0.14208984,-0.35235596,-0.6536255
1605203077781,619,-0.31054688,-0.23248291,-0.10992432
1605203077783,620,1.2978516,0.10394287,-1.6209106
1605203077783,621,-0.052246094,-0.21173096,-0.0569458
1605203077784,622,0.06738281,-0.23883057,-0.644104
1605203077785,623,0.92822266,-0.33599854,-1.3692017
1605203077786,624,0.66308594,-0.34503174,-1.3609009
1605203077788,625,0.2836914,-0.5335083,-0.9573364
1605203077788,626,-0.31152344,-0.18096924,-0.8242798
1605203077789,627,0.33642578,-0.38067627,-0.8928833
1605203077790,628,0.60595703,0.29925537,-0.6873169
1605203077790,629,-0.22265625,-0.14483643,-0.89556885
1605203077791,630,0.01977539,-0.659729,-0.51641846
1605203077791,631,0.052978516,-0.46368408,-0.4192505
1605203077792,632,0.114746094,-0.054992676,-0.5881958
1605203077792,633,1.2978516,0.10394287,-1.6209106
1605203077793,634,0.20043945,-0.047424316,-1.2393188
1605203077793,635,0.92822266,-0.33599854,-1.3692017
1605203077794,636,0.66308594,-0.34503174,-1.3609009
1605203077794,637,0.14257812,-0.8916626,-0.2805786
1605203077794,638,0.37817383,-1.4448853,-1.9998169
1605203077795,639,0.6635742,-1.4087524,-0.92388916
1605203077795,640,0.33642578,-0.38067627,-0.8928833
1605203077795,641,-0.06958008,-0.6746216,-1.5010376
1605203077796,642,0.69921875,-1.1494751,-1.0198364
1605203077797,643,-0.22973633,-0.3538208,-0.66363525
1605203077797,644,0.01977539,-0.659729,-0.51641846
1605203077797,645,0.40771484,-1.1965942,-1.1570435
1605203077799,646,0.36010742,-0.9319458,-0.7163696
1605203077799,647,0.052978516,-0.46368408,-0.4192505
1605203077799,648,-0.34643555,-0.36505127,-0.3887329
1605203077799,649,0.14257812,-0.8916626,-0.2805786
1605203077799,650,0.123046875,-0.7112427,-0.5588989
1605203077800,651,-0.31054688,-0.23248291,-0.10992432
1605203077800,652,0.6635742,-1.4087524,-0.92388916
1605203077800,653,-0.052246094,-0.21173096,-0.0569458
1605203077801,654,0.69921875,-1.1494751,-1.0198364
1605203077802,655,0.2836914,-0.5335083,-0.9573364
1605203077802,656,0.40771484,-1.1965942,-1.1570435
1605203077802,657,0.60595703,0.29925537,-0.6873169
1605203077803,658,0.36010742,-0.9319458,-0.7163696
1605203077803,659,1.2978516,0.10394287,-1.6209106
1605203077804,660,0.123046875,-0.7112427,-0.5588989
1605203077804,661,0.92822266,-0.33599854,-1.3692017
1605203077805,662,0.66308594,-0.34503174,-1.3609009
1605203077806,663,0.33642578,-0.38067627,-0.8928833
1605203077807,664,0.01977539,-0.659729,-0.51641846
1605203077807,665,0.052978516,-0.46368408,-0.4192505
1605203077808,666,0.14257812,-0.8916626,-0.2805786
1605203077809,667,0.6635742,-1.4087524,-0.92388916
1605203077810,668,0.69921875,-1.1494751,-1.0198364
1605203077811,669,0.40771484,-1.1965942,-1.1570435
1605203077811,670,0.36010742,-0.9319458,-0.7163696
1605203077812,671,0.123046875,-0.7112427,-0.5588989
1605203080286,672,-0.33447266,-0.458313,-0.26593018
1605203080289,673,-0.33447266,-0.458313,-0.26593018
1605203080293,674,-0.7546387,-0.5823364,-0.2876587
1605203080298,675,-0.7546387,-0.5823364,-0.2876587
1605203080300,676,-0.532959,-0.76153564,-1.062561
1605203080302,677,-0.33447266,-0.458313,-0.26593018
1605203080305,678,-0.54467773,-0.69073486,-0.65167236
1605203080309,679,-0.7546387,-0.5823364,-0.2876587
1605203080313,680,-0.5395508,-0.95635986,-0.7737427
1605203080316,681,-0.532959,-0.76153564,-1.062561
1605203080323,682,-0.6118164,-1.0957642,-0.76397705
1605203080325,683,-0.532959,-0.76153564,-1.062561
1605203080325,684,-0.54467773,-0.69073486,-0.65167236
1605203080326,685,-0.54467773,-0.69073486,-0.65167236
1605203080330,686,-0.5395508,-0.95635986,-0.7737427
1605203080331,687,-0.9316406,-0.86309814,-0.63360596
1605203080331,688,-0.5395508,-0.95635986,-0.7737427
1605203080333,689,-0.6118164,-1.0957642,-0.76397705
1605203080335,690,-0.6118164,-1.0957642,-0.76397705
1605203080336,691,-1.3112793,-1.052063,-0.43829346
1605203080336,692,-0.9316406,-0.86309814,-0.63360596
1605203080337,693,-0.9316406,-0.86309814,-0.63360596
1605203080338,694,-1.3112793,-1.052063,-0.43829346
1605203080339,695,-0.98706055,-1.062561,-0.6069946
1605203080340,696,-1.3112793,-1.052063,-0.43829346
1605203080340,697,-0.98706055,-1.062561,-0.6069946
1605203080341,698,-0.98706055,-1.062561,-0.6069946
1605203080343,699,-0.3798828,-0.64971924,-0.64434814
1605203080343,700,-0.3798828,-0.64971924,-0.64434814
1605203080344,701,-0.3798828,-0.64971924,-0.64434814
1605203080344,702,0.0637207,-0.6511841,-0.6995239
1605203080346,703,0.0637207,-0.6511841,-0.6995239
1605203080346,704,0.2614746,-0.3171997,-0.6651001
1605203080348,705,0.2614746,-0.3171997,-0.6651001
1605203080348,706,0.26245117,-0.17022705,-0.81915283
1605203080349,707,0.0637207,-0.6511841,-0.6995239
1605203080350,708,0.26245117,-0.17022705,-0.81915283
1605203080351,709,0.2614746,-0.3171997,-0.6651001
1605203080352,710,0.08984375,-0.6502075,-1.0383911
1605203080353,711,0.26245117,-0.17022705,-0.81915283
1605203080354,712,0.16430664,-1.1599731,-0.9495239
1605203080355,713,0.08984375,-0.6502075,-1.0383911
1605203080356,714,0.08984375,-0.6502075,-1.0383911
1605203080356,715,0.44555664,-1.2544556,-0.7510376
1605203080356,716,0.16430664,-1.1599731,-0.9495239
1605203080357,717,0.8718262,-1.0134888,-0.50909424
1605203080357,718,0.16430664,-1.1599731,-0.9495239
1605203080358,719,0.44555664,-1.2544556,-0.7510376
1605203080359,720,0.44555664,-1.2544556,-0.7510376
1605203080360,721,0.8718262,-1.0134888,-0.50909424
1605203080362,722,1.2287598,-0.9710083,-0.5615845
1605203080362,723,1.2287598,-0.9710083,-0.5615845
1605203080362,724,0.8718262,-1.0134888,-0.50909424
1605203080363,725,0.94140625,-0.67437744,-1.0515747
1605203080364,726,0.94140625,-0.67437744,-1.0515747
1605203080364,727,1.2287598,-0.9710083,-0.5615845
1605203080366,728,0.70214844,-0.71832275,-1.24469
1605203080366,729,0.70214844,-0.71832275,-1.24469
1605203080367,730,0.94140625,-0.67437744,-1.0515747
1605203080367,731,1.0612793,-0.78497314,-0.7871704
1605203080367,732,1.0612793,-0.78497314,-0.7871704
1605203080367,733,0.70214844,-0.71832275,-1.24469
1605203080369,734,0.8342285,-0.7737427,-0.17974854
1605203080369,735,0.8342285,-0.7737427,-0.17974854
1605203080370,736,1.0612793,-0.78497314,-0.7871704
1605203080370,737,0.44506836,-1.536438,-0.77178955
1605203080370,738,0.8342285,-0.7737427,-0.17974854
1605203080370,739,0.44506836,-1.536438,-0.77178955
1605203080371,740,0.5749512,-1.2217407,-1.260315
1605203080372,741,0.44506836,-1.536438,-0.77178955
1605203080373,742,0.5749512,-1.2217407,-1.260315
1605203080373,743,0.51000977,-0.6240845,-0.71173096
1605203080374,744,0.5749512,-1.2217407,-1.260315
1605203080374,745,0.51000977,-0.6240845,-0.71173096
1605203080375,746,0.51000977,-0.6240845,-0.71173096
1605203080375,747,0.37939453,-0.22149658,-0.36505127
1605203080377,748,0.37939453,-0.22149658,-0.36505127
1605203080377,749,0.37939453,-0.22149658,-0.36505127
1605203080377,750,0.2265625,-0.038391113,-0.2810669
1605203080378,751,0.2265625,-0.038391113,-0.2810669
1605203080378,752,0.2265625,-0.038391113,-0.2810669
1605203080379,753,0.068115234,-0.05303955,-0.37091064
1605203080380,754,0.068115234,-0.05303955,-0.37091064
1605203080380,755,0.068115234,-0.05303955,-0.37091064
1605203080381,756,0.08666992,-0.5496216,-0.6885376
1605203080381,757,0.08666992,-0.5496216,-0.6885376
1605203080382,758,0.08666992,-0.5496216,-0.6885376
1605203080382,759,0.27612305,-1.4663696,-1.3792114
1605203080383,760,0.27612305,-1.4663696,-1.3792114
1605203080384,761,0.27612305,-1.4663696,-1.3792114
1605203080384,762,0.01586914,-1.1487427,-0.94976807
1605203080384,763,0.01586914,-1.1487427,-0.94976807
1605203080386,764,-0.036865234,-0.99176025,-0.5967407
1605203080386,765,0.01586914,-1.1487427,-0.94976807
1605203080387,766,-0.036865234,-0.99176025,-0.5967407
1605203080388,767,-0.036865234,-0.99176025,-0.5967407
1605203083068,768,-0.1418457,-0.9031372,-0.6460571
1605203083072,769,-0.1418457,-0.9031372,-0.6460571
1605203083075,770,-0.19995117,-0.93096924,-0.9277954
1605203083078,771,-0.19995117,-0.93096924,-0.9277954
1605203083083,772,-0.09448242,-0.89508057,-1.0769653
1605203083086,773,-0.09448242,-0.89508057,-1.0769653
1605203083089,774,-0.022460938,-0.85772705,-1.0007935
1605203083093,775,-0.022460938,-0.85772705,-1.0007935
1605203083096,776,-0.09057617,-0.7246704,-0.86431885
1605203083099,777,-0.19873047,-0.61676025,-0.8267212
1605203083101,778,-0.09057617,-0.7246704,-0.86431885
1605203083103,779,-0.22070312,-0.614563,-1.0527954
1605203083104,780,-0.19873047,-0.61676025,-0.8267212
1605203083106,781,-0.14672852,-0.33795166,-0.927063
1605203083109,782,-0.1418457,-0.9031372,-0.6460571
1605203083110,783,-0.044433594,-0.1572876,-0.64068604
1605203083110,784,-0.22070312,-0.614563,-1.0527954
1605203083110,785,-0.19995117,-0.93096924,-0.9277954
1605203083114,786,0.03881836,-0.19903564,-0.16583252
1605203083118,787,-0.14672852,-0.33795166,-0.927063
1605203083121,788,0.055664062,0.06512451,-0.4006958
1605203083124,789,-0.044433594,-0.1572876,-0.64068604
1605203083127,790,0.58032227,-0.29278564,-1.0962524
1605203083129,791,0.03881836,-0.19903564,-0.16583252
1605203083132,792,1.1130371,-1.163147,-1.2620239
1605203083136,793,0.055664062,0.06512451,-0.4006958
1605203083137,794,0.6977539,-1.5195923,-0.56817627
1605203083141,795,0.58032227,-0.29278564,-1.0962524
1605203083144,796,0.08520508,-1.0579224,-0.07940674
1605203083147,797,1.1130371,-1.163147,-1.2620239
1605203083151,798,0.21240234,-0.831604,0.09881592
1605203083154,799,0.6977539,-1.5195923,-0.56817627
1605203083155,800,1.1477051,-1.3694458,0.050476074
1605203083156,801,0.08520508,-1.0579224,-0.07940674
1605203083157,802,1.2009277,-1.1299438,-0.27838135
1605203083158,803,0.21240234,-0.831604,0.09881592
1605203083158,804,-0.09448242,-0.89508057,-1.0769653
1605203083159,805,1.1477051,-1.3694458,0.050476074
1605203083160,806,-0.022460938,-0.85772705,-1.0007935
1605203083161,807,1.2009277,-1.1299438,-0.27838135
1605203083162,808,-0.09057617,-0.7246704,-0.86431885
1605203083163,809,0.5012207,-0.47174072,-0.27886963
1605203083163,810,0.47216797,-0.27252197,-0.20733643
1605203083164,811,0.5012207,-0.47174072,-0.27886963
1605203083165,812,0.6452637,-0.29644775,-0.22906494
1605203083167,813,0.47216797,-0.27252197,-0.20733643
1605203083167,814,0.8586426,-0.3706665,-0.20465088
1605203083168,815,-0.19873047,-0.61676025,-0.8267212
1605203083169,816,0.6452637,-0.29644775,-0.22906494
1605203083171,817,-0.22070312,-0.614563,-1.0527954
1605203083171,818,0.8586426,-0.3706665,-0.20465088
1605203083172,819,1.0983887,-0.74591064,-0.29400635
1605203083172,820,-0.14672852,-0.33795166,-0.927063
1605203083172,821,1.0983887,-0.74591064,-0.29400635
1605203083173,822,0.94677734,-0.72198486,-0.11114502
1605203083174,823,0.94677734,-0.72198486,-0.11114502
1605203083175,824,0.7199707,-0.829895,0.019714355
1605203083176,825,0.7199707,-0.829895,0.019714355
1605203083176,826,-0.044433594,-0.1572876,-0.64068604
1605203083177,827,0.5205078,-0.9612427,-0.022521973
1605203083178,828,0.5205078,-0.9612427,-0.022521973
1605203083179,829,0.03881836,-0.19903564,-0.16583252
1605203083180,830,0.62231445,-0.95635986,-0.07501221
1605203083181,831,0.62231445,-0.95635986,-0.07501221
1605203083181,832,0.055664062,0.06512451,-0.4006958
1605203083182,833,0.69384766,-1.1072388,0.31488037
1605203083182,834,0.69384766,-1.1072388,0.31488037
1605203083183,835,0.58032227,-0.29278564,-1.0962524
1605203083183,836,0.4494629,-1.036438,0.4225464
1605203083185,837,1.1130371,-1.163147,-1.2620239
1605203083185,838,0.4494629,-1.036438,0.4225464
1605203083186,839,0.54296875,-1.2207642,0.6727905
1605203083186,840,0.6977539,-1.5195923,-0.56817627
1605203083187,841,0.54296875,-1.2207642,0.6727905
1605203083189,842,0.7937012,-0.7337036,-0.16925049
1605203083189,843,0.7937012,-0.7337036,-0.16925049
1605203083189,844,0.08520508,-1.0579224,-0.07940674
1605203083190,845,1.0622559,-0.55548096,-0.36920166
1605203083190,846,1.0622559,-0.55548096,-0.36920166
1605203083191,847,0.21240234,-0.831604,0.09881592
1605203083191,848,1.1477051,-1.3694458,0.050476074
1605203083192,849,1.2009277,-1.1299438,-0.27838135
1605203083193,850,0.5012207,-0.47174072,-0.27886963
1605203083194,851,0.47216797,-0.27252197,-0.20733643
1605203083195,852,0.6452637,-0.29644775,-0.22906494
1605203083196,853,0.8586426,-0.3706665,-0.20465088
1605203083196,854,1.0983887,-0.74591064,-0.29400635
1605203083197,855,0.94677734,-0.72198486,-0.11114502
1605203083198,856,0.7199707,-0.829895,0.019714355
1605203083199,857,0.5205078,-0.9612427,-0.022521973
1605203083200,858,0.62231445,-0.95635986,-0.07501221
1605203083201,859,0.69384766,-1.1072388,0.31488037
1605203083202,860,0.4494629,-1.036438,0.4225464
1605203083203,861,0.54296875,-1.2207642,0.6727905
1605203083203,862,0.7937012,-0.7337036,-0.16925049
1605203083204,863,1.0622559,-0.55548096,-0.36920166
1605203085446,864,1.2348633,0.21014404,-0.57476807
1605203085447,865,1.2348633,0.21014404,-0.57476807
1605203085447,866,1.2348633,0.21014404,-0.57476807
1605203085448,867,0.45776367,0.42401123,-0.9307251
1605203085449,868,0.4716797,0.05682373,-0.79400635
1605203085449,869,0.45776367,0.42401123,-0.9307251
1605203085450,870,0.30981445,-0.41607666,-0.71832275
1605203085450,871,0.45776367,0.42401123,-0.9307251
1605203085450,872,0.08251953,-1.0337524,-0.5054321
1605203085451,873,0.4716797,0.05682373,-0.79400635
1605203085451,874,0.4716797,0.05682373,-0.79400635
1605203085452,875,0.14379883,-1.0064087,-0.50616455
1605203085452,876,0.30981445,-0.41607666,-0.71832275
1605203085452,877,0.30981445,-0.41607666,-0.71832275
1605203085453,878,0.08251953,-1.0337524,-0.5054321
1605203085453,879,0.35595703,-0.9138794,-0.55059814
1605203085454,880,0.08251953,-1.0337524,-0.5054321
1605203085454,881,0.14379883,-1.0064087,-0.50616455
1605203085455,882,0.5048828,-0.86138916,-0.46124268
1605203085455,883,0.35595703,-0.9138794,-0.55059814
1605203085456,884,0.45458984,-0.8352661,-0.30718994
1605203085456,885,0.5048828,-0.86138916,-0.46124268
1605203085457,886,0.39404297,-0.86798096,-0.2654419
1605203085457,887,0.14379883,-1.0064087,-0.50616455
1605203085459,888,0.45458984,-0.8352661,-0.30718994
1605203085459,889,0.35595703,-0.9138794,-0.55059814
1605203085459,890,0.37353516,-0.89801025,-0.29473877
1605203085460,891,0.5048828,-0.86138916,-0.46124268
1605203085461,892,0.30981445,-0.9307251,-0.34576416
1605203085461,893,0.39404297,-0.86798096,-0.2654419
1605203085462,894,0.45458984,-0.8352661,-0.30718994
1605203085462,895,0.39404297,-0.86798096,-0.2654419
1605203085464,896,0.37353516,-0.89801025,-0.29473877
1605203085467,897,0.37353516,-0.89801025,-0.29473877
1605203085468,898,0.30981445,-0.9307251,-0.34576416
1605203085468,899,0.34570312,-1.0071411,-0.4356079
1605203085468,900,0.23583984,-0.9356079,-0.29107666
1605203085468,901,0.34570312,-1.0071411,-0.4356079
1605203085469,902,0.34350586,-0.98883057,-0.19732666
1605203085469,903,0.23583984,-0.9356079,-0.29107666
1605203085470,904,0.34350586,-0.98883057,-0.19732666
1605203085471,905,0.38745117,-0.95928955,-0.27886963
1605203085472,906,0.38745117,-0.95928955,-0.27886963
1605203085473,907,0.4807129,-0.80792236,-0.37017822
1605203085473,908,0.4807129,-0.80792236,-0.37017822
1605203085473,909,0.45751953,-0.8435669,-0.3977661
1605203085474,910,0.43603516,-0.93463135,-0.30010986
1605203085475,911,0.30981445,-0.9307251,-0.34576416
1605203085475,912,0.45751953,-0.8435669,-0.3977661
1605203085476,913,0.34570312,-1.0071411,-0.4356079
1605203085476,914,0.2553711,-0.958313,-0.27105713
1605203085477,915,0.43603516,-0.93463135,-0.30010986
1605203085477,916,0.23583984,-0.9356079,-0.29107666
1605203085477,917,0.2553711,-0.958313,-0.27105713
1605203085477,918,0.34350586,-0.98883057,-0.19732666
1605203085478,919,0.17700195,-0.9807739,-0.15509033
1605203085478,920,0.17700195,-0.9807739,-0.15509033
1605203085479,921,0.38745117,-0.95928955,-0.27886963
1605203085479,922,0.29541016,-0.99176025,-0.121154785
1605203085479,923,0.29541016,-0.99176025,-0.121154785
1605203085480,924,0.4807129,-0.80792236,-0.37017822
1605203085481,925,0.5437012,-0.92144775,-0.19024658
1605203085481,926,0.45751953,-0.8435669,-0.3977661
1605203085481,927,0.5437012,-0.92144775,-0.19024658
1605203085481,928,0.46484375,-0.8904419,-0.18756104
1605203085481,929,0.43603516,-0.93463135,-0.30010986
1605203085481,930,0.33447266,-0.93536377,-0.29473877
1605203085482,931,0.2553711,-0.958313,-0.27105713
1605203085482,932,0.43603516,-0.9248657,-0.35528564
1605203085482,933,0.17700195,-0.9807739,-0.15509033
1605203085483,934,0.46484375,-0.8904419,-0.18756104
1605203085483,935,0.5292969,-0.9212036,-0.23712158
1605203085483,936,0.29541016,-0.99176025,-0.121154785
1605203085483,937,0.33447266,-0.93536377,-0.29473877
1605203085484,938,0.5197754,-0.8257446,-0.05670166
1605203085484,939,0.5437012,-0.92144775,-0.19024658
1605203085484,940,0.43603516,-0.9248657,-0.35528564
1605203085484,941,0.5292969,-0.9212036,-0.23712158
1605203085485,942,0.46484375,-0.8904419,-0.18756104
1605203085485,943,0.37646484,-0.7984009,-0.034484863
1605203085485,944,0.5197754,-0.8257446,-0.05670166
1605203085486,945,0.33447266,-0.93536377,-0.29473877
1605203085486,946,0.37646484,-0.7984009,-0.034484863
1605203085486,947,0.42211914,-0.8501587,-0.04522705
1605203085486,948,0.43603516,-0.9248657,-0.35528564
1605203085487,949,0.4609375,-0.9180298,-0.08673096
1605203085487,950,0.42211914,-0.8501587,-0.04522705
1605203085487,951,0.5292969,-0.9212036,-0.23712158
1605203085488,952,0.4609375,-0.9180298,-0.08673096
1605203085488,953,0.56152344,-0.9507446,-0.13604736
1605203085488,954,0.56152344,-0.9507446,-0.13604736
1605203085489,955,0.5197754,-0.8257446,-0.05670166
1605203085489,956,0.37646484,-0.7984009,-0.034484863
1605203085490,957,0.42211914,-0.8501587,-0.04522705
1605203085490,958,0.4609375,-0.9180298,-0.08673096
1605203085491,959,0.56152344,-0.9507446,-0.13604736
1605203088035,960,0.51293945,-0.8838501,-0.06304932
1605203088038,961,0.51293945,-0.8838501,-0.06304932
1605203088042,962,0.46801758,-0.8635864,0.003112793
1605203088045,963,0.46801758,-0.8635864,0.003112793
1605203088047,964,0.5632324,-0.88482666,-0.003967285
1605203088050,965,0.5632324,-0.88482666,-0.003967285
1605203088050,966,0.51293945,-0.8838501,-0.06304932
1605203088051,967,0.5895996,-0.9036255,-0.15875244
1605203088052,968,0.46801758,-0.8635864,0.003112793
1605203088054,969,0.5895996,-0.9036255,-0.15875244
1605203088054,970,0.5632324,-0.88482666,-0.003967285
1605203088059,971,0.5180664,-0.85040283,-0.27008057
1605203088059,972,0.5180664,-0.85040283,-0.27008057
1605203088059,973,0.50805664,-0.82354736,-0.28155518
1605203088059,974,0.50805664,-0.82354736,-0.28155518
1605203088060,975,0.49194336,-0.8245239,-0.25177002
1605203088060,976,0.49194336,-0.8245239,-0.25177002
1605203088063,977,0.46923828,-0.8460083,-0.18585205
1605203088066,978,0.46923828,-0.8460083,-0.18585205
1605203088066,979,0.4873047,-0.89263916,-0.128479
1605203088067,980,0.4873047,-0.89263916,-0.128479
1605203088068,981,0.54589844,-0.9224243,-0.06768799
1605203088069,982,0.54589844,-0.9224243,-0.06768799
1605203088070,983,0.4946289,-0.9043579,-0.018615723
1605203088070,984,0.4946289,-0.9043579,-0.018615723
1605203088071,985,0.48510742,-0.9690552,-0.003479004
1605203088072,986,0.48510742,-0.9690552,-0.003479004
1605203088073,987,0.45947266,-1.0606079,0.08050537
1605203088073,988,0.5895996,-0.9036255,-0.15875244
1605203088075,989,0.45947266,-1.0606079,0.08050537
1605203088075,990,0.5180664,-0.85040283,-0.27008057
1605203088075,991,0.38549805,-1.0630493,0.18133545
1605203088075,992,0.50805664,-0.82354736,-0.28155518
1605203088076,993,0.49194336,-0.8245239,-0.25177002
1605203088076,994,0.46923828,-0.8460083,-0.18585205
1605203088077,995,0.34155273,-0.9668579,0.24407959
1605203088077,996,0.38549805,-1.0630493,0.18133545
1605203088078,997,0.3161621,-0.8616333,0.35125732
1605203088079,998,0.34155273,-0.9668579,0.24407959
1605203088080,999,0.16577148,-0.8106079,0.38031006
1605203088081,1000,0.3161621,-0.8616333,0.35125732
1605203088081,1001,0.099609375,-0.8555298,0.43060303
1605203088082,1002,0.4873047,-0.89263916,-0.128479
1605203088082,1003,0.16577148,-0.8106079,0.38031006
1605203088082,1004,0.08178711,-0.7901001,0.55218506
1605203088083,1005,0.54589844,-0.9224243,-0.06768799
1605203088083,1006,0.0949707,-0.7354126,0.6503296
1605203088084,1007,0.4946289,-0.9043579,-0.018615723
1605203088084,1008,0.099609375,-0.8555298,0.43060303
1605203088085,1009,0.48510742,-0.9690552,-0.003479004
1605203088085,1010,0.08178711,-0.7901001,0.55218506
1605203088086,1011,0.45947266,-1.0606079,0.08050537
1605203088086,1012,0.05517578,-0.7476196,0.5980835
1605203088087,1013,0.38549805,-1.0630493,0.18133545
1605203088087,1014,0.059570312,-0.7529907,0.6095581
1605203088088,1015,0.34155273,-0.9668579,0.24407959
1605203088088,1016,0.052734375,-0.7022095,0.6559448
1605203088089,1017,0.0949707,-0.7354126,0.6503296
1605203088089,1018,0.3161621,-0.8616333,0.35125732
1605203088089,1019,0.020507812,-0.67803955,0.6273804
1605203088090,1020,0.05517578,-0.7476196,0.5980835
1605203088090,1021,0.16577148,-0.8106079,0.38031006
1605203088091,1022,0.049316406,-0.7168579,0.6491089
1605203088091,1023,0.059570312,-0.7529907,0.6095581
1605203088092,1024,0.099609375,-0.8555298,0.43060303
1605203088092,1025,0.04638672,-0.7659302,0.65423584
1605203088092,1026,0.052734375,-0.7022095,0.6559448
1605203088093,1027,-0.010009766,-0.8023071,0.6317749
1605203088093,1028,0.08178711,-0.7901001,0.55218506
1605203088094,1029,0.020507812,-0.67803955,0.6273804
1605203088094,1030,0.0949707,-0.7354126,0.6503296
1605203088095,1031,-0.021972656,-0.7839966,0.6869507
1605203088095,1032,0.049316406,-0.7168579,0.6491089
1605203088096,1033,0.05834961,-0.7932739,0.7477417
1605203088096,1034,0.05517578,-0.7476196,0.5980835
1605203088096,1035,0.04638672,-0.7659302,0.65423584
1605203088097,1036,0.12890625,-0.74664307,0.68670654
1605203088098,1037,0.059570312,-0.7529907,0.6095581
1605203088098,1038,0.07519531,-0.6716919,0.64715576
1605203088098,1039,-0.010009766,-0.8023071,0.6317749
1605203088099,1040,0.11450195,-0.6968384,0.6576538
1605203088099,1041,0.052734375,-0.7022095,0.6559448
1605203088099,1042,-0.021972656,-0.7839966,0.6869507
1605203088100,1043,0.020507812,-0.67803955,0.6273804
1605203088101,1044,0.05834961,-0.7932739,0.7477417
1605203088101,1045,0.049316406,-0.7168579,0.6491089
1605203088102,1046,0.12890625,-0.74664307,0.68670654
1605203088102,1047,0.04638672,-0.7659302,0.65423584
1605203088103,1048,0.07519531,-0.6716919,0.64715576
1605203088103,1049,-0.010009766,-0.8023071,0.6317749
1605203088104,1050,-0.021972656,-0.7839966,0.6869507
1605203088104,1051,0.11450195,-0.6968384,0.6576538
1605203088105,1052,0.05834961,-0.7932739,0.7477417
1605203088106,1053,0.12890625,-0.74664307,0.68670654
1605203088106,1054,0.07519531,-0.6716919,0.64715576
1605203088107,1055,0.11450195,-0.6968384,0.6576538
1605203090622,1056,0.064453125,-0.7036743,0.6762085
1605203090622,1057,0.064453125,-0.7036743,0.6762085
1605203090623,1058,0.064453125,-0.7036743,0.6762085
1605203090623,1059,0.024169922,-0.6860962,0.72283936
1605203090627,1060,0.024169922,-0.6860962,0.72283936
1605203090630,1061,0.024169922,-0.6860962,0.72283936
1605203090634,1062,0.08666992,-0.70513916,0.6754761
1605203090637,1063,0.08666992,-0.70513916,0.6754761
1605203090640,1064,0.1328125,-0.7022095,0.7296753
1605203090640,1065,0.1328125,-0.7022095,0.7296753
1605203090643,1066,0.08666992,-0.70513916,0.6754761
1605203090647,1067,0.13208008,-0.6194458,0.77093506
1605203090650,1068,0.1328125,-0.7022095,0.7296753
1605203090654,1069,0.12060547,-0.6133423,0.7284546
1605203090655,1070,0.13208008,-0.6194458,0.77093506
1605203090657,1071,0.06274414,-0.55718994,0.74554443
1605203090658,1072,0.12060547,-0.6133423,0.7284546
1605203090660,1073,0.13208008,-0.6194458,0.77093506
1605203090662,1074,0.06274414,-0.55718994,0.74554443
1605203090665,1075,0.12060547,-0.6133423,0.7284546
1605203090669,1076,-0.01928711,-0.56817627,0.7247925
1605203090672,1077,0.06274414,-0.55718994,0.74554443
1605203090675,1078,0.025146484,-0.55474854,0.8810425
1605203090679,1079,-0.01928711,-0.56817627,0.7247925
1605203090682,1080,0.076171875,-0.53131104,0.8969116
1605203090686,1081,0.025146484,-0.55474854,0.8810425
1605203090688,1082,0.044677734,-0.5383911,0.85321045
1605203090688,1083,0.076171875,-0.53131104,0.8969116
1605203090690,1084,-0.01928711,-0.56817627,0.7247925
1605203090691,1085,-0.0026855469,-0.4553833,0.8361206
1605203090692,1086,0.025146484,-0.55474854,0.8810425
1605203090694,1087,0.020263672,-0.45025635,0.9154663
1605203090694,1088,0.076171875,-0.53131104,0.8969116
1605203090695,1089,-0.03149414,-0.34820557,0.932312
1605203090697,1090,0.044677734,-0.5383911,0.85321045
1605203090698,1091,-0.06665039,-0.3513794,0.93133545
1605203090698,1092,-0.0026855469,-0.4553833,0.8361206
1605203090699,1093,-0.020751953,-0.3447876,0.9730835
1605203090700,1094,0.044677734,-0.5383911,0.85321045
1605203090701,1095,0.06591797,-0.64190674,0.8048706
1605203090702,1096,-0.0026855469,-0.4553833,0.8361206
1605203090703,1097,0.0637207,-0.76153564,0.5973511
1605203090704,1098,0.020263672,-0.45025635,0.9154663
1605203090704,1099,0.020263672,-0.45025635,0.9154663
1605203090705,1100,-0.03149414,-0.34820557,0.932312
1605203090706,1101,-0.03149414,-0.34820557,0.932312
1605203090706,1102,0.13549805,-0.72979736,0.59539795
1605203090706,1103,0.06347656,-0.75372314,0.6991577
1605203090707,1104,-0.06665039,-0.3513794,0.93133545
1605203090709,1105,0.021240234,-0.7246704,0.621521
1605203090710,1106,-0.020751953,-0.3447876,0.9730835
1605203090710,1107,-0.06665039,-0.3513794,0.93133545
1605203090712,1108,-0.021240234,-0.69488525,0.6034546
1605203090712,1109,0.06591797,-0.64190674,0.8048706
1605203090712,1110,-0.020751953,-0.3447876,0.9730835
1605203090713,1111,-0.122558594,-0.6367798,0.732605
1605203090714,1112,0.0637207,-0.76153564,0.5973511
1605203090714,1113,0.06591797,-0.64190674,0.8048706
1605203090715,1114,-0.1274414,-0.6277466,0.807312
1605203090716,1115,0.13549805,-0.72979736,0.59539795
1605203090717,1116,0.0637207,-0.76153564,0.5973511
1605203090718,1117,-0.013916016,-0.5942993,0.89764404
1605203090718,1118,0.13549805,-0.72979736,0.59539795
1605203090719,1119,0.06347656,-0.75372314,0.6991577
1605203090720,1120,0.07006836,-0.53985596,0.91619873
1605203090720,1121,0.06347656,-0.75372314,0.6991577
1605203090720,1122,0.021240234,-0.7246704,0.621521
1605203090721,1123,0.021240234,-0.7246704,0.621521
1605203090722,1124,-0.021240234,-0.69488525,0.6034546
1605203090722,1125,0.122558594,-0.54278564,0.9137573
1605203090724,1126,-0.021240234,-0.69488525,0.6034546
1605203090724,1127,-0.122558594,-0.6367798,0.732605
1605203090725,1128,0.068847656,-0.53790283,0.7914429
1605203090726,1129,-0.1274414,-0.6277466,0.807312
1605203090727,1130,-0.122558594,-0.6367798,0.732605
1605203090727,1131,0.115722656,-0.5718384,0.77948
1605203090731,1132,-0.013916016,-0.5942993,0.89764404
1605203090731,1133,-0.1274414,-0.6277466,0.807312
1605203090731,1134,0.37890625,-0.6099243,0.8283081
1605203090731,1135,0.07006836,-0.53985596,0.91619873
1605203090732,1136,-0.013916016,-0.5942993,0.89764404
1605203090732,1137,0.49780273,-0.600647,0.80755615
1605203090732,1138,0.122558594,-0.54278564,0.9137573
1605203090732,1139,0.48095703,-0.7583618,0.49871826
1605203090732,1140,0.07006836,-0.53985596,0.91619873
1605203090733,1141,0.068847656,-0.53790283,0.7914429
1605203090733,1142,0.122558594,-0.54278564,0.9137573
1605203090733,1143,0.115722656,-0.5718384,0.77948
1605203090733,1144,0.37890625,-0.6099243,0.8283081
1605203090734,1145,0.068847656,-0.53790283,0.7914429
1605203090735,1146,0.49780273,-0.600647,0.80755615
1605203090736,1147,0.115722656,-0.5718384,0.77948
1605203090737,1148,0.48095703,-0.7583618,0.49871826
1605203090737,1149,0.37890625,-0.6099243,0.8283081
1605203090738,1150,0.49780273,-0.600647,0.80755615
1605203090739,1151,0.48095703,-0.7583618,0.49871826
1605203093207,1152,0.5163574,-0.99786377,0.22772217
1605203093207,1153,0.5163574,-0.99786377,0.22772217
1605203093207,1154,0.5163574,-0.99786377,0.22772217
1605203093209,1155,0.44140625,-1.0825806,-0.0068969727
1605203093213,1156,0.44140625,-1.0825806,-0.0068969727
1605203093217,1157,0.33764648,-1.175354,-0.36749268
1605203093221,1158,0.33764648,-1.175354,-0.36749268
1605203093225,1159,0.30297852,-1.0134888,-0.86676025
1605203093226,1160,0.44140625,-1.0825806,-0.0068969727
1605203093226,1161,0.30297852,-1.0134888,-0.86676025
1605203093229,1162,0.32348633,-0.77667236,-1.0293579
1605203093232,1163,0.33764648,-1.175354,-0.36749268
1605203093236,1164,0.30297852,-1.0134888,-0.86676025
1605203093237,1165,0.19555664,-0.427063,-0.9976196
1605203093239,1166,0.32348633,-0.77667236,-1.0293579
1605203093240,1167,0.32348633,-0.77667236,-1.0293579
1605203093242,1168,0.19970703,-0.065979004,-0.8555298
1605203093243,1169,0.19555664,-0.427063,-0.9976196
1605203093244,1170,0.28393555,0.0368042,-0.7349243
1605203093248,1171,0.19970703,-0.065979004,-0.8555298
1605203093251,1172,0.19555664,-0.427063,-0.9976196
1605203093255,1173,0.19970703,-0.065979004,-0.8555298
1605203093255,1174,0.43359375,0.06585693,-0.7229614
1605203093258,1175,0.28393555,0.0368042,-0.7349243
1605203093264,1176,0.592041,0.17694092,-0.7559204
1605203093264,1177,0.28393555,0.0368042,-0.7349243
1605203093266,1178,0.60961914,0.184021,-0.76568604
1605203093266,1179,0.43359375,0.06585693,-0.7229614
1605203093267,1180,0.5749512,0.035095215,-0.95928955
1605203093271,1181,0.592041,0.17694092,-0.7559204
1605203093272,1182,0.43359375,0.06585693,-0.7229614
1605203093274,1183,0.592041,0.17694092,-0.7559204
1605203093276,1184,0.60961914,0.184021,-0.76568604
1605203093277,1185,0.60961914,0.184021,-0.76568604
1605203093278,1186,0.5749512,0.035095215,-0.95928955
1605203093280,1187,0.6779785,-0.05718994,-1.2647095
1605203093280,1188,0.58251953,-0.10748291,-1.2180786
1605203093282,1189,0.5749512,0.035095215,-0.95928955
1605203093283,1190,0.6779785,-0.05718994,-1.2647095
1605203093284,1191,0.58251953,-0.10748291,-1.2180786
1605203093286,1192,0.6779785,-0.05718994,-1.2647095
1605203093287,1193,0.35791016,-0.01739502,-1.0383911
1605203093288,1194,0.58251953,-0.10748291,-1.2180786
1605203093290,1195,0.35791016,-0.01739502,-1.0383911
1605203093290,1196,0.35791016,-0.01739502,-1.0383911
1605203093291,1197,0.19506836,-0.21246338,-0.94781494
1605203093292,1198,0.19506836,-0.21246338,-0.94781494
1605203093293,1199,0.12573242,-0.3748169,-0.7686157
1605203093294,1200,0.12573242,-0.3748169,-0.7686157
1605203093295,1201,0.047851562,-0.58306885,-0.71710205
1605203093295,1202,0.19506836,-0.21246338,-0.94781494
1605203093297,1203,0.11230469,-0.7034302,-0.7451782
1605203093299,1204,0.12573242,-0.3748169,-0.7686157
1605203093299,1205,0.08178711,-0.7085571,-0.7593384
1605203093301,1206,-0.020263672,-0.76226807,-0.6536255
1605203093302,1207,0.047851562,-0.58306885,-0.71710205
1605203093303,1208,0.050048828,-0.8772583,-0.7498169
1605203093304,1209,0.047851562,-0.58306885,-0.71710205
1605203093305,1210,0.13427734,-0.84747314,-0.7671509
1605203093306,1211,0.11230469,-0.7034302,-0.7451782
1605203093307,1212,0.20214844,-0.7263794,-0.86724854
1605203093307,1213,0.08178711,-0.7085571,-0.7593384
1605203093308,1214,0.24291992,-0.5479126,-0.8362427
1605203093309,1215,-0.020263672,-0.76226807,-0.6536255
1605203093310,1216,0.050048828,-0.8772583,-0.7498169
1605203093311,1217,0.2043457,-0.5215454,-0.68414307
1605203093312,1218,0.11230469,-0.7034302,-0.7451782
1605203093313,1219,0.41235352,-0.848938,-0.6148071
1605203093314,1220,0.13427734,-0.84747314,-0.7671509
1605203093315,1221,0.08178711,-0.7085571,-0.7593384
1605203093316,1222,0.20214844,-0.7263794,-0.86724854
1605203093317,1223,-0.020263672,-0.76226807,-0.6536255
1605203093318,1224,0.24291992,-0.5479126,-0.8362427
1605203093319,1225,0.050048828,-0.8772583,-0.7498169
1605203093320,1226,0.2043457,-0.5215454,-0.68414307
1605203093321,1227,0.13427734,-0.84747314,-0.7671509
1605203093322,1228,0.20214844,-0.7263794,-0.86724854
1605203093324,1229,0.43823242,-0.7522583,-0.51226807
1605203093324,1230,0.24291992,-0.5479126,-0.8362427
1605203093324,1231,0.41235352,-0.848938,-0.6148071
1605203093326,1232,0.2043457,-0.5215454,-0.68414307
1605203093327,1233,0.43823242,-0.7522583,-0.51226807
1605203093329,1234,0.5415039,-0.9221802,-0.4241333
1605203093329,1235,0.5415039,-0.9221802,-0.4241333
1605203093329,1236,0.41235352,-0.848938,-0.6148071
1605203093331,1237,0.5876465,-0.72198486,-0.43780518
1605203093331,1238,0.43823242,-0.7522583,-0.51226807
1605203093332,1239,0.5854492,-0.82476807,-0.42388916
1605203093334,1240,0.5876465,-0.72198486,-0.43780518
1605203093335,1241,0.55688477,-0.80670166,-0.3723755
1605203093337,1242,0.5854492,-0.82476807,-0.42388916
1605203093337,1243,0.5415039,-0.9221802,-0.4241333
1605203093339,1244,0.55688477,-0.80670166,-0.3723755
1605203093339,1245,0.5876465,-0.72198486,-0.43780518
1605203093340,1246,0.5854492,-0.82476807,-0.42388916
1605203093342,1247,0.55688477,-0.80670166,-0.3723755
1605203095793,1248,0.47387695,-0.5628052,-0.60113525
1605203095793,1249,0.47387695,-0.5628052,-0.60113525
1605203095794,1250,0.47387695,-0.5628052,-0.60113525
1605203095794,1251,0.50390625,-0.64434814,-0.78302
1605203095796,1252,0.50390625,-0.64434814,-0.78302
1605203095800,1253,0.43139648,-0.769104,-0.6758423
1605203095803,1254,0.43139648,-0.769104,-0.6758423
1605203095807,1255,0.3786621,-0.6087036,-0.7180786
1605203095811,1256,0.3786621,-0.6087036,-0.7180786
1605203095815,1257,0.3564453,-0.6382446,-0.63067627
1605203095818,1258,0.3564453,-0.6382446,-0.63067627
1605203095822,1259,0.40942383,-0.74346924,-0.56451416
1605203095826,1260,0.40942383,-0.74346924,-0.56451416
1605203095829,1261,0.34179688,-0.6946411,-0.63116455
1605203095833,1262,0.34179688,-0.6946411,-0.63116455
1605203095836,1263,0.27856445,-0.7749634,-0.6536255
1605203095837,1264,0.27856445,-0.7749634,-0.6536255
1605203095841,1265,0.15039062,-0.6734009,-0.61260986
1605203095842,1266,0.15039062,-0.6734009,-0.61260986
1605203095845,1267,0.15478516,-0.87872314,-0.579895
1605203095847,1268,0.15478516,-0.87872314,-0.579895
1605203095848,1269,0.25097656,-0.7190552,-0.75006104
1605203095849,1270,0.25097656,-0.7190552,-0.75006104
1605203095850,1271,0.26342773,-0.4199829,-0.79107666
1605203095850,1272,0.50390625,-0.64434814,-0.78302
1605203095851,1273,0.26342773,-0.4199829,-0.79107666
1605203095852,1274,0.43139648,-0.769104,-0.6758423
1605203095853,1275,0.14819336,-0.5054321,-1.0213013
1605203095854,1276,0.3786621,-0.6087036,-0.7180786
1605203095854,1277,0.20336914,-0.4138794,-1.12677
1605203095855,1278,0.14819336,-0.5054321,-1.0213013
1605203095856,1279,0.100097656,-0.14898682,-0.97076416
1605203095857,1280,0.20336914,-0.4138794,-1.12677
1605203095858,1281,-0.06542969,-0.58428955,-0.84991455
1605203095859,1282,0.100097656,-0.14898682,-0.97076416
1605203095860,1283,-0.20654297,-0.9746704,-0.8982544
1605203095861,1284,-0.06542969,-0.58428955,-0.84991455
1605203095863,1285,-0.2175293,-0.90997314,-0.78741455
1605203095864,1286,0.3564453,-0.6382446,-0.63067627
1605203095864,1287,-0.20654297,-0.9746704,-0.8982544
1605203095864,1288,0.17358398,-0.87823486,-0.7329712
1605203095865,1289,0.40942383,-0.74346924,-0.56451416
1605203095865,1290,-0.2175293,-0.90997314,-0.78741455
1605203095865,1291,0.34179688,-0.6946411,-0.63116455
1605203095865,1292,0.17358398,-0.87823486,-0.7329712
1605203095867,1293,0.4921875,-0.597229,-0.78619385
1605203095869,1294,0.4921875,-0.597229,-0.78619385
1605203095869,1295,0.5595703,-0.32086182,-0.7815552
1605203095870,1296,0.56884766,-0.06549072,-0.8394165
1605203095872,1297,0.51171875,-0.22076416,-0.92266846
1605203095873,1298,0.22485352,-0.49786377,-0.8850708
1605203095874,1299,0.27856445,-0.7749634,-0.6536255
1605203095874,1300,-0.012451172,-0.84088135,-0.862854
1605203095877,1301,0.5595703,-0.32086182,-0.7815552
1605203095877,1302,-0.17114258,-0.90704346,-0.74542236
1605203095877,1303,0.56884766,-0.06549072,-0.8394165
1605203095877,1304,0.15039062,-0.6734009,-0.61260986
1605203095878,1305,-0.18774414,-0.83721924,-0.5840454
1605203095879,1306,0.51171875,-0.22076416,-0.92266846
1605203095880,1307,0.15478516,-0.87872314,-0.579895
1605203095880,1308,-0.029052734,-1.1638794,-0.597229
1605203095880,1309,0.22485352,-0.49786377,-0.8850708
1605203095883,1310,0.1628418,-1.2293091,-0.616272
1605203095883,1311,0.25097656,-0.7190552,-0.75006104
1605203095883,1312,-0.012451172,-0.84088135,-0.862854
1605203095884,1313,0.2763672,-1.269104,-0.69415283
1605203095884,1314,0.26342773,-0.4199829,-0.79107666
1605203095884,1315,-0.17114258,-0.90704346,-0.74542236
1605203095885,1316,0.20019531,-0.98516846,-0.6621704
1605203095885,1317,0.14819336,-0.5054321,-1.0213013
1605203095886,1318,-0.18774414,-0.83721924,-0.5840454
1605203095887,1319,0.14550781,-0.7608032,-0.6133423
1605203095888,1320,-0.029052734,-1.1638794,-0.597229
1605203095888,1321,0.20336914,-0.4138794,-1.12677
1605203095890,1322,0.1628418,-1.2293091,-0.616272
1605203095890,1323,0.100097656,-0.14898682,-0.97076416
1605203095891,1324,0.2763672,-1.269104,-0.69415283
1605203095891,1325,-0.06542969,-0.58428955,-0.84991455
1605203095891,1326,0.20019531,-0.98516846,-0.6621704
1605203095891,1327,-0.20654297,-0.9746704,-0.8982544
1605203095892,1328,0.14550781,-0.7608032,-0.6133423
1605203095894,1329,-0.2175293,-0.90997314,-0.78741455
1605203095894,1330,0.17358398,-0.87823486,-0.7329712
1605203095896,1331,0.4921875,-0.597229,-0.78619385
1605203095897,1332,0.5595703,-0.32086182,-0.7815552
1605203095899,1333,0.56884766,-0.06549072,-0.8394165
1605203095900,1334,0.51171875,-0.22076416,-0.92266846
1605203095900,1335,0.22485352,-0.49786377,-0.8850708
1605203095901,1336,-0.012451172,-0.84088135,-0.862854
1605203095902,1337,-0.17114258,-0.90704346,-0.74542236
1605203095903,1338,-0.18774414,-0.83721924,-0.5840454
1605203095904,1339,-0.029052734,-1.1638794,-0.597229
1605203095905,1340,0.1628418,-1.2293091,-0.616272
1605203095906,1341,0.2763672,-1.269104,-0.69415283
1605203095907,1342,0.20019531,-0.98516846,-0.6621704
1605203095908,1343,0.14550781,-0.7608032,-0.6133423
1605203098365,1344,0.15454102,-0.6045532,-0.49639893
1605203098366,1345,0.15454102,-0.6045532,-0.49639893
1605203098368,1346,0.24511719,-0.5523071,-0.5027466
1605203098368,1347,0.15454102,-0.6045532,-0.49639893
1605203098368,1348,0.24511719,-0.5523071,-0.5027466
1605203098369,1349,0.24511719,-0.5523071,-0.5027466
1605203098369,1350,0.3786621,-0.27886963,-0.472229
1605203098371,1351,0.3786621,-0.27886963,-0.472229
1605203098371,1352,0.3786621,-0.27886963,-0.472229
1605203098371,1353,0.5065918,-0.26593018,-0.67681885
1605203098371,1354,0.7763672,-0.2420044,-0.788147
1605203098373,1355,0.5065918,-0.26593018,-0.67681885
1605203098373,1356,1.0119629,-0.6555786,-0.89190674
1605203098373,1357,0.7763672,-0.2420044,-0.788147
1605203098374,1358,0.5065918,-0.26593018,-0.67681885
1605203098376,1359,0.7763672,-0.2420044,-0.788147
1605203098376,1360,0.94262695,-0.86065674,-0.91290283
1605203098376,1361,1.0119629,-0.6555786,-0.89190674
1605203098376,1362,1.0119629,-0.6555786,-0.89190674
1605203098377,1363,0.6203613,-0.8093872,-0.7595825
1605203098378,1364,0.94262695,-0.86065674,-0.91290283
1605203098379,1365,0.94262695,-0.86065674,-0.91290283
1605203098379,1366,0.37890625,-0.756897,-0.5442505
1605203098379,1367,0.6203613,-0.8093872,-0.7595825
1605203098380,1368,0.6203613,-0.8093872,-0.7595825
1605203098380,1369,0.40185547,-0.9673462,-0.6033325
1605203098380,1370,0.37890625,-0.756897,-0.5442505
1605203098381,1371,0.37890625,-0.756897,-0.5442505
1605203098381,1372,0.71972656,-1.006897,-0.8076782
1605203098381,1373,0.40185547,-0.9673462,-0.6033325
1605203098382,1374,0.9309082,-0.77301025,-0.7974243
1605203098382,1375,0.40185547,-0.9673462,-0.6033325
1605203098383,1376,0.71972656,-1.006897,-0.8076782
1605203098383,1377,1.1765137,-0.6885376,-0.74591064
1605203098384,1378,0.71972656,-1.006897,-0.8076782
1605203098384,1379,0.9309082,-0.77301025,-0.7974243
1605203098386,1380,0.9309082,-0.77301025,-0.7974243
1605203098386,1381,1.1696777,-0.5552368,-0.6712036
1605203098387,1382,1.1765137,-0.6885376,-0.74591064
1605203098387,1383,1.1765137,-0.6885376,-0.74591064
1605203098387,1384,0.7636719,-0.3086548,-0.5130005
1605203098387,1385,1.1696777,-0.5552368,-0.6712036
1605203098388,1386,0.55126953,-0.1921997,-0.4446411
1605203098388,1387,1.1696777,-0.5552368,-0.6712036
1605203098388,1388,0.7636719,-0.3086548,-0.5130005
1605203098388,1389,0.5107422,-0.06304932,-0.38531494
1605203098390,1390,0.55126953,-0.1921997,-0.4446411
1605203098390,1391,0.5415039,-0.14239502,-0.35528564
1605203098391,1392,0.7636719,-0.3086548,-0.5130005
1605203098391,1393,0.5107422,-0.06304932,-0.38531494
1605203098391,1394,0.5415039,-0.14239502,-0.35528564
1605203098392,1395,0.55126953,-0.1921997,-0.4446411
1605203098394,1396,0.79345703,-0.49639893,-0.5894165
1605203098394,1397,0.5107422,-0.06304932,-0.38531494
1605203098394,1398,0.79345703,-0.49639893,-0.5894165
1605203098394,1399,0.5415039,-0.14239502,-0.35528564
1605203098396,1400,1.0395508,-0.7415161,-0.736145
1605203098396,1401,1.0395508,-0.7415161,-0.736145
1605203098397,1402,0.79345703,-0.49639893,-0.5894165
1605203098397,1403,0.9243164,-0.8706665,-0.7720337
1605203098397,1404,1.0395508,-0.7415161,-0.736145
1605203098397,1405,0.7158203,-0.77911377,-0.8027954
1605203098398,1406,0.9243164,-0.8706665,-0.7720337
1605203098398,1407,0.9243164,-0.8706665,-0.7720337
1605203098399,1408,0.5744629,-0.61553955,-0.79888916
1605203098399,1409,0.7158203,-0.77911377,-0.8027954
1605203098399,1410,0.7158203,-0.77911377,-0.8027954
1605203098400,1411,0.47998047,-0.59381104,-0.8616333
1605203098401,1412,0.5744629,-0.61553955,-0.79888916
1605203098401,1413,0.5744629,-0.61553955,-0.79888916
1605203098402,1414,0.47998047,-0.59381104,-0.8616333
1605203098402,1415,0.4230957,-0.65045166,-0.9780884
1605203098402,1416,0.47998047,-0.59381104,-0.8616333
1605203098402,1417,0.4230957,-0.65045166,-0.9780884
1605203098403,1418,0.7199707,-0.7732544,-1.017395
1605203098403,1419,0.4230957,-0.65045166,-0.9780884
1605203098403,1420,0.7199707,-0.7732544,-1.017395
1605203098404,1421,0.78222656,-0.7439575,-0.881897
1605203098404,1422,0.7199707,-0.7732544,-1.017395
1605203098404,1423,0.78222656,-0.7439575,-0.881897
1605203098406,1424,0.7421875,-0.47906494,-0.7178345
1605203098406,1425,0.78222656,-0.7439575,-0.881897
1605203098407,1426,0.7421875,-0.47906494,-0.7178345
1605203098407,1427,0.70703125,-0.25543213,-0.62042236
1605203098407,1428,0.70703125,-0.25543213,-0.62042236
1605203098408,1429,0.7319336,-0.031555176,-0.53985596
1605203098408,1430,0.7421875,-0.47906494,-0.7178345
1605203098408,1431,0.5722656,0.10809326,-0.534729
1605203098408,1432,0.70703125,-0.25543213,-0.62042236
1605203098409,1433,0.7319336,-0.031555176,-0.53985596
1605203098409,1434,0.5722656,0.10809326,-0.534729
1605203098410,1435,0.42211914,0.07562256,-0.8086548
1605203098410,1436,0.7319336,-0.031555176,-0.53985596
1605203098410,1437,0.42211914,0.07562256,-0.8086548
1605203098411,1438,0.5722656,0.10809326,-0.534729
1605203098412,1439,0.42211914,0.07562256,-0.8086548
1605203100949,1440,0.2919922,-0.32574463,-1.1289673
1605203100950,1441,0.12988281,-0.6436157,-1.0567017
1605203100952,1442,0.2919922,-0.32574463,-1.1289673
1605203100953,1443,0.23828125,-0.5725708,-0.6008911
1605203100955,1444,0.2919922,-0.32574463,-1.1289673
1605203100955,1445,0.6369629,-0.75177,-0.097717285
1605203100957,1446,0.12988281,-0.6436157,-1.0567017
1605203100958,1447,1.1157227,-0.6013794,0.042907715
1605203100960,1448,0.12988281,-0.6436157,-1.0567017
1605203100960,1449,0.23828125,-0.5725708,-0.6008911
1605203100960,1450,1.1608887,-0.39117432,-0.10089111
1605203100961,1451,0.6369629,-0.75177,-0.097717285
1605203100962,1452,1.0319824,-0.52960205,-0.2432251
1605203100962,1453,1.1157227,-0.6013794,0.042907715
1605203100963,1454,0.23828125,-0.5725708,-0.6008911
1605203100965,1455,0.8623047,-0.7090454,-0.14923096
1605203100966,1456,0.6369629,-0.75177,-0.097717285
1605203100966,1457,1.1608887,-0.39117432,-0.10089111
1605203100966,1458,0.8234863,-0.7612915,-0.1104126
1605203100966,1459,1.1157227,-0.6013794,0.042907715
1605203100967,1460,1.0319824,-0.52960205,-0.2432251
1605203100968,1461,1.1608887,-0.39117432,-0.10089111
1605203100969,1462,0.7080078,-0.69317627,-0.19708252
1605203100970,1463,0.8623047,-0.7090454,-0.14923096
1605203100971,1464,1.0319824,-0.52960205,-0.2432251
1605203100971,1465,0.7385254,-0.72198486,-0.124572754
1605203100972,1466,0.8234863,-0.7612915,-0.1104126
1605203100975,1467,0.8623047,-0.7090454,-0.14923096
1605203100976,1468,0.7080078,-0.69317627,-0.19708252
1605203100976,1469,0.66967773,-0.81866455,-0.11920166
1605203100976,1470,0.8234863,-0.7612915,-0.1104126
1605203100976,1471,0.7385254,-0.72198486,-0.124572754
1605203100977,1472,0.73999023,-0.6843872,-0.13873291
1605203100977,1473,0.66967773,-0.81866455,-0.11920166
1605203100977,1474,0.7080078,-0.69317627,-0.19708252
1605203100979,1475,0.73999023,-0.6843872,-0.13873291
1605203100979,1476,0.6218262,-0.6482544,-0.19390869
1605203100979,1477,0.7385254,-0.72198486,-0.124572754
1605203100981,1478,0.6218262,-0.6482544,-0.19390869
1605203100981,1479,0.7709961,-0.6477661,-0.10723877
1605203100981,1480,0.66967773,-0.81866455,-0.11920166
1605203100982,1481,0.86621094,-0.63482666,-0.07940674
1605203100983,1482,0.73999023,-0.6843872,-0.13873291
1605203100983,1483,0.7709961,-0.6477661,-0.10723877
1605203100984,1484,0.9873047,-0.66851807,-0.016906738
1605203100985,1485,0.86621094,-0.63482666,-0.07940674
1605203100985,1486,0.6218262,-0.6482544,-0.19390869
1605203100986,1487,0.9873047,-0.66851807,-0.016906738
1605203100986,1488,0.8886719,-0.71343994,-0.06695557
1605203100987,1489,0.7709961,-0.6477661,-0.10723877
1605203100987,1490,0.71435547,-0.7124634,-0.097961426
1605203100988,1491,0.8886719,-0.71343994,-0.06695557
1605203100988,1492,0.86621094,-0.63482666,-0.07940674
1605203100989,1493,0.6279297,-0.7695923,-0.089416504
1605203100990,1494,0.71435547,-0.7124634,-0.097961426
1605203100991,1495,0.6044922,-0.87750244,-0.0803833
1605203100993,1496,0.9873047,-0.66851807,-0.016906738
1605203100993,1497,0.6279297,-0.7695923,-0.089416504
1605203100993,1498,0.5683594,-1.003479,-0.027160645
1605203100994,1499,0.6044922,-0.87750244,-0.0803833
1605203100994,1500,0.8886719,-0.71343994,-0.06695557
1605203100995,1501,0.45703125,-0.8850708,-0.12384033
1605203100996,1502,0.5683594,-1.003479,-0.027160645
1605203100996,1503,0.71435547,-0.7124634,-0.097961426
1605203100997,1504,0.6308594,-0.6807251,-0.26202393
1605203100997,1505,0.6279297,-0.7695923,-0.089416504
1605203100999,1506,0.45703125,-0.8850708,-0.12384033
1605203101000,1507,0.7680664,-0.4685669,-0.40338135
1605203101000,1508,0.6044922,-0.87750244,-0.0803833
1605203101000,1509,0.6308594,-0.6807251,-0.26202393
1605203101002,1510,0.5683594,-1.003479,-0.027160645
1605203101002,1511,0.77783203,-0.42340088,-0.5132446
1605203101002,1512,0.7895508,-0.6397095,-0.5598755
1605203101003,1513,0.7680664,-0.4685669,-0.40338135
1605203101003,1514,0.7753906,-0.5779419,-0.5437622
1605203101004,1515,0.77783203,-0.42340088,-0.5132446
1605203101004,1516,0.45703125,-0.8850708,-0.12384033
1605203101004,1517,0.7182617,-0.442688,-0.5574341
1605203101004,1518,0.6308594,-0.6807251,-0.26202393
1605203101004,1519,0.7895508,-0.6397095,-0.5598755
1605203101005,1520,0.46264648,-0.30963135,-0.56573486
1605203101006,1521,0.7680664,-0.4685669,-0.40338135
1605203101006,1522,0.7753906,-0.5779419,-0.5437622
1605203101007,1523,0.42773438,-0.44171143,-0.6963501
1605203101007,1524,0.77783203,-0.42340088,-0.5132446
1605203101007,1525,0.7182617,-0.442688,-0.5574341
1605203101008,1526,0.7895508,-0.6397095,-0.5598755
1605203101008,1527,0.46264648,-0.30963135,-0.56573486
1605203101008,1528,0.36376953,-0.46148682,-0.69195557
1605203101009,1529,0.7753906,-0.5779419,-0.5437622
1605203101009,1530,0.42773438,-0.44171143,-0.6963501
1605203101010,1531,0.7182617,-0.442688,-0.5574341
1605203101010,1532,0.36376953,-0.46148682,-0.69195557
1605203101010,1533,0.46264648,-0.30963135,-0.56573486
1605203101011,1534,0.42773438,-0.44171143,-0.6963501
1605203101012,1535,0.36376953,-0.46148682,-0.69195557
1605203103334,1536,0.3996582,-0.4902954,-0.6428833
1605203103335,1537,0.5163574,-0.6655884,-0.6289673
1605203103336,1538,0.64038086,-0.72198486,-0.73760986
1605203103337,1539,0.6010742,-0.7810669,-0.894104
1605203103337,1540,0.3996582,-0.4902954,-0.6428833
1605203103338,1541,0.3996582,-0.4902954,-0.6428833
1605203103339,1542,0.50219727,-0.6980591,-0.85772705
1605203103339,1543,0.5163574,-0.6655884,-0.6289673
1605203103340,1544,0.5163574,-0.6655884,-0.6289673
1605203103342,1545,0.64038086,-0.72198486,-0.73760986
1605203103343,1546,0.7089844,-0.53302,-0.72784424
1605203103343,1547,0.64038086,-0.72198486,-0.73760986
1605203103343,1548,0.6010742,-0.7810669,-0.894104
1605203103343,1549,0.7595215,-0.3027954,-0.60040283
1605203103343,1550,0.6010742,-0.7810669,-0.894104
1605203103344,1551,0.50219727,-0.6980591,-0.85772705
1605203103345,1552,0.50219727,-0.6980591,-0.85772705
1605203103346,1553,0.7089844,-0.53302,-0.72784424
1605203103346,1554,0.7241211,-0.2498169,-0.6277466
1605203103347,1555,0.7089844,-0.53302,-0.72784424
1605203103348,1556,0.7595215,-0.3027954,-0.60040283
1605203103348,1557,0.7783203,-0.45855713,-0.7671509
1605203103348,1558,0.7595215,-0.3027954,-0.60040283
1605203103348,1559,0.7241211,-0.2498169,-0.6277466
1605203103350,1560,0.72802734,-0.5652466,-0.8467407
1605203103351,1561,0.7241211,-0.2498169,-0.6277466
1605203103351,1562,0.7783203,-0.45855713,-0.7671509
1605203103351,1563,0.7783203,-0.45855713,-0.7671509
1605203103352,1564,0.57788086,-0.54107666,-0.93292236
1605203103352,1565,0.72802734,-0.5652466,-0.8467407
1605203103352,1566,0.37817383,-0.50982666,-1.0359497
1605203103354,1567,0.57788086,-0.54107666,-0.93292236
1605203103354,1568,0.29663086,-0.48858643,-1.0188599
1605203103354,1569,0.72802734,-0.5652466,-0.8467407
1605203103354,1570,0.29174805,-0.520813,-0.9338989
1605203103355,1571,0.57788086,-0.54107666,-0.93292236
1605203103357,1572,0.37817383,-0.50982666,-1.0359497
1605203103358,1573,0.37817383,-0.50982666,-1.0359497
1605203103358,1574,0.3935547,-0.47857666,-0.88287354
1605203103360,1575,0.29663086,-0.48858643,-1.0188599
1605203103360,1576,0.5410156,-0.29864502,-0.8591919
1605203103360,1577,0.29663086,-0.48858643,-1.0188599
1605203103360,1578,0.29174805,-0.520813,-0.9338989
1605203103361,1579,0.29174805,-0.520813,-0.9338989
1605203103361,1580,0.607666,-0.010559082,-0.6873169
1605203103362,1581,0.3935547,-0.47857666,-0.88287354
1605203103363,1582,0.5046387,0.038757324,-0.5886841
1605203103364,1583,0.3935547,-0.47857666,-0.88287354
1605203103366,1584,0.5410156,-0.29864502,-0.8591919
1605203103366,1585,0.55688477,-0.18121338,-0.65167236
1605203103367,1586,0.5410156,-0.29864502,-0.8591919
1605203103367,1587,0.607666,-0.010559082,-0.6873169
1605203103369,1588,0.6928711,-0.22662354,-0.6643677
1605203103369,1589,0.607666,-0.010559082,-0.6873169
1605203103369,1590,0.5046387,0.038757324,-0.5886841
1605203103370,1591,0.7416992,-0.5755005,-0.803772
1605203103371,1592,0.5046387,0.038757324,-0.5886841
1605203103371,1593,0.55688477,-0.18121338,-0.65167236
1605203103373,1594,0.55688477,-0.18121338,-0.65167236
1605203103373,1595,0.69921875,-0.8074341,-1.0357056
1605203103374,1596,0.6928711,-0.22662354,-0.6643677
1605203103375,1597,0.6928711,-0.22662354,-0.6643677
1605203103376,1598,0.453125,-0.76446533,-1.0022583
1605203103376,1599,0.7416992,-0.5755005,-0.803772
1605203103377,1600,0.7416992,-0.5755005,-0.803772
1605203103377,1601,0.69921875,-0.8074341,-1.0357056
1605203103379,1602,0.36743164,-0.58917236,-0.9133911
1605203103379,1603,0.69921875,-0.8074341,-1.0357056
1605203103379,1604,0.453125,-0.76446533,-1.0022583
1605203103380,1605,0.5024414,-0.6355591,-0.90460205
1605203103380,1606,0.453125,-0.76446533,-1.0022583
1605203103381,1607,0.36743164,-0.58917236,-0.9133911
1605203103383,1608,0.5024414,-0.6355591,-0.90460205
1605203103383,1609,0.36743164,-0.58917236,-0.9133911
1605203103384,1610,0.5534668,-0.7095337,-0.7600708
1605203103384,1611,0.5534668,-0.7095337,-0.7600708
1605203103385,1612,0.5024414,-0.6355591,-0.90460205
1605203103385,1613,0.73657227,-0.8694458,-0.7698364
1605203103385,1614,0.5534668,-0.7095337,-0.7600708
1605203103386,1615,0.73657227,-0.8694458,-0.7698364
1605203103386,1616,0.73876953,-0.6921997,-0.65411377
1605203103386,1617,0.73657227,-0.8694458,-0.7698364
1605203103391,1618,0.66430664,-0.57476807,-0.644104
1605203103391,1619,0.73876953,-0.6921997,-0.65411377
1605203103392,1620,0.73876953,-0.6921997,-0.65411377
1605203103392,1621,0.6496582,-0.47540283,-0.722229
1605203103392,1622,0.66430664,-0.57476807,-0.644104
1605203103392,1623,0.638916,-0.18829346,-0.6565552
1605203103392,1624,0.6496582,-0.47540283,-0.722229
1605203103392,1625,0.70825195,-0.15264893,-0.7300415
1605203103392,1626,0.638916,-0.18829346,-0.6565552
1605203103392,1627,0.70825195,-0.15264893,-0.7300415
1605203103392,1628,0.66430664,-0.57476807,-0.644104
1605203103393,1629,0.6496582,-0.47540283,-0.722229
1605203103393,1630,0.638916,-0.18829346,-0.6565552
1605203103394,1631,0.70825195,-0.15264893,-0.7300415
1605203105918,1632,0.5583496,-0.15777588,-0.59942627
1605203105918,1633,0.5583496,-0.15777588,-0.59942627
1605203105920,1634,0.23632812,-0.34210205,-0.6465454
1605203105920,1635,0.23632812,-0.34210205,-0.6465454
1605203105920,1636,0.18676758,-0.4841919,-0.7202759
1605203105920,1637,0.18676758,-0.4841919,-0.7202759
1605203105921,1638,0.17919922,-0.7876587,-0.7229614
1605203105922,1639,0.17919922,-0.7876587,-0.7229614
1605203105924,1640,0.5583496,-0.15777588,-0.59942627
1605203105924,1641,0.19384766,-1.003479,-0.7024536
1605203105924,1642,0.19384766,-1.003479,-0.7024536
1605203105933,1643,0.23632812,-0.34210205,-0.6465454
1605203105933,1644,0.48168945,-1.2088013,-0.85821533
1605203105934,1645,0.48168945,-1.2088013,-0.85821533
1605203105934,1646,0.6401367,-0.84942627,-0.9038696
1605203105934,1647,0.18676758,-0.4841919,-0.7202759
1605203105934,1648,0.5710449,-0.6956177,-0.94488525
1605203105934,1649,0.17919922,-0.7876587,-0.7229614
1605203105935,1650,0.19384766,-1.003479,-0.7024536
1605203105935,1651,0.47827148,-0.5442505,-0.8369751
1605203105935,1652,0.48168945,-1.2088013,-0.85821533
1605203105935,1653,0.43652344,-0.44561768,-0.75128174
1605203105935,1654,0.6401367,-0.84942627,-0.9038696
1605203105936,1655,0.37182617,-0.44561768,-0.61309814
1605203105936,1656,0.39794922,-0.46173096,-0.6536255
1605203105936,1657,0.5710449,-0.6956177,-0.94488525
1605203105937,1658,0.32739258,-0.20074463,-0.68878174
1605203105937,1659,0.47827148,-0.5442505,-0.8369751
1605203105937,1660,0.2680664,-0.05987549,-0.784729
1605203105938,1661,0.43652344,-0.44561768,-0.75128174
1605203105939,1662,0.29248047,-0.16265869,-0.9812622
1605203105940,1663,0.6401367,-0.84942627,-0.9038696
1605203105940,1664,0.37182617,-0.44561768,-0.61309814
1605203105943,1665,0.31762695,-0.44586182,-1.0388794
1605203105943,1666,0.5710449,-0.6956177,-0.94488525
1605203105943,1667,0.39794922,-0.46173096,-0.6536255
1605203105944,1668,0.4934082,-0.6494751,-1.0664673
1605203105945,1669,0.47827148,-0.5442505,-0.8369751
1605203105946,1670,0.32739258,-0.20074463,-0.68878174
1605203105946,1671,0.5300293,-0.37945557,-1.0203247
1605203105947,1672,0.43652344,-0.44561768,-0.75128174
1605203105947,1673,0.2680664,-0.05987549,-0.784729
1605203105947,1674,0.6586914,-0.25152588,-1.0615845
1605203105947,1675,0.29248047,-0.16265869,-0.9812622
1605203105948,1676,0.37182617,-0.44561768,-0.61309814
1605203105948,1677,0.6972656,-0.28985596,-0.88848877
1605203105948,1678,0.31762695,-0.44586182,-1.0388794
1605203105949,1679,0.39794922,-0.46173096,-0.6536255
1605203105949,1680,0.8474121,-0.33966064,-0.5623169
1605203105950,1681,0.4934082,-0.6494751,-1.0664673
1605203105951,1682,0.7199707,-0.38775635,-0.34210205
1605203105951,1683,0.32739258,-0.20074463,-0.68878174
1605203105951,1684,0.5300293,-0.37945557,-1.0203247
1605203105952,1685,0.63256836,-0.5010376,-0.5186157
1605203105952,1686,0.2680664,-0.05987549,-0.784729
1605203105952,1687,0.6586914,-0.25152588,-1.0615845
1605203105953,1688,0.60498047,-0.64556885,-0.756897
1605203105953,1689,0.29248047,-0.16265869,-0.9812622
1605203105954,1690,0.6972656,-0.28985596,-0.88848877
1605203105954,1691,0.54663086,-0.67803955,-0.8892212
1605203105955,1692,0.31762695,-0.44586182,-1.0388794
1605203105955,1693,0.5605469,-0.6646118,-0.88287354
1605203105955,1694,0.8474121,-0.33966064,-0.5623169
1605203105956,1695,0.4934082,-0.6494751,-1.0664673
1605203105956,1696,0.60791016,-0.46661377,-0.8008423
1605203105957,1697,0.7199707,-0.38775635,-0.34210205
1605203105957,1698,0.5300293,-0.37945557,-1.0203247
1605203105957,1699,0.63256836,-0.5010376,-0.5186157
1605203105958,1700,0.5661621,-0.4043579,-0.8123169
1605203105958,1701,0.6586914,-0.25152588,-1.0615845
1605203105959,1702,0.60498047,-0.64556885,-0.756897
1605203105959,1703,0.6972656,-0.28985596,-0.88848877
1605203105960,1704,0.5058594,-0.4277954,-0.81451416
1605203105960,1705,0.54663086,-0.67803955,-0.8892212
1605203105960,1706,0.8474121,-0.33966064,-0.5623169
1605203105960,1707,0.49365234,-0.24517822,-0.8086548
1605203105961,1708,0.5605469,-0.6646118,-0.88287354
1605203105961,1709,0.7199707,-0.38775635,-0.34210205
1605203105962,1710,0.58374023,-0.2300415,-0.8171997
1605203105962,1711,0.60791016,-0.46661377,-0.8008423
1605203105962,1712,0.63256836,-0.5010376,-0.5186157
1605203105963,1713,0.59472656,-0.36749268,-0.84503174
1605203105964,1714,0.5661621,-0.4043579,-0.8123169
1605203105965,1715,0.60498047,-0.64556885,-0.756897
1605203105966,1716,0.5058594,-0.4277954,-0.81451416
1605203105966,1717,0.54663086,-0.67803955,-0.8892212
1605203105966,1718,0.49365234,-0.24517822,-0.8086548
1605203105967,1719,0.5605469,-0.6646118,-0.88287354
1605203105967,1720,0.58374023,-0.2300415,-0.8171997
1605203105968,1721,0.60791016,-0.46661377,-0.8008423
1605203105969,1722,0.59472656,-0.36749268,-0.84503174
1605203105969,1723,0.5661621,-0.4043579,-0.8123169
1605203105970,1724,0.5058594,-0.4277954,-0.81451416
1605203105971,1725,0.49365234,-0.24517822,-0.8086548
1605203105972,1726,0.58374023,-0.2300415,-0.8171997
1605203105972,1727,0.59472656,-0.36749268,-0.84503174
1605203108502,1728,0.59106445,-0.41778564,-0.911438
1605203108502,1729,0.59106445,-0.41778564,-0.911438
1605203108503,1730,0.59106445,-0.41778564,-0.911438
1605203108504,1731,0.51538086,-0.4121704,-0.9336548
1605203108504,1732,0.51538086,-0.4121704,-0.9336548
1605203108504,1733,0.51538086,-0.4121704,-0.9336548
1605203108505,1734,0.30029297,-0.37823486,-0.8518677
1605203108506,1735,0.30029297,-0.37823486,-0.8518677
1605203108506,1736,0.30029297,-0.37823486,-0.8518677
1605203108506,1737,0.30322266,-0.5010376,-0.8352661
1605203108507,1738,0.30322266,-0.5010376,-0.8352661
1605203108507,1739,0.30322266,-0.5010376,-0.8352661
1605203108509,1740,0.29223633,-0.63360596,-0.76519775
1605203108509,1741,0.29223633,-0.63360596,-0.76519775
1605203108509,1742,0.29223633,-0.63360596,-0.76519775
1605203108511,1743,0.31982422,-0.6921997,-0.6734009
1605203108512,1744,0.31982422,-0.6921997,-0.6734009
1605203108512,1745,0.31982422,-0.6921997,-0.6734009
1605203108512,1746,0.38891602,-0.76885986,-0.69903564
1605203108513,1747,0.38891602,-0.76885986,-0.69903564
1605203108514,1748,0.513916,-0.79034424,-0.71588135
1605203108514,1749,0.513916,-0.79034424,-0.71588135
1605203108514,1750,0.38891602,-0.76885986,-0.69903564
1605203108515,1751,0.5366211,-0.6826782,-0.74664307
1605203108516,1752,0.513916,-0.79034424,-0.71588135
1605203108516,1753,0.5366211,-0.6826782,-0.74664307
1605203108517,1754,0.4609375,-0.48590088,-0.5540161
1605203108518,1755,0.5366211,-0.6826782,-0.74664307
1605203108518,1756,0.4609375,-0.48590088,-0.5540161
1605203108519,1757,0.40966797,-0.37213135,-0.39093018
1605203108520,1758,0.4609375,-0.48590088,-0.5540161
1605203108522,1759,0.40966797,-0.37213135,-0.39093018
1605203108522,1760,0.6723633,-0.30352783,-0.5120239
1605203108523,1761,0.6723633,-0.30352783,-0.5120239
1605203108524,1762,0.88549805,-0.4944458,-0.8850708
1605203108524,1763,0.40966797,-0.37213135,-0.39093018
1605203108526,1764,0.88549805,-0.4944458,-0.8850708
1605203108526,1765,0.7409668,-0.5679321,-0.96051025
1605203108526,1766,0.7409668,-0.5679321,-0.96051025
1605203108526,1767,0.6723633,-0.30352783,-0.5120239
1605203108527,1768,0.61083984,-0.59381104,-0.9651489
1605203108528,1769,0.61083984,-0.59381104,-0.9651489
1605203108528,1770,0.88549805,-0.4944458,-0.8850708
1605203108528,1771,0.51953125,-0.5261841,-0.9859009
1605203108529,1772,0.51953125,-0.5261841,-0.9859009
1605203108530,1773,0.7409668,-0.5679321,-0.96051025
1605203108530,1774,0.37524414,-0.6013794,-0.9470825
1605203108531,1775,0.37524414,-0.6013794,-0.9470825
1605203108532,1776,0.61083984,-0.59381104,-0.9651489
1605203108532,1777,0.4777832,-0.66534424,-0.88531494
1605203108533,1778,0.4777832,-0.66534424,-0.88531494
1605203108534,1779,0.51953125,-0.5261841,-0.9859009
1605203108534,1780,0.5539551,-0.6687622,-0.78790283
1605203108534,1781,0.5539551,-0.6687622,-0.78790283
1605203108535,1782,0.37524414,-0.6013794,-0.9470825
1605203108536,1783,0.5788574,-0.66119385,-0.7761841
1605203108536,1784,0.5788574,-0.66119385,-0.7761841
1605203108539,1785,0.4777832,-0.66534424,-0.88531494
1605203108539,1786,0.529541,-0.35601807,-0.5718384
1605203108540,1787,0.529541,-0.35601807,-0.5718384
1605203108540,1788,0.46191406,-0.20709229,-0.54229736
1605203108540,1789,0.5539551,-0.6687622,-0.78790283
1605203108540,1790,0.46191406,-0.20709229,-0.54229736
1605203108541,1791,0.5788574,-0.66119385,-0.7761841
1605203108541,1792,0.3894043,-0.07745361,-0.5171509
1605203108541,1793,0.3894043,-0.07745361,-0.5171509
1605203108542,1794,0.55371094,-0.51690674,-0.6992798
1605203108542,1795,0.529541,-0.35601807,-0.5718384
1605203108545,1796,0.55371094,-0.51690674,-0.6992798
1605203108547,1797,0.46191406,-0.20709229,-0.54229736
1605203108547,1798,0.765625,-0.70758057,-0.83477783
1605203108548,1799,0.3894043,-0.07745361,-0.5171509
1605203108548,1800,0.765625,-0.70758057,-0.83477783
1605203108549,1801,0.828125,-0.835022,-0.7505493
1605203108549,1802,0.8066406,-0.8257446,-0.7029419
1605203108550,1803,0.55371094,-0.51690674,-0.6992798
1605203108550,1804,0.828125,-0.835022,-0.7505493
1605203108550,1805,0.6989746,-0.65411377,-0.75079346
1605203108551,1806,0.8066406,-0.8257446,-0.7029419
1605203108552,1807,0.6989746,-0.65411377,-0.75079346
1605203108552,1808,0.48461914,-0.48199463,-0.77130127
1605203108553,1809,0.765625,-0.70758057,-0.83477783
1605203108553,1810,0.41308594,-0.51226807,-0.835022
1605203108554,1811,0.828125,-0.835022,-0.7505493
1605203108554,1812,0.32348633,-0.57159424,-0.8870239
1605203108554,1813,0.48461914,-0.48199463,-0.77130127
1605203108555,1814,0.2956543,-0.72247314,-0.9837036
1605203108555,1815,0.8066406,-0.8257446,-0.7029419
1605203108555,1816,0.41308594,-0.51226807,-0.835022
1605203108556,1817,0.6989746,-0.65411377,-0.75079346
1605203108557,1818,0.32348633,-0.57159424,-0.8870239
1605203108557,1819,0.48461914,-0.48199463,-0.77130127
1605203108558,1820,0.2956543,-0.72247314,-0.9837036
1605203108558,1821,0.41308594,-0.51226807,-0.835022
1605203108559,1822,0.32348633,-0.57159424,-0.8870239
1605203108560,1823,0.2956543,-0.72247314,-0.9837036
1605203111092,1824,0.28710938,-0.69537354,-0.98931885
1605203111095,1825,0.28710938,-0.69537354,-0.98931885
1605203111099,1826,0.17480469,-0.5708618,-0.77838135
1605203111102,1827,0.17480469,-0.5708618,-0.77838135
1605203111106,1828,0.18652344,-0.49224854,-0.5911255
1605203111110,1829,0.18652344,-0.49224854,-0.5911255
1605203111114,1830,0.3701172,-0.3032837,-0.5532837
1605203111117,1831,0.28710938,-0.69537354,-0.98931885
1605203111121,1832,0.5397949,-0.11773682,-0.7185669
1605203111124,1833,0.17480469,-0.5708618,-0.77838135
1605203111126,1834,0.57910156,-0.11871338,-0.91729736
1605203111130,1835,0.18652344,-0.49224854,-0.5911255
1605203111131,1836,0.3701172,-0.3032837,-0.5532837
1605203111131,1837,0.4909668,-0.68927,-1.1538696
1605203111132,1838,0.3701172,-0.3032837,-0.5532837
1605203111133,1839,0.23022461,-0.7107544,-1.0432739
1605203111135,1840,0.5397949,-0.11773682,-0.7185669
1605203111136,1841,0.068847656,-0.77545166,-0.84552
1605203111138,1842,0.5397949,-0.11773682,-0.7185669
1605203111142,1843,0.57910156,-0.11871338,-0.91729736
1605203111145,1844,0.57910156,-0.11871338,-0.91729736
1605203111148,1845,0.4909668,-0.68927,-1.1538696
1605203111150,1846,0.4909668,-0.68927,-1.1538696
1605203111154,1847,0.23022461,-0.7107544,-1.0432739
1605203111157,1848,0.23022461,-0.7107544,-1.0432739
1605203111158,1849,0.068847656,-0.77545166,-0.84552
1605203111162,1850,0.068847656,-0.77545166,-0.84552
1605203111165,1851,0.079589844,-0.8713989,-0.6506958
1605203111169,1852,0.079589844,-0.8713989,-0.6506958
1605203111172,1853,0.27124023,-1.1218872,-0.6421509
1605203111176,1854,0.27124023,-1.1218872,-0.6421509
1605203111179,1855,0.5007324,-1.1651001,-0.6548462
1605203111183,1856,0.5007324,-1.1651001,-0.6548462
1605203111186,1857,0.5205078,-0.9468384,-0.5059204
1605203111188,1858,0.5205078,-0.9468384,-0.5059204
1605203111188,1859,0.079589844,-0.8713989,-0.6506958
1605203111190,1860,0.54467773,-0.8128052,-0.43170166
1605203111191,1861,0.27124023,-1.1218872,-0.6421509
1605203111192,1862,0.44018555,-0.4854126,-0.43878174
1605203111193,1863,0.5007324,-1.1651001,-0.6548462
1605203111194,1864,0.3071289,-0.2546997,-0.82232666
1605203111195,1865,0.5205078,-0.9468384,-0.5059204
1605203111196,1866,0.22216797,0.18914795,-1.154602
1605203111197,1867,0.54467773,-0.8128052,-0.43170166
1605203111198,1868,0.17089844,-0.051086426,-1.3721313
1605203111199,1869,0.44018555,-0.4854126,-0.43878174
1605203111200,1870,-0.0021972656,-0.44561768,-1.2495728
1605203111201,1871,0.3071289,-0.2546997,-0.82232666
1605203111202,1872,-0.21240234,-0.7061157,-1.1184692
1605203111202,1873,0.22216797,0.18914795,-1.154602
1605203111203,1874,-0.4194336,-0.9265747,-1.2207642
1605203111204,1875,0.17089844,-0.051086426,-1.3721313
1605203111205,1876,-0.58496094,-0.65093994,-1.0581665
1605203111205,1877,-0.0021972656,-0.44561768,-1.2495728
1605203111207,1878,-0.63842773,-0.4121704,-0.79229736
1605203111207,1879,0.54467773,-0.8128052,-0.43170166
1605203111208,1880,-0.21240234,-0.7061157,-1.1184692
1605203111208,1881,-0.59228516,-0.30108643,-0.57354736
1605203111209,1882,0.44018555,-0.4854126,-0.43878174
1605203111209,1883,-0.4194336,-0.9265747,-1.2207642
1605203111210,1884,0.3071289,-0.2546997,-0.82232666
1605203111211,1885,-0.47314453,0.0065307617,-0.36553955
1605203111211,1886,-0.58496094,-0.65093994,-1.0581665
1605203111212,1887,0.22216797,0.18914795,-1.154602
1605203111213,1888,-0.63842773,-0.4121704,-0.79229736
1605203111213,1889,-0.33251953,0.30267334,-0.14239502
1605203111214,1890,0.17089844,-0.051086426,-1.3721313
1605203111215,1891,-0.59228516,-0.30108643,-0.57354736
1605203111215,1892,-0.22192383,0.6264038,-0.21905518
1605203111217,1893,-0.47314453,0.0065307617,-0.36553955
1605203111217,1894,-0.0021972656,-0.44561768,-1.2495728
1605203111218,1895,-0.16748047,0.83270264,-0.50909424
1605203111218,1896,-0.33251953,0.30267334,-0.14239502
1605203111218,1897,-0.20629883,1.0604858,-0.2288208
1605203111218,1898,-0.21240234,-0.7061157,-1.1184692
1605203111219,1899,-0.22192383,0.6264038,-0.21905518
1605203111219,1900,-0.0690918,1.0065308,-0.16339111
1605203111220,1901,-0.4194336,-0.9265747,-1.2207642
1605203111221,1902,-0.16748047,0.83270264,-0.50909424
1605203111221,1903,0.08642578,0.82806396,-0.2444458
1605203111222,1904,-0.58496094,-0.65093994,-1.0581665
1605203111222,1905,-0.20629883,1.0604858,-0.2288208
1605203111223,1906,0.18823242,0.8078003,-0.362854
1605203111223,1907,-0.63842773,-0.4121704,-0.79229736
1605203111225,1908,-0.59228516,-0.30108643,-0.57354736
1605203111227,1909,-0.0690918,1.0065308,-0.16339111
1605203111227,1910,-0.47314453,0.0065307617,-0.36553955
1605203111227,1911,0.08642578,0.82806396,-0.2444458
1605203111227,1912,-0.33251953,0.30267334,-0.14239502
1605203111228,1913,0.18823242,0.8078003,-0.362854
1605203111229,1914,-0.22192383,0.6264038,-0.21905518
1605203111230,1915,-0.16748047,0.83270264,-0.50909424
1605203111230,1916,-0.20629883,1.0604858,-0.2288208
1605203111231,1917,-0.0690918,1.0065308,-0.16339111
1605203111232,1918,0.08642578,0.82806396,-0.2444458
1605203111233,1919,0.18823242,0.8078003,-0.362854
1605203113670,1920,0.2006836,0.8383179,-0.35186768
1605203113670,1921,0.2006836,0.8383179,-0.35186768
1605203113671,1922,0.2006836,0.8383179,-0.35186768
1605203113671,1923,0.19604492,0.946228,-0.2144165
1605203113671,1924,0.19604492,0.946228,-0.2144165
1605203113672,1925,-0.040527344,0.90448,-0.25006104
1605203113672,1926,0.19604492,0.946228,-0.2144165
1605203113672,1927,-0.040527344,0.90448,-0.25006104
1605203113673,1928,-0.040527344,0.90448,-0.25006104
1605203113673,1929,-0.075683594,0.9435425,-0.28179932
1605203113673,1930,-0.075683594,0.9435425,-0.28179932
1605203113675,1931,-0.2163086,1.0675659,-0.347229
1605203113676,1932,-0.075683594,0.9435425,-0.28179932
1605203113676,1933,-0.2163086,1.0675659,-0.347229
1605203113676,1934,-0.22631836,0.97650146,-0.35455322
1605203113676,1935,-0.2163086,1.0675659,-0.347229
1605203113676,1936,-0.22631836,0.97650146,-0.35455322
1605203113677,1937,-0.18286133,0.9694214,-0.30914307
1605203113677,1938,-0.22631836,0.97650146,-0.35455322
1605203113677,1939,-0.18286133,0.9694214,-0.30914307
1605203113678,1940,-0.21264648,1.0285034,-0.2468872
1605203113678,1941,-0.18286133,0.9694214,-0.30914307
1605203113679,1942,-0.13574219,0.77020264,-0.33721924
1605203113679,1943,-0.21264648,1.0285034,-0.2468872
1605203113679,1944,-0.21264648,1.0285034,-0.2468872
1605203113680,1945,-0.13574219,0.77020264,-0.33721924
1605203113681,1946,-0.13574219,0.77020264,-0.33721924
1605203113681,1947,-0.14697266,0.8866577,-0.30523682
1605203113682,1948,-0.1472168,0.90008545,-0.2600708
1605203113682,1949,-0.14697266,0.8866577,-0.30523682
1605203113682,1950,-0.14697266,0.8866577,-0.30523682
1605203113683,1951,-0.13085938,0.94525146,-0.28131104
1605203113683,1952,-0.1472168,0.90008545,-0.2600708
1605203113683,1953,-0.1472168,0.90008545,-0.2600708
1605203113684,1954,-0.13085938,0.94525146,-0.28131104
1605203113684,1955,-0.13134766,0.8793335,-0.34625244
1605203113685,1956,-0.13085938,0.94525146,-0.28131104
1605203113685,1957,-0.13134766,0.8793335,-0.34625244
1605203113685,1958,-0.19873047,0.8200073,-0.34503174
1605203113686,1959,-0.13134766,0.8793335,-0.34625244
1605203113686,1960,-0.23364258,0.9525757,-0.36627197
1605203113686,1961,-0.19873047,0.8200073,-0.34503174
1605203113687,1962,-0.3383789,0.9320679,-0.42877197
1605203113687,1963,-0.23364258,0.9525757,-0.36627197
1605203113688,1964,-0.19873047,0.8200073,-0.34503174
1605203113689,1965,-0.30688477,0.7926636,-0.37677002
1605203113689,1966,-0.3383789,0.9320679,-0.42877197
1605203113689,1967,-0.23364258,0.9525757,-0.36627197
1605203113690,1968,-0.30688477,0.7926636,-0.37677002
1605203113690,1969,-0.17919922,0.89764404,-0.34381104
1605203113690,1970,-0.3383789,0.9320679,-0.42877197
1605203113692,1971,-0.17919922,0.89764404,-0.34381104
1605203113692,1972,-0.14501953,0.84490967,-0.3916626
1605203113692,1973,-0.30688477,0.7926636,-0.37677002
1605203113692,1974,-0.08691406,0.97283936,-0.39874268
1605203113692,1975,-0.14501953,0.84490967,-0.3916626
1605203113693,1976,-0.17919922,0.89764404,-0.34381104
1605203113693,1977,-0.13842773,0.94085693,-0.39678955
1605203113693,1978,-0.08691406,0.97283936,-0.39874268
1605203113694,1979,-0.14501953,0.84490967,-0.3916626
1605203113695,1980,-0.075683594,0.87005615,-0.4006958
1605203113695,1981,-0.13842773,0.94085693,-0.39678955
1605203113695,1982,-0.08691406,0.97283936,-0.39874268
1605203113696,1983,-0.05810547,0.98431396,-0.38604736
1605203113696,1984,-0.075683594,0.87005615,-0.4006958
1605203113696,1985,-0.13842773,0.94085693,-0.39678955
1605203113698,1986,-0.075683594,0.87005615,-0.4006958
1605203113698,1987,0.0078125,0.9591675,-0.3743286
1605203113698,1988,-0.05810547,0.98431396,-0.38604736
1605203113698,1989,-0.05810547,0.98431396,-0.38604736
1605203113699,1990,0.0078125,0.9591675,-0.3743286
1605203113699,1991,0.00390625,0.8895874,-0.40631104
1605203113699,1992,0.0078125,0.9591675,-0.3743286
1605203113700,1993,-0.053710938,0.83270264,-0.39605713
1605203113701,1994,0.00390625,0.8895874,-0.40631104
1605203113701,1995,0.00390625,0.8895874,-0.40631104
1605203113701,1996,-0.056152344,0.8473511,-0.425354
1605203113702,1997,-0.053710938,0.83270264,-0.39605713
1605203113702,1998,-0.07128906,1.0182495,-0.42730713
1605203113703,1999,-0.056152344,0.8473511,-0.425354
1605203113703,2000,-0.15795898,0.94866943,-0.4368286
1605203113704,2001,-0.07128906,1.0182495,-0.42730713
1605203113705,2002,-0.15209961,0.8031616,-0.49908447
1605203113705,2003,-0.053710938,0.83270264,-0.39605713
1605203113706,2004,-0.06738281,0.59051514,-0.47955322
1605203113706,2005,-0.15795898,0.94866943,-0.4368286
1605203113707,2006,-0.056152344,0.8473511,-0.425354
1605203113707,2007,-0.15209961,0.8031616,-0.49908447
1605203113708,2008,-0.07128906,1.0182495,-0.42730713
1605203113708,2009,-0.017578125,0.28631592,-0.42071533
1605203113709,2010,-0.06738281,0.59051514,-0.47955322
1605203113710,2011,-0.017578125,0.28631592,-0.42071533
1605203113710,2012,-0.15795898,0.94866943,-0.4368286
1605203113711,2013,-0.15209961,0.8031616,-0.49908447
1605203113712,2014,-0.06738281,0.59051514,-0.47955322
1605203113713,2015,-0.017578125,0.28631592,-0.42071533
1605203116259,2016,-0.22753906,0.051940918,-0.13189697
1605203116262,2017,-0.22753906,0.051940918,-0.13189697
1605203116266,2018,-0.44384766,-0.37750244,-0.33258057
1605203116270,2019,-0.44384766,-0.37750244,-0.33258057
1605203116274,2020,-0.38305664,-0.60723877,-0.45367432
1605203116277,2021,-0.38305664,-0.60723877,-0.45367432
1605203116281,2022,0.17529297,-0.9397583,-0.6992798
1605203116284,2023,0.17529297,-0.9397583,-0.6992798
1605203116288,2024,0.8273926,-1.7070923,-0.89801025
1605203116292,2025,0.8273926,-1.7070923,-0.89801025
1605203116296,2026,0.640625,-1.6755981,-0.9807739
1605203116299,2027,0.640625,-1.6755981,-0.9807739
1605203116302,2028,0.4326172,-1.178772,-1.0044556
1605203116305,2029,0.4326172,-1.178772,-1.0044556
1605203116309,2030,0.36279297,-0.7608032,-0.9492798
1605203116312,2031,0.36279297,-0.7608032,-0.9492798
1605203116316,2032,0.10961914,-0.75128174,-0.8699341
1605203116319,2033,0.10961914,-0.75128174,-0.8699341
1605203116320,2034,0.16210938,-0.7942505,-0.8401489
1605203116324,2035,0.16210938,-0.7942505,-0.8401489
1605203116327,2036,0.30493164,-0.55133057,-0.7210083
1605203116330,2037,0.30493164,-0.55133057,-0.7210083
1605203116332,2038,0.29907227,-0.33111572,-0.6055298
1605203116334,2039,0.29907227,-0.33111572,-0.6055298
1605203116334,2040,-0.22753906,0.051940918,-0.13189697
1605203116335,2041,0.35620117,-0.1104126,-0.53497314
1605203116335,2042,0.35620117,-0.1104126,-0.53497314
1605203116335,2043,-0.44384766,-0.37750244,-0.33258057
1605203116336,2044,0.49365234,-0.13140869,-0.6038208
1605203116337,2045,-0.38305664,-0.60723877,-0.45367432
1605203116338,2046,0.7109375,-0.34552002,-0.7546997
1605203116340,2047,0.17529297,-0.9397583,-0.6992798
1605203116340,2048,0.90405273,-0.8897095,-0.8262329
1605203116340,2049,0.49365234,-0.13140869,-0.6038208
1605203116342,2050,0.8273926,-1.7070923,-0.89801025
1605203116342,2051,0.7109375,-0.34552002,-0.7546997
1605203116344,2052,0.640625,-1.6755981,-0.9807739
1605203116344,2053,0.90405273,-0.8897095,-0.8262329
1605203116344,2054,0.81884766,-1.0317993,-0.675354
1605203116346,2055,0.59375,-0.9380493,-0.55255127
1605203116347,2056,0.81884766,-1.0317993,-0.675354
1605203116348,2057,0.59277344,-0.8936157,-0.5701294
1605203116349,2058,0.59375,-0.9380493,-0.55255127
1605203116350,2059,0.4326172,-1.178772,-1.0044556
1605203116350,2060,0.59277344,-0.8936157,-0.5701294
1605203116351,2061,0.36279297,-0.7608032,-0.9492798
1605203116352,2062,0.54467773,-0.723938,-0.6502075
1605203116353,2063,0.54467773,-0.723938,-0.6502075
1605203116353,2064,0.4038086,-0.6621704,-0.7539673
1605203116354,2065,0.10961914,-0.75128174,-0.8699341
1605203116355,2066,0.4038086,-0.6621704,-0.7539673
1605203116355,2067,0.18603516,-0.55914307,-0.786438
1605203116355,2068,0.16210938,-0.7942505,-0.8401489
1605203116356,2069,0.18603516,-0.55914307,-0.786438
1605203116357,2070,0.30493164,-0.55133057,-0.7210083
1605203116357,2071,0.15258789,-0.44537354,-0.7815552
1605203116358,2072,0.15258789,-0.44537354,-0.7815552
1605203116359,2073,0.29907227,-0.33111572,-0.6055298
1605203116360,2074,0.22485352,-0.68878174,-0.6914673
1605203116360,2075,0.22485352,-0.68878174,-0.6914673
1605203116360,2076,0.4248047,-1.1148071,-0.66851807
1605203116361,2077,0.35620117,-0.1104126,-0.53497314
1605203116361,2078,0.4248047,-1.1148071,-0.66851807
1605203116361,2079,0.5551758,-1.0134888,-0.5679321
1605203116362,2080,0.49365234,-0.13140869,-0.6038208
1605203116363,2081,0.5551758,-1.0134888,-0.5679321
1605203116363,2082,0.5632324,-1.0217896,-0.5496216
1605203116367,2083,0.7109375,-0.34552002,-0.7546997
1605203116377,2084,0.5632324,-1.0217896,-0.5496216
1605203116378,2085,0.5390625,-0.661438,-0.48931885
1605203116378,2086,0.90405273,-0.8897095,-0.8262329
1605203116378,2087,0.5390625,-0.661438,-0.48931885
1605203116378,2088,0.52905273,-0.4397583,-0.4241333
1605203116379,2089,0.52905273,-0.4397583,-0.4241333
1605203116380,2090,0.81884766,-1.0317993,-0.675354
1605203116380,2091,0.5505371,-0.26153564,-0.47003174
1605203116381,2092,0.5505371,-0.26153564,-0.47003174
1605203116383,2093,0.6647949,-0.26202393,-0.5725708
1605203116386,2094,0.59375,-0.9380493,-0.55255127
1605203116386,2095,0.6647949,-0.26202393,-0.5725708
1605203116386,2096,0.76049805,-0.49224854,-0.7632446
1605203116386,2097,0.76049805,-0.49224854,-0.7632446
1605203116386,2098,0.59277344,-0.8936157,-0.5701294
1605203116387,2099,0.54467773,-0.723938,-0.6502075
1605203116388,2100,0.4038086,-0.6621704,-0.7539673
1605203116388,2101,0.18603516,-0.55914307,-0.786438
1605203116389,2102,0.15258789,-0.44537354,-0.7815552
1605203116390,2103,0.22485352,-0.68878174,-0.6914673
1605203116390,2104,0.4248047,-1.1148071,-0.66851807
1605203116391,2105,0.5551758,-1.0134888,-0.5679321
1605203116392,2106,0.5632324,-1.0217896,-0.5496216
1605203116393,2107,0.5390625,-0.661438,-0.48931885
1605203116394,2108,0.52905273,-0.4397583,-0.4241333
1605203116396,2109,0.5505371,-0.26153564,-0.47003174
1605203116396,2110,0.6647949,-0.26202393,-0.5725708
1605203116397,2111,0.76049805,-0.49224854,-0.7632446
1605203118839,2112,0.7272949,-0.6897583,-0.80010986
1605203118840,2113,0.7272949,-0.6897583,-0.80010986
1605203118840,2114,0.5541992,-0.6790161,-0.6465454
1605203118840,2115,0.7272949,-0.6897583,-0.80010986
1605203118842,2116,0.5541992,-0.6790161,-0.6465454
1605203118843,2117,0.5566406,-0.8010864,-0.57525635
1605203118843,2118,0.5541992,-0.6790161,-0.6465454
1605203118845,2119,0.5566406,-0.8010864,-0.57525635
1605203118845,2120,0.61035156,-0.8574829,-0.4475708
1605203118845,2121,0.5566406,-0.8010864,-0.57525635
1605203118846,2122,0.7636719,-1.0007935,-0.43292236
1605203118847,2123,0.61035156,-0.8574829,-0.4475708
1605203118847,2124,0.61035156,-0.8574829,-0.4475708
1605203118848,2125,0.9572754,-1.048645,-0.47540283
1605203118849,2126,0.7636719,-1.0007935,-0.43292236
1605203118849,2127,0.7636719,-1.0007935,-0.43292236
1605203118850,2128,0.9572754,-1.048645,-0.47540283
1605203118851,2129,0.8913574,-0.8452759,-0.44293213
1605203118851,2130,0.9572754,-1.048645,-0.47540283
1605203118852,2131,0.7512207,-0.6272583,-0.39385986
1605203118854,2132,0.8913574,-0.8452759,-0.44293213
1605203118854,2133,0.8913574,-0.8452759,-0.44293213
1605203118855,2134,0.5644531,-0.3880005,-0.36871338
1605203118856,2135,0.7512207,-0.6272583,-0.39385986
1605203118856,2136,0.7512207,-0.6272583,-0.39385986
1605203118856,2137,0.42919922,-0.21783447,-0.4368286
1605203118857,2138,0.5644531,-0.3880005,-0.36871338
1605203118857,2139,0.5644531,-0.3880005,-0.36871338
1605203118858,2140,0.47607422,-0.08258057,-0.5623169
1605203118865,2141,0.42919922,-0.21783447,-0.4368286
1605203118866,2142,0.42919922,-0.21783447,-0.4368286
1605203118866,2143,0.67700195,-0.20733643,-0.72662354
1605203118866,2144,0.47607422,-0.08258057,-0.5623169
1605203118866,2145,0.47607422,-0.08258057,-0.5623169
1605203118867,2146,0.83081055,-0.5835571,-0.57110596
1605203118867,2147,0.67700195,-0.20733643,-0.72662354
1605203118867,2148,0.67700195,-0.20733643,-0.72662354
1605203118867,2149,0.74560547,-1.1309204,-0.54766846
1605203118867,2150,0.83081055,-0.5835571,-0.57110596
1605203118868,2151,0.83081055,-0.5835571,-0.57110596
1605203118868,2152,0.5390625,-0.9981079,-0.4475708
1605203118868,2153,0.74560547,-1.1309204,-0.54766846
1605203118869,2154,0.74560547,-1.1309204,-0.54766846
1605203118870,2155,0.60717773,-1.0147095,-0.5772095
1605203118870,2156,0.5390625,-0.9981079,-0.4475708
1605203118870,2157,0.5390625,-0.9981079,-0.4475708
1605203118871,2158,0.73339844,-0.90045166,-0.64263916
1605203118871,2159,0.60717773,-1.0147095,-0.5772095
1605203118872,2160,0.60717773,-1.0147095,-0.5772095
1605203118872,2161,0.9316406,-0.8477173,-0.7005005
1605203118872,2162,0.73339844,-0.90045166,-0.64263916
1605203118872,2163,0.73339844,-0.90045166,-0.64263916
1605203118873,2164,0.9526367,-0.5574341,-0.6045532
1605203118873,2165,0.9316406,-0.8477173,-0.7005005
1605203118873,2166,0.9316406,-0.8477173,-0.7005005
1605203118873,2167,0.83496094,-0.2942505,-0.49517822
1605203118873,2168,0.9526367,-0.5574341,-0.6045532
1605203118874,2169,0.9526367,-0.5574341,-0.6045532
1605203118874,2170,0.83496094,-0.2942505,-0.49517822
1605203118874,2171,0.42700195,-0.4529419,-0.69488525
1605203118874,2172,0.42700195,-0.4529419,-0.69488525
1605203118874,2173,0.83496094,-0.2942505,-0.49517822
1605203118875,2174,0.22216797,-0.26348877,-0.6790161
1605203118876,2175,0.22216797,-0.26348877,-0.6790161
1605203118876,2176,0.42700195,-0.4529419,-0.69488525
1605203118876,2177,0.20019531,-0.24127197,-0.5857544
1605203118878,2178,0.20019531,-0.24127197,-0.5857544
1605203118879,2179,0.22216797,-0.26348877,-0.6790161
1605203118879,2180,0.09838867,-0.20880127,-0.63775635
1605203118879,2181,0.09838867,-0.20880127,-0.63775635
1605203118880,2182,0.20019531,-0.24127197,-0.5857544
1605203118881,2183,-0.25146484,-0.5869751,-1.006897
1605203118882,2184,-0.25146484,-0.5869751,-1.006897
1605203118883,2185,0.009033203,-0.7246704,-1.0632935
1605203118883,2186,0.009033203,-0.7246704,-1.0632935
1605203118883,2187,0.09838867,-0.20880127,-0.63775635
1605203118884,2188,0.39746094,-0.69244385,-0.92266846
1605203118885,2189,-0.25146484,-0.5869751,-1.006897
1605203118885,2190,0.39746094,-0.69244385,-0.92266846
1605203118888,2191,0.68481445,-0.64678955,-0.6865845
1605203118888,2192,0.009033203,-0.7246704,-1.0632935
1605203118888,2193,0.68481445,-0.64678955,-0.6865845
1605203118888,2194,0.80029297,-0.51812744,-0.54229736
1605203118889,2195,0.80029297,-0.51812744,-0.54229736
1605203118889,2196,0.39746094,-0.69244385,-0.92266846
1605203118890,2197,0.78222656,-0.41680908,-0.48736572
1605203118891,2198,0.78222656,-0.41680908,-0.48736572
1605203118891,2199,0.68481445,-0.64678955,-0.6865845
1605203118892,2200,0.8823242,-0.3237915,-0.49371338
1605203118892,2201,0.8823242,-0.3237915,-0.49371338
1605203118892,2202,0.80029297,-0.51812744,-0.54229736
1605203118894,2203,0.91796875,-0.44171143,-0.62750244
1605203118894,2204,0.91796875,-0.44171143,-0.62750244
1605203118894,2205,0.78222656,-0.41680908,-0.48736572
1605203118895,2206,0.8823242,-0.3237915,-0.49371338
1605203118896,2207,0.91796875,-0.44171143,-0.62750244
1605203121427,2208,0.8171387,-0.6536255,-0.85357666
1605203121438,2209,0.8171387,-0.6536255,-0.85357666
1605203121439,2210,0.8171387,-0.6536255,-0.85357666
1605203121441,2211,0.40795898,-0.42633057,-0.66607666
1605203121443,2212,0.40795898,-0.42633057,-0.66607666
1605203121446,2213,0.31103516,-0.25054932,-0.58917236
1605203121449,2214,0.31103516,-0.25054932,-0.58917236
1605203121453,2215,0.44555664,-0.3916626,-0.7293091
1605203121456,2216,0.44555664,-0.3916626,-0.7293091
1605203121460,2217,0.43847656,-0.4421997,-0.77130127
1605203121461,2218,0.43847656,-0.4421997,-0.77130127
1605203121461,2219,0.40795898,-0.42633057,-0.66607666
1605203121461,2220,0.50805664,-0.4446411,-0.64141846
1605203121461,2221,0.50805664,-0.4446411,-0.64141846
1605203121463,2222,0.31103516,-0.25054932,-0.58917236
1605203121466,2223,0.6274414,-0.5791626,-0.36358643
1605203121469,2224,0.44555664,-0.3916626,-0.7293091
1605203121471,2225,0.75683594,-0.76690674,-0.1638794
1605203121474,2226,0.43847656,-0.4421997,-0.77130127
1605203121476,2227,0.9494629,-0.644104,0.05633545
1605203121478,2228,0.50805664,-0.4446411,-0.64141846
1605203121481,2229,1.0805664,-0.49420166,0.17718506
1605203121485,2230,0.6274414,-0.5791626,-0.36358643
1605203121488,2231,0.9421387,-0.4993286,0.124694824
1605203121491,2232,0.75683594,-0.76690674,-0.1638794
1605203121495,2233,0.83447266,-0.6436157,0.2189331
1605203121499,2234,0.9494629,-0.644104,0.05633545
1605203121502,2235,0.65966797,-0.7432251,0.16668701
1605203121506,2236,1.0805664,-0.49420166,0.17718506
1605203121509,2237,0.44750977,-0.84039307,0.17816162
1605203121512,2238,0.9421387,-0.4993286,0.124694824
1605203121515,2239,0.3305664,-0.8689575,0.23773193
1605203121519,2240,0.83447266,-0.6436157,0.2189331
1605203121520,2241,0.50219727,-0.7810669,0.35369873
1605203121522,2242,0.65966797,-0.7432251,0.16668701
1605203121523,2243,0.6274414,-0.5791626,-0.36358643
1605203121524,2244,0.44750977,-0.84039307,0.17816162
1605203121526,2245,0.75683594,-0.76690674,-0.1638794
1605203121528,2246,0.3305664,-0.8689575,0.23773193
1605203121529,2247,0.9494629,-0.644104,0.05633545
1605203121530,2248,0.50219727,-0.7810669,0.35369873
1605203121531,2249,1.0805664,-0.49420166,0.17718506
1605203121532,2250,0.60717773,-0.64068604,0.31854248
1605203121533,2251,0.9421387,-0.4993286,0.124694824
1605203121534,2252,0.60717773,-0.64068604,0.31854248
1605203121534,2253,0.83447266,-0.6436157,0.2189331
1605203121536,2254,0.7558594,-0.57476807,0.32269287
1605203121536,2255,0.65966797,-0.7432251,0.16668701
1605203121537,2256,0.83569336,-0.61920166,0.3378296
1605203121538,2257,0.44750977,-0.84039307,0.17816162
1605203121539,2258,0.3305664,-0.8689575,0.23773193
1605203121541,2259,0.77783203,-0.6670532,0.28729248
1605203121542,2260,0.64868164,-0.6814575,0.309021
1605203121542,2261,0.50219727,-0.7810669,0.35369873
1605203121543,2262,0.5734863,-0.67022705,0.4406128
1605203121544,2263,0.60717773,-0.64068604,0.31854248
1605203121545,2264,0.6035156,-0.6567993,0.4179077
1605203121546,2265,0.7558594,-0.57476807,0.32269287
1605203121547,2266,0.5847168,-0.6699829,0.39471436
1605203121548,2267,0.83569336,-0.61920166,0.3378296
1605203121549,2268,0.6833496,-0.7271118,0.35516357
1605203121550,2269,0.7558594,-0.57476807,0.32269287
1605203121552,2270,0.5854492,-0.7070923,0.32635498
1605203121552,2271,0.83569336,-0.61920166,0.3378296
1605203121553,2272,0.6669922,-0.7217407,0.4076538
1605203121553,2273,0.77783203,-0.6670532,0.28729248
1605203121555,2274,0.64868164,-0.6814575,0.309021
1605203121555,2275,0.77783203,-0.6670532,0.28729248
1605203121556,2276,0.7536621,-0.5984497,0.37469482
1605203121557,2277,0.5734863,-0.67022705,0.4406128
1605203121557,2278,0.64868164,-0.6814575,0.309021
1605203121558,2279,0.6989746,-0.62335205,0.40057373
1605203121559,2280,0.6035156,-0.6567993,0.4179077
1605203121559,2281,0.5734863,-0.67022705,0.4406128
1605203121561,2282,0.6904297,-0.6921997,0.37054443
1605203121561,2283,0.5847168,-0.6699829,0.39471436
1605203121562,2284,0.6035156,-0.6567993,0.4179077
1605203121562,2285,0.6352539,-0.7180786,0.38568115
1605203121563,2286,0.5847168,-0.6699829,0.39471436
1605203121564,2287,0.6833496,-0.7271118,0.35516357
1605203121564,2288,0.40771484,-0.74713135,0.29730225
1605203121564,2289,0.6833496,-0.7271118,0.35516357
1605203121565,2290,0.5854492,-0.7070923,0.32635498
1605203121566,2291,0.5854492,-0.7070923,0.32635498
1605203121566,2292,0.6669922,-0.7217407,0.4076538
1605203121568,2293,0.6669922,-0.7217407,0.4076538
1605203121568,2294,0.7536621,-0.5984497,0.37469482
1605203121569,2295,0.7536621,-0.5984497,0.37469482
1605203121570,2296,0.6989746,-0.62335205,0.40057373
1605203121570,2297,0.6989746,-0.62335205,0.40057373
1605203121571,2298,0.6904297,-0.6921997,0.37054443
1605203121571,2299,0.6904297,-0.6921997,0.37054443
1605203121572,2300,0.6352539,-0.7180786,0.38568115
1605203121574,2301,0.6352539,-0.7180786,0.38568115
1605203121574,2302,0.40771484,-0.74713135,0.29730225
