# Sensor position: Chest
# Sensor side: Right
# Activity type: Movement
# Activity code: 9
# Subject id: s1655560
timestamp,seq,accel_x,accel_y,accel_z
1605203350157,0,-0.45629883,0.8734741,-0.10357666
1605203350160,1,-0.45629883,0.8734741,-0.10357666
1605203350163,2,-0.4453125,0.8468628,-0.08892822
1605203350167,3,-0.4453125,0.8468628,-0.08892822
1605203350171,4,-0.43481445,0.8703003,-0.09283447
1605203350174,5,-0.43481445,0.8703003,-0.09283447
1605203350177,6,-0.42211914,0.8759155,-0.09552002
1605203350178,7,-0.42211914,0.8759155,-0.09552002
1605203350181,8,-0.42578125,0.88397217,-0.09283447
1605203350185,9,-0.42578125,0.88397217,-0.09283447
1605203350188,10,-0.40576172,0.8912964,-0.08673096
1605203350192,11,-0.40576172,0.8912964,-0.08673096
1605203350194,12,-0.40625,0.88201904,-0.0791626
1605203350197,13,-0.40625,0.88201904,-0.0791626
1605203350201,14,-0.4194336,0.8800659,-0.07720947
1605203350204,15,-0.4194336,0.8800659,-0.07720947
1605203350208,16,-0.3984375,0.88812256,-0.08917236
1605203350212,17,-0.3984375,0.88812256,-0.08917236
1605203350214,18,-0.39770508,0.8973999,-0.08526611
1605203350219,19,-0.39770508,0.8973999,-0.08526611
1605203350223,20,-0.40649414,0.8810425,-0.07989502
1605203350224,21,-0.45629883,0.8734741,-0.10357666
1605203350224,22,-0.40649414,0.8810425,-0.07989502
1605203350225,23,-0.40673828,0.88494873,-0.08087158
1605203350226,24,-0.4453125,0.8468628,-0.08892822
1605203350226,25,-0.40673828,0.88494873,-0.08087158
1605203350226,26,-0.43481445,0.8703003,-0.09283447
1605203350227,27,-0.40722656,0.8903198,-0.07623291
1605203350228,28,-0.42211914,0.8759155,-0.09552002
1605203350229,29,-0.4104004,0.88616943,-0.07647705
1605203350230,30,-0.42578125,0.88397217,-0.09283447
1605203350231,31,-0.40820312,0.88446045,-0.07867432
1605203350233,32,-0.40576172,0.8912964,-0.08673096
1605203350234,33,-0.40722656,0.8903198,-0.07623291
1605203350234,34,-0.40625,0.88201904,-0.0791626
1605203350235,35,-0.4104004,0.88616943,-0.07647705
1605203350236,36,-0.41479492,0.8878784,-0.08258057
1605203350237,37,-0.4194336,0.8800659,-0.07720947
1605203350238,38,-0.41333008,0.8800659,-0.07891846
1605203350239,39,-0.3984375,0.88812256,-0.08917236
1605203350240,40,-0.41967773,0.8876343,-0.08453369
1605203350241,41,-0.40820312,0.88446045,-0.07867432
1605203350241,42,-0.39770508,0.8973999,-0.08526611
1605203350242,43,-0.41479492,0.8878784,-0.08258057
1605203350242,44,-0.40649414,0.8810425,-0.07989502
1605203350244,45,-0.40576172,0.89764404,-0.08648682
1605203350244,46,-0.41333008,0.8800659,-0.07891846
1605203350244,47,-0.40673828,0.88494873,-0.08087158
1605203350244,48,-0.40722656,0.8903198,-0.07623291
1605203350246,49,-0.40722656,0.89471436,-0.06304932
1605203350246,50,-0.3959961,0.8439331,-0.061340332
1605203350248,51,-0.4104004,0.88616943,-0.07647705
1605203350248,52,-0.41967773,0.8876343,-0.08453369
1605203350249,53,-0.39135742,0.9291382,-0.06060791
1605203350250,54,-0.40820312,0.88446045,-0.07867432
1605203350250,55,-0.40576172,0.89764404,-0.08648682
1605203350251,56,-0.42382812,0.91033936,-0.03326416
1605203350252,57,-0.41479492,0.8878784,-0.08258057
1605203350252,58,-0.40722656,0.89471436,-0.06304932
1605203350252,59,-0.32080078,0.93255615,-0.004699707
1605203350253,60,-0.41333008,0.8800659,-0.07891846
1605203350254,61,-0.3959961,0.8439331,-0.061340332
1605203350255,62,-0.41967773,0.8876343,-0.08453369
1605203350255,63,-0.38989258,0.8756714,0.019958496
1605203350256,64,-0.40576172,0.89764404,-0.08648682
1605203350256,65,-0.35253906,0.85931396,0.00579834
1605203350257,66,-0.39135742,0.9291382,-0.06060791
1605203350259,67,-0.40722656,0.89471436,-0.06304932
1605203350259,68,-0.3503418,0.7694702,0.057800293
1605203350261,69,-0.42382812,0.91033936,-0.03326416
1605203350261,70,-0.64038086,0.89471436,0.051696777
1605203350262,71,-0.3959961,0.8439331,-0.061340332
1605203350262,72,-0.32080078,0.93255615,-0.004699707
1605203350263,73,-0.39135742,0.9291382,-0.06060791
1605203350263,74,-0.859375,0.7909546,0.0018920898
1605203350263,75,-0.38989258,0.8756714,0.019958496
1605203350264,76,-0.42382812,0.91033936,-0.03326416
1605203350265,77,-0.5234375,0.77215576,-0.07476807
1605203350265,78,-0.35253906,0.85931396,0.00579834
1605203350265,79,-0.32080078,0.93255615,-0.004699707
1605203350267,80,-0.69018555,0.7892456,-0.13311768
1605203350268,81,-0.3503418,0.7694702,0.057800293
1605203350268,82,-0.5197754,0.652771,-0.22955322
1605203350268,83,-0.64038086,0.89471436,0.051696777
1605203350269,84,-0.38989258,0.8756714,0.019958496
1605203350269,85,-0.859375,0.7909546,0.0018920898
1605203350269,86,-0.35253906,0.85931396,0.00579834
1605203350270,87,-0.5234375,0.77215576,-0.07476807
1605203350270,88,-0.3503418,0.7694702,0.057800293
1605203350270,89,-0.69018555,0.7892456,-0.13311768
1605203350270,90,-0.64038086,0.89471436,0.051696777
1605203350271,91,-0.5197754,0.652771,-0.22955322
1605203350271,92,-0.859375,0.7909546,0.0018920898
1605203350271,93,-0.5234375,0.77215576,-0.07476807
1605203350272,94,-0.69018555,0.7892456,-0.13311768
1605203350273,95,-0.5197754,0.652771,-0.22955322
1605203352734,96,-0.5148926,0.90838623,-0.038391113
1605203352734,97,-0.6220703,0.8043823,-0.12652588
1605203352735,98,-0.5148926,0.90838623,-0.038391113
1605203352736,99,-0.5148926,0.90838623,-0.038391113
1605203352736,100,-0.71728516,0.8065796,-0.18902588
1605203352737,101,-0.6220703,0.8043823,-0.12652588
1605203352738,102,-0.70874023,0.70770264,-0.05206299
1605203352739,103,-0.71728516,0.8065796,-0.18902588
1605203352740,104,-0.5617676,0.6317749,-0.33502197
1605203352740,105,-0.70874023,0.70770264,-0.05206299
1605203352740,106,-0.8466797,0.74798584,-0.1765747
1605203352741,107,-0.5617676,0.6317749,-0.33502197
1605203352742,108,-0.90478516,0.52679443,-0.12701416
1605203352743,109,-0.7192383,0.84490967,-0.062316895
1605203352743,110,-0.6220703,0.8043823,-0.12652588
1605203352743,111,-0.8466797,0.74798584,-0.1765747
1605203352743,112,-0.90478516,0.52679443,-0.12701416
1605203352744,113,-0.4260254,0.7145386,-0.04815674
1605203352745,114,-0.7192383,0.84490967,-0.062316895
1605203352746,115,-0.64575195,0.7140503,-0.057434082
1605203352747,116,-0.4260254,0.7145386,-0.04815674
1605203352747,117,-0.71728516,0.8065796,-0.18902588
1605203352747,118,-0.64575195,0.7140503,-0.057434082
1605203352748,119,-0.70874023,0.70770264,-0.05206299
1605203352748,120,-0.6435547,0.8043823,-0.27374268
1605203352748,121,-0.6435547,0.8043823,-0.27374268
1605203352749,122,-0.48413086,0.77264404,0.022644043
1605203352750,123,-0.5617676,0.6317749,-0.33502197
1605203352750,124,-0.48413086,0.77264404,0.022644043
1605203352751,125,-0.8466797,0.74798584,-0.1765747
1605203352752,126,-0.86816406,0.79559326,-0.19024658
1605203352752,127,-0.86816406,0.79559326,-0.19024658
1605203352753,128,-0.90478516,0.52679443,-0.12701416
1605203352753,129,-0.5229492,0.8185425,-0.16314697
1605203352754,130,-0.7192383,0.84490967,-0.062316895
1605203352755,131,-0.4260254,0.7145386,-0.04815674
1605203352756,132,-0.5710449,0.8139038,-0.22808838
1605203352756,133,-0.64575195,0.7140503,-0.057434082
1605203352757,134,-0.5229492,0.8185425,-0.16314697
1605203352758,135,-0.70092773,0.66082764,-0.14556885
1605203352758,136,-0.5710449,0.8139038,-0.22808838
1605203352759,137,-0.62719727,0.8805542,0.026306152
1605203352760,138,-0.6435547,0.8043823,-0.27374268
1605203352760,139,-0.70092773,0.66082764,-0.14556885
1605203352761,140,-0.8417969,0.6889038,-0.17071533
1605203352761,141,-0.62719727,0.8805542,0.026306152
1605203352762,142,-0.59814453,0.6642456,-0.159729
1605203352762,143,-0.48413086,0.77264404,0.022644043
1605203352763,144,-0.8417969,0.6889038,-0.17071533
1605203352763,145,-0.6484375,0.71673584,-0.14068604
1605203352764,146,-0.86816406,0.79559326,-0.19024658
1605203352764,147,-0.59814453,0.6642456,-0.159729
1605203352765,148,-0.58325195,0.6925659,-0.14459229
1605203352766,149,-0.6682129,0.7411499,0.0060424805
1605203352767,150,-0.5229492,0.8185425,-0.16314697
1605203352767,151,-0.6484375,0.71673584,-0.14068604
1605203352767,152,-0.6567383,0.69989014,-0.23443604
1605203352768,153,-0.5710449,0.8139038,-0.22808838
1605203352768,154,-0.58325195,0.6925659,-0.14459229
1605203352769,155,-0.7241211,0.7863159,-0.27667236
1605203352769,156,-0.70092773,0.66082764,-0.14556885
1605203352770,157,-0.7421875,0.63983154,-0.22076416
1605203352770,158,-0.6682129,0.7411499,0.0060424805
1605203352771,159,-0.78393555,0.66864014,-0.06011963
1605203352771,160,-0.6567383,0.69989014,-0.23443604
1605203352772,161,-0.62719727,0.8805542,0.026306152
1605203352772,162,-0.6633301,0.9694214,-0.06378174
1605203352772,163,-0.8417969,0.6889038,-0.17071533
1605203352773,164,-0.7241211,0.7863159,-0.27667236
1605203352774,165,-0.39257812,0.7116089,-0.031311035
1605203352774,166,-0.59814453,0.6642456,-0.159729
1605203352775,167,-0.71728516,0.87615967,-0.0010375977
1605203352775,168,-0.7421875,0.63983154,-0.22076416
1605203352776,169,-0.6484375,0.71673584,-0.14068604
1605203352776,170,-0.44311523,0.70306396,-0.10699463
1605203352776,171,-0.78393555,0.66864014,-0.06011963
1605203352777,172,-0.7746582,0.68792725,-0.051574707
1605203352777,173,-0.58325195,0.6925659,-0.14459229
1605203352778,174,-0.73779297,0.8461304,-0.10211182
1605203352778,175,-0.6633301,0.9694214,-0.06378174
1605203352779,176,-0.6682129,0.7411499,0.0060424805
1605203352780,177,-0.6567383,0.69989014,-0.23443604
1605203352780,178,-0.39257812,0.7116089,-0.031311035
1605203352780,179,-0.71728516,0.87615967,-0.0010375977
1605203352780,180,-0.7241211,0.7863159,-0.27667236
1605203352781,181,-0.44311523,0.70306396,-0.10699463
1605203352781,182,-0.7421875,0.63983154,-0.22076416
1605203352782,183,-0.7746582,0.68792725,-0.051574707
1605203352782,184,-0.78393555,0.66864014,-0.06011963
1605203352783,185,-0.73779297,0.8461304,-0.10211182
1605203352783,186,-0.6633301,0.9694214,-0.06378174
1605203352784,187,-0.39257812,0.7116089,-0.031311035
1605203352785,188,-0.71728516,0.87615967,-0.0010375977
1605203352786,189,-0.44311523,0.70306396,-0.10699463
1605203352786,190,-0.7746582,0.68792725,-0.051574707
1605203352787,191,-0.73779297,0.8461304,-0.10211182
1605203355321,192,-0.50097656,0.8759155,-0.11920166
1605203355322,193,-0.50097656,0.8759155,-0.11920166
1605203355324,194,-0.6032715,0.76361084,-0.09869385
1605203355327,195,-0.6032715,0.76361084,-0.09869385
1605203355331,196,-0.49658203,0.7753296,-0.062316895
1605203355334,197,-0.49658203,0.7753296,-0.062316895
1605203355337,198,-0.7067871,0.7147827,0.012634277
1605203355341,199,-0.7067871,0.7147827,0.012634277
1605203355344,200,-0.84033203,0.7826538,-0.116760254
1605203355348,201,-0.84033203,0.7826538,-0.116760254
1605203355351,202,-0.7080078,0.59588623,-0.16314697
1605203355352,203,-0.7080078,0.59588623,-0.16314697
1605203355354,204,-0.7089844,0.7809448,-0.23321533
1605203355354,205,-0.7089844,0.7809448,-0.23321533
1605203355354,206,-0.50097656,0.8759155,-0.11920166
1605203355355,207,-0.5229492,0.60198975,-0.20172119
1605203355357,208,-0.6242676,0.86590576,0.0602417
1605203355360,209,-0.6032715,0.76361084,-0.09869385
1605203355361,210,-0.7980957,0.7826538,-0.12286377
1605203355362,211,-0.49658203,0.7753296,-0.062316895
1605203355363,212,-0.7067871,0.7147827,0.012634277
1605203355364,213,-0.5229492,0.60198975,-0.20172119
1605203355365,214,-0.84033203,0.7826538,-0.116760254
1605203355366,215,-0.7553711,0.5651245,-0.2432251
1605203355367,216,-0.7080078,0.59588623,-0.16314697
1605203355368,217,-0.5847168,0.86883545,-0.16339111
1605203355369,218,-0.61083984,0.6503296,-0.2444458
1605203355370,219,-0.7089844,0.7809448,-0.23321533
1605203355371,220,-0.73339844,0.62420654,-0.010803223
1605203355371,221,-0.8293457,1.0765991,-0.04840088
1605203355373,222,-0.6242676,0.86590576,0.0602417
1605203355374,223,-0.36254883,0.821228,-0.031066895
1605203355375,224,-0.5229492,0.60198975,-0.20172119
1605203355376,225,-0.46801758,0.8265991,0.019470215
1605203355377,226,-0.6242676,0.86590576,0.0602417
1605203355377,227,-0.7980957,0.7826538,-0.12286377
1605203355378,228,-0.7980957,0.7826538,-0.12286377
1605203355379,229,-0.7553711,0.5651245,-0.2432251
1605203355380,230,-0.5847168,0.86883545,-0.16339111
1605203355381,231,-0.61083984,0.6503296,-0.2444458
1605203355382,232,-0.73339844,0.62420654,-0.010803223
1605203355383,233,-0.625,0.7003784,-0.031066895
1605203355383,234,-0.7553711,0.5651245,-0.2432251
1605203355384,235,-0.8293457,1.0765991,-0.04840088
1605203355385,236,-0.6142578,0.56951904,0.016540527
1605203355386,237,-0.5847168,0.86883545,-0.16339111
1605203355386,238,-0.36254883,0.821228,-0.031066895
1605203355386,239,-0.6550293,0.75823975,0.002380371
1605203355386,240,-0.61083984,0.6503296,-0.2444458
1605203355387,241,-0.46801758,0.8265991,0.019470215
1605203355388,242,-0.73339844,0.62420654,-0.010803223
1605203355389,243,-0.625,0.7003784,-0.031066895
1605203355389,244,-0.8293457,1.0765991,-0.04840088
1605203355390,245,-0.6142578,0.56951904,0.016540527
1605203355390,246,-0.36254883,0.821228,-0.031066895
1605203355391,247,-0.6550293,0.75823975,0.002380371
1605203355391,248,-0.9621582,0.80340576,-0.1026001
1605203355393,249,-0.46801758,0.8265991,0.019470215
1605203355394,250,-0.9621582,0.80340576,-0.1026001
1605203355394,251,-0.35131836,0.8781128,-0.03326416
1605203355394,252,-0.625,0.7003784,-0.031066895
1605203355395,253,-0.35131836,0.8781128,-0.03326416
1605203355396,254,-0.7421875,0.76190186,-0.035949707
1605203355396,255,-0.6142578,0.56951904,0.016540527
1605203355397,256,-0.7421875,0.76190186,-0.035949707
1605203355397,257,-0.46899414,0.8446655,-0.043029785
1605203355399,258,-0.6550293,0.75823975,0.002380371
1605203355399,259,-0.48120117,0.8119507,6.713867E-4
1605203355399,260,-0.46899414,0.8446655,-0.043029785
1605203355401,261,-0.9621582,0.80340576,-0.1026001
1605203355401,262,-0.52197266,0.7081909,0.06732178
1605203355402,263,-0.48120117,0.8119507,6.713867E-4
1605203355402,264,-0.88427734,0.774353,-0.041809082
1605203355402,265,-0.35131836,0.8781128,-0.03326416
1605203355403,266,-0.52197266,0.7081909,0.06732178
1605203355404,267,-0.88427734,0.774353,-0.041809082
1605203355405,268,-0.7421875,0.76190186,-0.035949707
1605203355405,269,-0.7844238,0.71917725,-0.16314697
1605203355406,270,-0.7844238,0.71917725,-0.16314697
1605203355406,271,-0.46899414,0.8446655,-0.043029785
1605203355407,272,-0.69750977,0.7958374,-0.09307861
1605203355407,273,-0.69750977,0.7958374,-0.09307861
1605203355407,274,-0.48120117,0.8119507,6.713867E-4
1605203355409,275,-0.48242188,0.7301636,-0.12408447
1605203355409,276,-0.48242188,0.7301636,-0.12408447
1605203355409,277,-0.52197266,0.7081909,0.06732178
1605203355410,278,-0.59716797,0.7411499,0.03314209
1605203355411,279,-0.59716797,0.7411499,0.03314209
1605203355411,280,-0.88427734,0.774353,-0.041809082
1605203355411,281,-0.72924805,0.7868042,-0.109436035
1605203355412,282,-0.72924805,0.7868042,-0.109436035
1605203355413,283,-0.7844238,0.71917725,-0.16314697
1605203355414,284,-0.69750977,0.7958374,-0.09307861
1605203355415,285,-0.48242188,0.7301636,-0.12408447
1605203355416,286,-0.59716797,0.7411499,0.03314209
1605203355416,287,-0.72924805,0.7868042,-0.109436035
1605203357909,288,-0.6459961,0.6984253,-0.14996338
1605203357910,289,-0.6459961,0.6984253,-0.14996338
1605203357910,290,-0.6459961,0.6984253,-0.14996338
1605203357910,291,-0.7932129,0.73724365,-0.07940674
1605203357913,292,-0.7932129,0.73724365,-0.07940674
1605203357918,293,-0.7932129,0.73724365,-0.07940674
1605203357918,294,-0.74072266,0.6010132,-0.17681885
1605203357919,295,-0.74072266,0.6010132,-0.17681885
1605203357919,296,-0.74072266,0.6010132,-0.17681885
1605203357922,297,-0.83032227,0.7575073,0.07611084
1605203357926,298,-0.83032227,0.7575073,0.07611084
1605203357929,299,-0.7253418,0.8944702,0.07342529
1605203357933,300,-0.7253418,0.8944702,0.07342529
1605203357936,301,-0.3100586,0.72332764,0.11248779
1605203357939,302,-0.3100586,0.72332764,0.11248779
1605203357943,303,-0.65478516,0.82318115,0.11395264
1605203357944,304,-0.65478516,0.82318115,0.11395264
1605203357948,305,-0.53271484,0.6935425,0.070251465
1605203357950,306,-0.53271484,0.6935425,0.070251465
1605203357952,307,-0.65893555,0.6078491,0.04925537
1605203357952,308,-0.65893555,0.6078491,0.04925537
1605203357953,309,-0.83032227,0.7575073,0.07611084
1605203357955,310,-0.7980957,0.84661865,0.08905029
1605203357959,311,-0.7980957,0.84661865,0.08905029
1605203357962,312,-0.3684082,0.88616943,0.11102295
1605203357966,313,-0.3684082,0.88616943,0.11102295
1605203357969,314,-0.63964844,0.822937,0.046325684
1605203357971,315,-0.63964844,0.822937,0.046325684
1605203357972,316,-0.3803711,0.8390503,0.08831787
1605203357976,317,-0.3803711,0.8390503,0.08831787
1605203357978,318,-0.5239258,0.70306396,0.18206787
1605203357980,319,-0.5239258,0.70306396,0.18206787
1605203357985,320,-0.86621094,0.7699585,0.24676514
1605203357986,321,-0.7253418,0.8944702,0.07342529
1605203357986,322,-0.86621094,0.7699585,0.24676514
1605203357987,323,-0.8132324,0.67059326,0.08880615
1605203357987,324,-0.8132324,0.67059326,0.08880615
1605203357991,325,-0.29077148,0.7538452,0.055358887
1605203357992,326,-0.29077148,0.7538452,0.055358887
1605203357993,327,-0.6894531,1.1056519,0.0018920898
1605203357994,328,-0.55200195,0.4989624,-0.13140869
1605203357995,329,-0.6894531,1.1056519,0.0018920898
1605203357996,330,-0.6459961,0.7284546,0.18572998
1605203357997,331,-0.55200195,0.4989624,-0.13140869
1605203357998,332,-0.7216797,1.026062,0.050231934
1605203358000,333,-0.3100586,0.72332764,0.11248779
1605203358000,334,-0.5515137,0.69158936,-0.057922363
1605203358001,335,-0.67993164,0.8588257,0.058776855
1605203358001,336,-0.6459961,0.7284546,0.18572998
1605203358002,337,-0.67529297,0.6034546,-0.23638916
1605203358003,338,-0.7216797,1.026062,0.050231934
1605203358004,339,-0.7319336,0.90911865,0.02557373
1605203358005,340,-0.5515137,0.69158936,-0.057922363
1605203358006,341,-0.6821289,0.7081909,0.1083374
1605203358007,342,-0.67993164,0.8588257,0.058776855
1605203358007,343,-0.67529297,0.6034546,-0.23638916
1605203358008,344,-0.6464844,0.8082886,0.08050537
1605203358009,345,-0.7319336,0.90911865,0.02557373
1605203358011,346,-0.6242676,0.63812256,0.23138428
1605203358011,347,-0.65478516,0.82318115,0.11395264
1605203358012,348,-0.6821289,0.7081909,0.1083374
1605203358012,349,-0.48242188,0.6598511,0.29437256
1605203358013,350,-0.6464844,0.8082886,0.08050537
1605203358013,351,-0.6279297,0.74627686,0.0836792
1605203358014,352,-0.6242676,0.63812256,0.23138428
1605203358015,353,-0.3869629,0.8432007,0.19915771
1605203358016,354,-0.48242188,0.6598511,0.29437256
1605203358016,355,-0.53271484,0.6935425,0.070251465
1605203358016,356,-1.0454102,0.5968628,0.260437
1605203358018,357,-0.6279297,0.74627686,0.0836792
1605203358018,358,-0.65893555,0.6078491,0.04925537
1605203358019,359,-0.3869629,0.8432007,0.19915771
1605203358021,360,-0.7980957,0.84661865,0.08905029
1605203358022,361,-1.0454102,0.5968628,0.260437
1605203358022,362,-0.3684082,0.88616943,0.11102295
1605203358023,363,-0.63964844,0.822937,0.046325684
1605203358023,364,-0.3803711,0.8390503,0.08831787
1605203358023,365,-0.5239258,0.70306396,0.18206787
1605203358024,366,-0.86621094,0.7699585,0.24676514
1605203358025,367,-0.8132324,0.67059326,0.08880615
1605203358026,368,-0.29077148,0.7538452,0.055358887
1605203358027,369,-0.6894531,1.1056519,0.0018920898
1605203358027,370,-0.55200195,0.4989624,-0.13140869
1605203358028,371,-0.6459961,0.7284546,0.18572998
1605203358029,372,-0.7216797,1.026062,0.050231934
1605203358030,373,-0.5515137,0.69158936,-0.057922363
1605203358031,374,-0.67993164,0.8588257,0.058776855
1605203358032,375,-0.67529297,0.6034546,-0.23638916
1605203358033,376,-0.7319336,0.90911865,0.02557373
1605203358034,377,-0.6821289,0.7081909,0.1083374
1605203358035,378,-0.6464844,0.8082886,0.08050537
1605203358036,379,-0.6242676,0.63812256,0.23138428
1605203358037,380,-0.48242188,0.6598511,0.29437256
1605203358038,381,-0.6279297,0.74627686,0.0836792
1605203358038,382,-0.3869629,0.8432007,0.19915771
1605203358039,383,-1.0454102,0.5968628,0.260437
1605203360295,384,-0.38745117,0.8329468,0.16668701
1605203360299,385,-0.38745117,0.8329468,0.16668701
1605203360302,386,-0.49267578,0.883728,0.14251709
1605203360306,387,-0.49267578,0.883728,0.14251709
1605203360310,388,-0.58618164,0.855896,0.16546631
1605203360314,389,-0.58618164,0.855896,0.16546631
1605203360317,390,-0.5866699,0.66278076,0.27435303
1605203360320,391,-0.5866699,0.66278076,0.27435303
1605203360324,392,-0.80444336,0.8793335,0.2062378
1605203360325,393,-0.80444336,0.8793335,0.2062378
1605203360329,394,-0.6516113,0.68670654,-0.015197754
1605203360333,395,-0.6516113,0.68670654,-0.015197754
1605203360336,396,-0.66308594,0.5621948,-0.028137207
1605203360340,397,-0.66308594,0.5621948,-0.028137207
1605203360344,398,-0.5258789,0.7055054,-0.13555908
1605203360347,399,-0.5258789,0.7055054,-0.13555908
1605203360351,400,-0.8100586,0.8500366,-0.0803833
1605203360355,401,-0.8100586,0.8500366,-0.0803833
1605203360356,402,-0.38745117,0.8329468,0.16668701
1605203360359,403,-0.6154785,0.62908936,0.081726074
1605203360360,404,-0.49267578,0.883728,0.14251709
1605203360360,405,-0.6154785,0.62908936,0.081726074
1605203360365,406,-0.6008301,0.7238159,0.13568115
1605203360365,407,-0.58618164,0.855896,0.16546631
1605203360366,408,-0.6008301,0.7238159,0.13568115
1605203360371,409,-0.5866699,0.66278076,0.27435303
1605203360371,410,-0.7897949,0.7250366,0.070739746
1605203360371,411,-0.7897949,0.7250366,0.070739746
1605203360372,412,-0.80444336,0.8793335,0.2062378
1605203360372,413,-0.5908203,1.0519409,0.2850952
1605203360375,414,-0.5908203,1.0519409,0.2850952
1605203360379,415,-0.3330078,0.6618042,0.2020874
1605203360382,416,-0.3330078,0.6618042,0.2020874
1605203360386,417,-0.64501953,0.6774292,0.21868896
1605203360389,418,-0.64501953,0.6774292,0.21868896
1605203360393,419,-0.5673828,0.6535034,0.33294678
1605203360396,420,-0.5673828,0.6535034,0.33294678
1605203360397,421,-0.6035156,0.67596436,0.39349365
1605203360399,422,-0.6035156,0.67596436,0.39349365
1605203360400,423,-0.7241211,0.7741089,0.2970581
1605203360401,424,-0.7241211,0.7741089,0.2970581
1605203360403,425,-0.8376465,0.56829834,0.19232178
1605203360403,426,-0.8376465,0.56829834,0.19232178
1605203360403,427,-0.6516113,0.68670654,-0.015197754
1605203360405,428,-0.66308594,0.5621948,-0.028137207
1605203360406,429,-0.7426758,0.62542725,0.17181396
1605203360407,430,-0.5258789,0.7055054,-0.13555908
1605203360408,431,-0.8249512,0.62713623,0.16693115
1605203360409,432,-0.8100586,0.8500366,-0.0803833
1605203360409,433,-0.6154785,0.62908936,0.081726074
1605203360411,434,-0.7426758,0.62542725,0.17181396
1605203360411,435,-0.6008301,0.7238159,0.13568115
1605203360412,436,-0.8249512,0.62713623,0.16693115
1605203360412,437,-0.84765625,0.37738037,0.16009521
1605203360412,438,-0.7897949,0.7250366,0.070739746
1605203360413,439,-0.9584961,0.44647217,0.18597412
1605203360415,440,-0.84765625,0.37738037,0.16009521
1605203360415,441,-0.5908203,1.0519409,0.2850952
1605203360415,442,-1.0324707,0.25286865,0.23431396
1605203360416,443,-0.9584961,0.44647217,0.18597412
1605203360417,444,-0.70825195,0.2514038,0.19256592
1605203360418,445,-1.0324707,0.25286865,0.23431396
1605203360418,446,-0.3330078,0.6618042,0.2020874
1605203360423,447,-0.6542969,0.5026245,0.18084717
1605203360434,448,-0.64501953,0.6774292,0.21868896
1605203360434,449,-0.75146484,0.7116089,0.06390381
1605203360434,450,-0.70825195,0.2514038,0.19256592
1605203360434,451,-0.5673828,0.6535034,0.33294678
1605203360435,452,-0.6035156,0.67596436,0.39349365
1605203360436,453,-0.6542969,0.5026245,0.18084717
1605203360436,454,-0.76708984,0.6508179,0.050964355
1605203360436,455,-0.7241211,0.7741089,0.2970581
1605203360436,456,-0.75146484,0.7116089,0.06390381
1605203360437,457,-0.8376465,0.56829834,0.19232178
1605203360439,458,-0.76708984,0.6508179,0.050964355
1605203360439,459,-0.7426758,0.62542725,0.17181396
1605203360440,460,-0.86035156,0.6901245,0.066589355
1605203360440,461,-0.8249512,0.62713623,0.16693115
1605203360441,462,-0.6386719,0.76434326,0.11004639
1605203360441,463,-0.86035156,0.6901245,0.066589355
1605203360444,464,-0.75,0.6732788,0.07757568
1605203360444,465,-0.84765625,0.37738037,0.16009521
1605203360444,466,-0.7631836,0.63494873,0.12249756
1605203360444,467,-0.9584961,0.44647217,0.18597412
1605203360444,468,-0.6386719,0.76434326,0.11004639
1605203360446,469,-1.0324707,0.25286865,0.23431396
1605203360447,470,-0.75,0.6732788,0.07757568
1605203360447,471,-0.70825195,0.2514038,0.19256592
1605203360448,472,-0.7631836,0.63494873,0.12249756
1605203360448,473,-0.6542969,0.5026245,0.18084717
1605203360449,474,-0.75146484,0.7116089,0.06390381
1605203360451,475,-0.76708984,0.6508179,0.050964355
1605203360452,476,-0.86035156,0.6901245,0.066589355
1605203360453,477,-0.6386719,0.76434326,0.11004639
1605203360454,478,-0.75,0.6732788,0.07757568
1605203360455,479,-0.7631836,0.63494873,0.12249756
1605203362876,480,-0.86499023,0.6190796,0.006286621
1605203362879,481,-0.86499023,0.6190796,0.006286621
1605203362883,482,-0.79833984,0.61761475,0.03289795
1605203362886,483,-0.79833984,0.61761475,0.03289795
1605203362890,484,-0.642334,0.53826904,0.15570068
1605203362893,485,-0.642334,0.53826904,0.15570068
1605203362896,486,-0.8327637,0.61273193,0.17010498
1605203362900,487,-0.8327637,0.61273193,0.17010498
1605203362903,488,-0.7145996,0.51971436,0.34710693
1605203362907,489,-0.7145996,0.51971436,0.34710693
1605203362911,490,-0.9890137,0.5758667,0.12786865
1605203362915,491,-0.9890137,0.5758667,0.12786865
1605203362919,492,-0.6386719,0.65008545,0.23699951
1605203362922,493,-0.6386719,0.65008545,0.23699951
1605203362926,494,-0.98168945,0.54364014,0.26263428
1605203362929,495,-0.98168945,0.54364014,0.26263428
1605203362932,496,-0.68774414,0.6610718,0.29241943
1605203362932,497,-0.68774414,0.6610718,0.29241943
1605203362933,498,-0.86499023,0.6190796,0.006286621
1605203362935,499,-0.79833984,0.61761475,0.03289795
1605203362935,500,-0.6984863,0.66448975,0.062927246
1605203362935,501,-0.6984863,0.66448975,0.062927246
1605203362938,502,-0.8666992,0.45550537,0.3690796
1605203362941,503,-0.8666992,0.45550537,0.3690796
1605203362945,504,-0.65527344,0.7965698,0.2543335
1605203362949,505,-0.65527344,0.7965698,0.2543335
1605203362951,506,-0.60546875,0.61639404,0.17132568
1605203362953,507,-0.60546875,0.61639404,0.17132568
1605203362956,508,-0.7993164,0.6395874,0.30462646
1605203362957,509,-0.7993164,0.6395874,0.30462646
1605203362960,510,-0.49536133,0.69329834,0.25164795
1605203362960,511,-0.49536133,0.69329834,0.25164795
1605203362960,512,-0.642334,0.53826904,0.15570068
1605203362961,513,-0.8327637,0.61273193,0.17010498
1605203362962,514,-0.5605469,0.9293823,0.12054443
1605203362962,515,-0.7145996,0.51971436,0.34710693
1605203362963,516,-0.5541992,0.67596436,0.21136475
1605203362964,517,-0.5605469,0.9293823,0.12054443
1605203362964,518,-0.53222656,0.8156128,0.11077881
1605203362966,519,-0.5541992,0.67596436,0.21136475
1605203362967,520,-0.56274414,0.9125366,0.1005249
1605203362968,521,-0.53222656,0.8156128,0.11077881
1605203362968,522,-0.7458496,0.9130249,0.16229248
1605203362969,523,-0.56274414,0.9125366,0.1005249
1605203362970,524,-0.58740234,0.81951904,0.16351318
1605203362971,525,-0.7458496,0.9130249,0.16229248
1605203362972,526,-0.6711426,0.30194092,0.08758545
1605203362973,527,-0.58740234,0.81951904,0.16351318
1605203362975,528,-0.81469727,0.618103,-0.009094238
1605203362975,529,-0.9890137,0.5758667,0.12786865
1605203362976,530,-0.6711426,0.30194092,0.08758545
1605203362976,531,-0.81469727,0.618103,-0.009094238
1605203362976,532,-0.50024414,0.79852295,0.014831543
1605203362977,533,-0.50024414,0.79852295,0.014831543
1605203362978,534,-0.545166,0.79681396,0.15081787
1605203362978,535,-0.545166,0.79681396,0.15081787
1605203362979,536,-0.7006836,0.62054443,0.3414917
1605203362980,537,-0.7006836,0.62054443,0.3414917
1605203362981,538,-0.71899414,0.7345581,-0.04937744
1605203362981,539,-0.6386719,0.65008545,0.23699951
1605203362982,540,-0.71899414,0.7345581,-0.04937744
1605203362983,541,-0.98168945,0.54364014,0.26263428
1605203362983,542,-0.70336914,0.5397339,0.30682373
1605203362983,543,-0.70336914,0.5397339,0.30682373
1605203362984,544,-0.9069824,0.79193115,0.14422607
1605203362985,545,-0.68774414,0.6610718,0.29241943
1605203362985,546,-0.9069824,0.79193115,0.14422607
1605203362986,547,-0.6936035,0.6425171,-0.093811035
1605203362987,548,-0.6984863,0.66448975,0.062927246
1605203362987,549,-0.6936035,0.6425171,-0.093811035
1605203362987,550,-0.76293945,0.72698975,0.039978027
1605203362988,551,-0.8666992,0.45550537,0.3690796
1605203362989,552,-0.76293945,0.72698975,0.039978027
1605203362989,553,-0.765625,0.5350952,-0.0017700195
1605203362990,554,-0.65527344,0.7965698,0.2543335
1605203362990,555,-0.765625,0.5350952,-0.0017700195
1605203362991,556,-0.60546875,0.61639404,0.17132568
1605203362993,557,-0.7993164,0.6395874,0.30462646
1605203362993,558,-0.49536133,0.69329834,0.25164795
1605203362994,559,-0.5605469,0.9293823,0.12054443
1605203362995,560,-0.5541992,0.67596436,0.21136475
1605203362996,561,-0.53222656,0.8156128,0.11077881
1605203362997,562,-0.56274414,0.9125366,0.1005249
1605203362998,563,-0.7458496,0.9130249,0.16229248
1605203363000,564,-0.58740234,0.81951904,0.16351318
1605203363000,565,-0.6711426,0.30194092,0.08758545
1605203363000,566,-0.81469727,0.618103,-0.009094238
1605203363002,567,-0.50024414,0.79852295,0.014831543
1605203363002,568,-0.545166,0.79681396,0.15081787
1605203363003,569,-0.7006836,0.62054443,0.3414917
1605203363004,570,-0.71899414,0.7345581,-0.04937744
1605203363005,571,-0.70336914,0.5397339,0.30682373
1605203363006,572,-0.9069824,0.79193115,0.14422607
1605203363007,573,-0.6936035,0.6425171,-0.093811035
1605203363008,574,-0.76293945,0.72698975,0.039978027
1605203363009,575,-0.765625,0.5350952,-0.0017700195
1605203365460,576,-0.7734375,0.9215698,0.20648193
1605203365463,577,-0.7734375,0.9215698,0.20648193
1605203365467,578,-0.71850586,0.6481323,0.13250732
1605203365471,579,-0.71850586,0.6481323,0.13250732
1605203365474,580,-0.37841797,0.68914795,0.11444092
1605203365477,581,-0.37841797,0.68914795,0.11444092
1605203365481,582,-0.7800293,0.64959717,0.07611084
1605203365484,583,-0.7800293,0.64959717,0.07611084
1605203365488,584,-0.5546875,0.7650757,0.026062012
1605203365492,585,-0.5546875,0.7650757,0.026062012
1605203365496,586,-0.7976074,0.84490967,0.029724121
1605203365499,587,-0.7976074,0.84490967,0.029724121
1605203365501,588,-0.5083008,0.7050171,0.036315918
1605203365505,589,-0.5083008,0.7050171,0.036315918
1605203365508,590,-0.6281738,0.7460327,0.11517334
1605203365512,591,-0.6281738,0.7460327,0.11517334
1605203365515,592,-0.5593262,0.72088623,0.11126709
1605203365519,593,-0.5593262,0.72088623,0.11126709
1605203365522,594,-0.87475586,0.7680054,0.093688965
1605203365527,595,-0.87475586,0.7680054,0.093688965
1605203365530,596,-0.27929688,0.8488159,0.08294678
1605203365533,597,-0.27929688,0.8488159,0.08294678
1605203365537,598,-0.59106445,0.8666382,0.19818115
1605203365541,599,-0.59106445,0.8666382,0.19818115
1605203365544,600,-0.3984375,0.7555542,0.17645264
1605203365547,601,-0.3984375,0.7555542,0.17645264
1605203365551,602,-0.99780273,0.6950073,0.29656982
1605203365554,603,-0.99780273,0.6950073,0.29656982
1605203365558,604,-0.55493164,0.74139404,0.097595215
1605203365562,605,-0.55493164,0.74139404,0.097595215
1605203365565,606,-0.42260742,0.8278198,0.09320068
1605203365566,607,-0.42260742,0.8278198,0.09320068
1605203365570,608,-0.8881836,0.70965576,0.10614014
1605203365573,609,-0.8881836,0.70965576,0.10614014
1605203365574,610,-0.46533203,0.75164795,0.14764404
1605203365575,611,-0.46533203,0.75164795,0.14764404
1605203365576,612,-0.7734375,0.9215698,0.20648193
1605203365577,613,-0.64868164,0.7184448,0.18695068
1605203365579,614,-0.81225586,0.70770264,-0.059631348
1605203365580,615,-0.64868164,0.7184448,0.18695068
1605203365580,616,-0.71850586,0.6481323,0.13250732
1605203365580,617,-0.6184082,0.6210327,-0.06964111
1605203365582,618,-0.37841797,0.68914795,0.11444092
1605203365582,619,-0.81225586,0.70770264,-0.059631348
1605203365582,620,-0.8474121,0.47454834,-0.09698486
1605203365583,621,-0.7800293,0.64959717,0.07611084
1605203365584,622,-0.9904785,0.71209717,0.09906006
1605203365585,623,-0.5546875,0.7650757,0.026062012
1605203365586,624,-0.8076172,0.37127686,0.13128662
1605203365588,625,-0.7976074,0.84490967,0.029724121
1605203365588,626,-0.7729492,0.37908936,0.036315918
1605203365589,627,-0.6184082,0.6210327,-0.06964111
1605203365590,628,-0.5083008,0.7050171,0.036315918
1605203365591,629,-0.8474121,0.47454834,-0.09698486
1605203365592,630,-0.6281738,0.7460327,0.11517334
1605203365593,631,-0.9904785,0.71209717,0.09906006
1605203365594,632,-0.5593262,0.72088623,0.11126709
1605203365595,633,-0.87475586,0.7680054,0.093688965
1605203365596,634,-0.8076172,0.37127686,0.13128662
1605203365597,635,-0.7729492,0.37908936,0.036315918
1605203365598,636,-0.27929688,0.8488159,0.08294678
1605203365599,637,-0.88500977,0.69940186,0.23040771
1605203365599,638,-0.88500977,0.69940186,0.23040771
1605203365600,639,-0.59106445,0.8666382,0.19818115
1605203365601,640,-0.95336914,0.39105225,0.14447021
1605203365601,641,-0.95336914,0.39105225,0.14447021
1605203365603,642,-0.73876953,0.46820068,0.13885498
1605203365603,643,-0.3984375,0.7555542,0.17645264
1605203365604,644,-0.73876953,0.46820068,0.13885498
1605203365604,645,-0.98535156,0.66448975,0.20379639
1605203365604,646,-0.99780273,0.6950073,0.29656982
1605203365604,647,-0.98535156,0.66448975,0.20379639
1605203365605,648,-0.55493164,0.74139404,0.097595215
1605203365605,649,-0.80688477,0.5775757,0.13616943
1605203365607,650,-0.80688477,0.5775757,0.13616943
1605203365608,651,-0.42260742,0.8278198,0.09320068
1605203365608,652,-0.7080078,0.54022217,0.23480225
1605203365608,653,-0.7080078,0.54022217,0.23480225
1605203365608,654,-0.8881836,0.70965576,0.10614014
1605203365609,655,-0.9580078,0.46722412,0.21722412
1605203365609,656,-0.9580078,0.46722412,0.21722412
1605203365610,657,-0.46533203,0.75164795,0.14764404
1605203365612,658,-0.64868164,0.7184448,0.18695068
1605203365614,659,-0.81225586,0.70770264,-0.059631348
1605203365615,660,-0.6184082,0.6210327,-0.06964111
1605203365616,661,-0.8474121,0.47454834,-0.09698486
1605203365616,662,-0.9904785,0.71209717,0.09906006
1605203365618,663,-0.8076172,0.37127686,0.13128662
1605203365619,664,-0.7729492,0.37908936,0.036315918
1605203365619,665,-0.88500977,0.69940186,0.23040771
1605203365620,666,-0.95336914,0.39105225,0.14447021
1605203365621,667,-0.73876953,0.46820068,0.13885498
1605203365622,668,-0.98535156,0.66448975,0.20379639
1605203365623,669,-0.80688477,0.5775757,0.13616943
1605203365625,670,-0.7080078,0.54022217,0.23480225
1605203365625,671,-0.9580078,0.46722412,0.21722412
1605203368043,672,-0.6374512,0.76116943,0.1359253
1605203368043,673,-0.6374512,0.76116943,0.1359253
1605203368043,674,-0.6374512,0.76116943,0.1359253
1605203368046,675,-0.56347656,0.7379761,0.14202881
1605203368050,676,-0.56347656,0.7379761,0.14202881
1605203368054,677,-0.4194336,0.855896,0.27996826
1605203368058,678,-0.4194336,0.855896,0.27996826
1605203368061,679,-0.87231445,0.8148804,0.31170654
1605203368065,680,-0.87231445,0.8148804,0.31170654
1605203368069,681,-0.6994629,0.6720581,0.2164917
1605203368072,682,-0.6994629,0.6720581,0.2164917
1605203368075,683,-0.42773438,0.69525146,0.034118652
1605203368079,684,-0.42773438,0.69525146,0.034118652
1605203368082,685,-0.595459,0.93621826,0.073913574
1605203368086,686,-0.595459,0.93621826,0.073913574
1605203368089,687,-0.5305176,0.71990967,0.05218506
1605203368092,688,-0.5305176,0.71990967,0.05218506
1605203368094,689,-0.5168457,0.7716675,0.24993896
1605203368098,690,-0.5168457,0.7716675,0.24993896
1605203368101,691,-0.63720703,0.79437256,0.06439209
1605203368104,692,-0.63720703,0.79437256,0.06439209
1605203368108,693,-0.43408203,0.89642334,0.028015137
1605203368112,694,-0.43408203,0.89642334,0.028015137
1605203368115,695,-0.70532227,0.79559326,0.0446167
1605203368118,696,-0.70532227,0.79559326,0.0446167
1605203368122,697,-0.58618164,0.7838745,-0.034484863
1605203368125,698,-0.58618164,0.7838745,-0.034484863
1605203368126,699,-0.5974121,0.795105,0.015808105
1605203368134,700,-0.5974121,0.795105,0.015808105
1605203368134,701,-0.56347656,0.7379761,0.14202881
1605203368135,702,-0.7680664,0.76068115,0.1642456
1605203368135,703,-0.4194336,0.855896,0.27996826
1605203368135,704,-0.7680664,0.76068115,0.1642456
1605203368135,705,-0.87231445,0.8148804,0.31170654
1605203368138,706,-0.6843262,0.7748413,0.06707764
1605203368141,707,-0.6843262,0.7748413,0.06707764
1605203368145,708,-0.5649414,0.88616943,0.25604248
1605203368147,709,-0.5649414,0.88616943,0.25604248
1605203368150,710,-0.35083008,0.6613159,0.42791748
1605203368151,711,-0.35083008,0.6613159,0.42791748
1605203368152,712,-0.6672363,0.54730225,0.31488037
1605203368153,713,-0.5871582,0.6876831,0.26190186
1605203368155,714,-0.6672363,0.54730225,0.31488037
1605203368155,715,-0.7294922,0.70892334,0.20941162
1605203368156,716,-0.6994629,0.6720581,0.2164917
1605203368156,717,-0.46948242,0.7706909,0.22283936
1605203368158,718,-0.42773438,0.69525146,0.034118652
1605203368158,719,-0.6398926,0.7055054,0.22747803
1605203368159,720,-0.5871582,0.6876831,0.26190186
1605203368160,721,-0.41479492,0.7194214,0.25286865
1605203368160,722,-0.7294922,0.70892334,0.20941162
1605203368162,723,-0.9250488,0.9069214,0.2699585
1605203368163,724,-0.46948242,0.7706909,0.22283936
1605203368164,725,-0.35595703,0.7506714,0.15496826
1605203368165,726,-0.6398926,0.7055054,0.22747803
1605203368166,727,-0.40039062,0.82684326,0.22503662
1605203368166,728,-0.595459,0.93621826,0.073913574
1605203368167,729,-0.41479492,0.7194214,0.25286865
1605203368168,730,-0.5305176,0.71990967,0.05218506
1605203368169,731,-0.9250488,0.9069214,0.2699585
1605203368169,732,-0.45458984,0.8764038,0.20428467
1605203368170,733,-0.34277344,0.69403076,0.28753662
1605203368171,734,-0.35595703,0.7506714,0.15496826
1605203368172,735,-0.47387695,1.0497437,0.2987671
1605203368172,736,-0.40039062,0.82684326,0.22503662
1605203368173,737,0.03881836,0.73724365,0.30462646
1605203368174,738,-0.45458984,0.8764038,0.20428467
1605203368175,739,-0.28930664,0.94940186,0.40350342
1605203368176,740,-0.34277344,0.69403076,0.28753662
1605203368177,741,-0.47387695,1.0497437,0.2987671
1605203368177,742,-0.5168457,0.7716675,0.24993896
1605203368179,743,0.03881836,0.73724365,0.30462646
1605203368182,744,-0.63720703,0.79437256,0.06439209
1605203368182,745,-0.43408203,0.89642334,0.028015137
1605203368183,746,-0.28930664,0.94940186,0.40350342
1605203368183,747,-0.70532227,0.79559326,0.0446167
1605203368184,748,-0.58618164,0.7838745,-0.034484863
1605203368185,749,-0.5974121,0.795105,0.015808105
1605203368186,750,-0.7680664,0.76068115,0.1642456
1605203368187,751,-0.6843262,0.7748413,0.06707764
1605203368188,752,-0.5649414,0.88616943,0.25604248
1605203368189,753,-0.35083008,0.6613159,0.42791748
1605203368190,754,-0.6672363,0.54730225,0.31488037
1605203368191,755,-0.5871582,0.6876831,0.26190186
1605203368192,756,-0.7294922,0.70892334,0.20941162
1605203368194,757,-0.46948242,0.7706909,0.22283936
1605203368195,758,-0.6398926,0.7055054,0.22747803
1605203368196,759,-0.41479492,0.7194214,0.25286865
1605203368197,760,-0.9250488,0.9069214,0.2699585
1605203368198,761,-0.35595703,0.7506714,0.15496826
1605203368199,762,-0.40039062,0.82684326,0.22503662
1605203368201,763,-0.45458984,0.8764038,0.20428467
1605203368202,764,-0.34277344,0.69403076,0.28753662
1605203368203,765,-0.47387695,1.0497437,0.2987671
1605203368204,766,0.03881836,0.73724365,0.30462646
1605203368205,767,-0.28930664,0.94940186,0.40350342
1605203370627,768,-0.31054688,0.77093506,0.3764038
1605203370630,769,-0.31054688,0.77093506,0.3764038
1605203370630,770,-0.7141113,0.888855,0.2670288
1605203370630,771,-0.31054688,0.77093506,0.3764038
1605203370633,772,-0.35302734,0.9147339,0.07489014
1605203370636,773,-0.7141113,0.888855,0.2670288
1605203370639,774,-0.55810547,0.87835693,0.09051514
1605203370644,775,-0.35302734,0.9147339,0.07489014
1605203370645,776,-0.5180664,0.84832764,0.02508545
1605203370645,777,-0.7141113,0.888855,0.2670288
1605203370647,778,-0.55810547,0.87835693,0.09051514
1605203370652,779,-0.35302734,0.9147339,0.07489014
1605203370659,780,-0.5180664,0.84832764,0.02508545
1605203370662,781,-0.55810547,0.87835693,0.09051514
1605203370665,782,-0.39575195,0.8632202,0.18499756
1605203370667,783,-0.5180664,0.84832764,0.02508545
1605203370668,784,-0.54467773,0.7731323,0.23406982
1605203370670,785,-0.39575195,0.8632202,0.18499756
1605203370671,786,-0.548584,0.9755249,-0.062072754
1605203370673,787,-0.54467773,0.7731323,0.23406982
1605203370675,788,-0.4819336,0.7572632,-0.031066895
1605203370676,789,-0.548584,0.9755249,-0.062072754
1605203370678,790,-0.5678711,0.7748413,-0.014709473
1605203370680,791,-0.4819336,0.7572632,-0.031066895
1605203370681,792,-0.6425781,0.71868896,0.06829834
1605203370683,793,-0.5678711,0.7748413,-0.014709473
1605203370684,794,-0.78881836,0.71502686,0.18719482
1605203370685,795,-0.6425781,0.71868896,0.06829834
1605203370686,796,-0.39575195,0.8632202,0.18499756
1605203370686,797,-0.77856445,0.75042725,0.14056396
1605203370688,798,-0.54467773,0.7731323,0.23406982
1605203370689,799,-0.592041,0.6832886,0.25457764
1605203370689,800,-0.548584,0.9755249,-0.062072754
1605203370689,801,-0.78881836,0.71502686,0.18719482
1605203370692,802,-0.46606445,0.6598511,0.32489014
1605203370693,803,-0.4819336,0.7572632,-0.031066895
1605203370693,804,-0.77856445,0.75042725,0.14056396
1605203370693,805,-0.5678711,0.7748413,-0.014709473
1605203370694,806,-0.6123047,0.6991577,0.17425537
1605203370694,807,-0.592041,0.6832886,0.25457764
1605203370695,808,-0.6425781,0.71868896,0.06829834
1605203370696,809,-0.45996094,0.7523804,0.25115967
1605203370696,810,-0.46606445,0.6598511,0.32489014
1605203370696,811,-0.78881836,0.71502686,0.18719482
1605203370698,812,-0.77856445,0.75042725,0.14056396
1605203370698,813,-0.86376953,0.7711792,0.2868042
1605203370698,814,-0.6123047,0.6991577,0.17425537
1605203370699,815,-0.592041,0.6832886,0.25457764
1605203370700,816,-0.45996094,0.7523804,0.25115967
1605203370701,817,-0.46606445,0.6598511,0.32489014
1605203370702,818,-0.86376953,0.7711792,0.2868042
1605203370703,819,-0.6123047,0.6991577,0.17425537
1605203370704,820,-0.59814453,0.6984253,0.26849365
1605203370704,821,-0.45996094,0.7523804,0.25115967
1605203370705,822,-0.59814453,0.6984253,0.26849365
1605203370706,823,-0.86376953,0.7711792,0.2868042
1605203370707,824,-0.6496582,0.6207886,0.2321167
1605203370707,825,-0.6496582,0.6207886,0.2321167
1605203370708,826,-0.59814453,0.6984253,0.26849365
1605203370709,827,-0.53393555,0.80755615,0.22991943
1605203370709,828,-0.53393555,0.80755615,0.22991943
1605203370710,829,-0.67871094,0.82489014,0.2062378
1605203370710,830,-0.6496582,0.6207886,0.2321167
1605203370711,831,-0.67871094,0.82489014,0.2062378
1605203370711,832,-0.53393555,0.80755615,0.22991943
1605203370711,833,-0.47729492,0.8163452,0.26385498
1605203370713,834,-0.23510742,0.6095581,0.2506714
1605203370714,835,-0.47729492,0.8163452,0.26385498
1605203370714,836,-0.67871094,0.82489014,0.2062378
1605203370715,837,-0.5205078,0.9335327,0.27435303
1605203370715,838,-0.23510742,0.6095581,0.2506714
1605203370715,839,-0.47729492,0.8163452,0.26385498
1605203370717,840,-0.5205078,0.9335327,0.27435303
1605203370717,841,-0.45532227,0.77630615,0.31170654
1605203370717,842,-0.23510742,0.6095581,0.2506714
1605203370718,843,-0.45532227,0.77630615,0.31170654
1605203370719,844,-0.87890625,0.8258667,0.16815186
1605203370719,845,-0.5205078,0.9335327,0.27435303
1605203370719,846,-0.87890625,0.8258667,0.16815186
1605203370720,847,-0.5390625,0.7055054,0.038024902
1605203370720,848,-0.45532227,0.77630615,0.31170654
1605203370722,849,-0.6948242,0.8307495,-0.062072754
1605203370722,850,-0.5390625,0.7055054,0.038024902
1605203370723,851,-0.87890625,0.8258667,0.16815186
1605203370724,852,-0.6948242,0.8307495,-0.062072754
1605203370724,853,-0.49316406,0.74676514,-0.08380127
1605203370724,854,-0.5390625,0.7055054,0.038024902
1605203370726,855,-0.49316406,0.74676514,-0.08380127
1605203370726,856,-0.5786133,0.8707886,-0.05987549
1605203370726,857,-0.6948242,0.8307495,-0.062072754
1605203370727,858,-0.6123047,0.7728882,-0.0015258789
1605203370727,859,-0.5786133,0.8707886,-0.05987549
1605203370728,860,-0.49316406,0.74676514,-0.08380127
1605203370729,861,-0.5786133,0.8707886,-0.05987549
1605203370729,862,-0.6123047,0.7728882,-0.0015258789
1605203370730,863,-0.6123047,0.7728882,-0.0015258789
1605203373206,864,-0.7402344,0.7872925,-0.15557861
1605203373207,865,-0.7402344,0.7872925,-0.15557861
1605203373208,866,-0.7402344,0.7872925,-0.15557861
1605203373211,867,-0.65649414,0.6703491,-0.14801025
1605203373211,868,-0.65649414,0.6703491,-0.14801025
1605203373211,869,-0.6777344,0.5812378,-0.032043457
1605203373211,870,-0.6777344,0.5812378,-0.032043457
1605203373212,871,-0.65649414,0.6703491,-0.14801025
1605203373214,872,-0.6777344,0.5812378,-0.032043457
1605203373214,873,-0.79125977,0.75701904,0.13861084
1605203373218,874,-0.7180176,0.6901245,6.713867E-4
1605203373218,875,-0.79125977,0.75701904,0.13861084
1605203373219,876,-0.79125977,0.75701904,0.13861084
1605203373220,877,-0.7180176,0.6901245,6.713867E-4
1605203373221,878,-0.7180176,0.6901245,6.713867E-4
1605203373221,879,-0.80126953,0.6256714,0.011413574
1605203373222,880,-0.6296387,0.6312866,-0.018371582
1605203373222,881,-0.80126953,0.6256714,0.011413574
1605203373231,882,-0.80126953,0.6256714,0.011413574
1605203373232,883,-0.92871094,0.5853882,0.0079956055
1605203373233,884,-0.6296387,0.6312866,-0.018371582
1605203373239,885,-0.6296387,0.6312866,-0.018371582
1605203373240,886,-0.92871094,0.5853882,0.0079956055
1605203373240,887,-0.83203125,0.70306396,-0.03692627
1605203373240,888,-0.92871094,0.5853882,0.0079956055
1605203373241,889,-0.83203125,0.70306396,-0.03692627
1605203373241,890,-0.6945801,0.60614014,-0.026672363
1605203373242,891,-0.7434082,0.70233154,-0.015197754
1605203373242,892,-0.83203125,0.70306396,-0.03692627
1605203373243,893,-0.6945801,0.60614014,-0.026672363
1605203373244,894,-0.6945801,0.60614014,-0.026672363
1605203373244,895,-0.9436035,0.53948975,-0.039855957
1605203373245,896,-0.7434082,0.70233154,-0.015197754
1605203373245,897,-0.7434082,0.70233154,-0.015197754
1605203373247,898,-0.6706543,0.6637573,-0.023010254
1605203373247,899,-0.9436035,0.53948975,-0.039855957
1605203373247,900,-0.9436035,0.53948975,-0.039855957
1605203373247,901,-0.5698242,0.6757202,0.017028809
1605203373248,902,-0.6706543,0.6637573,-0.023010254
1605203373249,903,-0.6706543,0.6637573,-0.023010254
1605203373249,904,-0.5698242,0.6757202,0.017028809
1605203373250,905,-0.5698242,0.6757202,0.017028809
1605203373250,906,-0.7282715,0.682312,-0.0032348633
1605203373251,907,-0.7282715,0.682312,-0.0032348633
1605203373251,908,-0.8967285,0.66693115,0.024597168
1605203373252,909,-0.7282715,0.682312,-0.0032348633
1605203373252,910,-0.6335449,0.74212646,0.06854248
1605203373253,911,-0.8967285,0.66693115,0.024597168
1605203373253,912,-0.61376953,0.72454834,-0.047912598
1605203373253,913,-0.8967285,0.66693115,0.024597168
1605203373255,914,-0.6335449,0.74212646,0.06854248
1605203373260,915,-0.6335449,0.74212646,0.06854248
1605203373260,916,-0.83081055,0.75946045,-0.015197754
1605203373260,917,-0.61376953,0.72454834,-0.047912598
1605203373260,918,-0.64038086,0.78582764,-0.046203613
1605203373262,919,-0.61376953,0.72454834,-0.047912598
1605203373263,920,-0.83081055,0.75946045,-0.015197754
1605203373263,921,-0.7055664,0.6671753,-0.00592041
1605203373263,922,-0.64038086,0.78582764,-0.046203613
1605203373263,923,-0.83081055,0.75946045,-0.015197754
1605203373263,924,-0.68310547,0.74823,-0.15020752
1605203373264,925,-0.7055664,0.6671753,-0.00592041
1605203373264,926,-0.64038086,0.78582764,-0.046203613
1605203373265,927,-0.6201172,0.6535034,-0.21954346
1605203373265,928,-0.7055664,0.6671753,-0.00592041
1605203373266,929,-0.76123047,0.682312,-0.02911377
1605203373266,930,-0.68310547,0.74823,-0.15020752
1605203373266,931,-0.68310547,0.74823,-0.15020752
1605203373266,932,-0.7805176,0.8822632,-0.0635376
1605203373267,933,-0.6201172,0.6535034,-0.21954346
1605203373268,934,-0.7421875,0.73187256,-0.07501221
1605203373268,935,-0.6201172,0.6535034,-0.21954346
1605203373269,936,-0.76123047,0.682312,-0.02911377
1605203373269,937,-0.6660156,0.55877686,-0.042785645
1605203373269,938,-0.76123047,0.682312,-0.02911377
1605203373270,939,-0.7805176,0.8822632,-0.0635376
1605203373271,940,-0.7805176,0.8822632,-0.0635376
1605203373271,941,-0.763916,0.4845581,-0.04156494
1605203373271,942,-0.7421875,0.73187256,-0.07501221
1605203373271,943,-0.7421875,0.73187256,-0.07501221
1605203373271,944,-0.72558594,0.5687866,-0.010559082
1605203373272,945,-0.6660156,0.55877686,-0.042785645
1605203373272,946,-0.6660156,0.55877686,-0.042785645
1605203373272,947,-0.88549805,0.5463257,-0.10821533
1605203373273,948,-0.763916,0.4845581,-0.04156494
1605203373274,949,-0.8588867,0.60198975,-0.097961426
1605203373274,950,-0.72558594,0.5687866,-0.010559082
1605203373275,951,-0.88549805,0.5463257,-0.10821533
1605203373275,952,-0.763916,0.4845581,-0.04156494
1605203373275,953,-0.73828125,0.66815186,-0.06695557
1605203373276,954,-0.8588867,0.60198975,-0.097961426
1605203373276,955,-0.72558594,0.5687866,-0.010559082
1605203373277,956,-0.73828125,0.66815186,-0.06695557
1605203373277,957,-0.88549805,0.5463257,-0.10821533
1605203373279,958,-0.8588867,0.60198975,-0.097961426
1605203373280,959,-0.73828125,0.66815186,-0.06695557
1605203375994,960,-0.7248535,0.6835327,-0.094055176
1605203375994,961,-0.7248535,0.6835327,-0.094055176
1605203375995,962,-0.7248535,0.6835327,-0.094055176
1605203375995,963,-0.7092285,0.6166382,-0.10211182
1605203375996,964,-0.7092285,0.6166382,-0.10211182
1605203375997,965,-0.87231445,0.6251831,-0.058898926
1605203375998,966,-0.87231445,0.6251831,-0.058898926
1605203375999,967,-0.66064453,0.56121826,-0.097229004
1605203376000,968,-0.66064453,0.56121826,-0.097229004
1605203376001,969,-0.8984375,0.71990967,-0.16461182
1605203376002,970,-0.7092285,0.6166382,-0.10211182
1605203376003,971,-0.8984375,0.71990967,-0.16461182
1605203376003,972,-0.6845703,0.61883545,-0.18267822
1605203376004,973,-0.87231445,0.6251831,-0.058898926
1605203376005,974,-0.6845703,0.61883545,-0.18267822
1605203376005,975,-0.7626953,0.81829834,-0.20098877
1605203376005,976,-0.66064453,0.56121826,-0.097229004
1605203376007,977,-0.7626953,0.81829834,-0.20098877
1605203376010,978,-0.595459,0.7472534,-0.19024658
1605203376010,979,-0.8984375,0.71990967,-0.16461182
1605203376010,980,-0.71972656,0.6769409,-0.2654419
1605203376010,981,-0.595459,0.7472534,-0.19024658
1605203376011,982,-0.6845703,0.61883545,-0.18267822
1605203376011,983,-0.75561523,0.72772217,-0.32208252
1605203376011,984,-0.7626953,0.81829834,-0.20098877
1605203376011,985,-0.71972656,0.6769409,-0.2654419
1605203376011,986,-0.595459,0.7472534,-0.19024658
1605203376012,987,-0.75561523,0.72772217,-0.32208252
1605203376013,988,-0.71972656,0.6769409,-0.2654419
1605203376014,989,-0.75561523,0.72772217,-0.32208252
1605203376015,990,-0.7783203,0.5932007,-0.24517822
1605203376015,991,-0.7783203,0.5932007,-0.24517822
1605203376015,992,-0.7783203,0.5932007,-0.24517822
1605203376017,993,-0.74487305,0.71502686,-0.2420044
1605203376017,994,-0.74487305,0.71502686,-0.2420044
1605203376018,995,-0.74487305,0.71502686,-0.2420044
1605203376019,996,-0.7390137,0.59832764,-0.26934814
1605203376019,997,-0.7390137,0.59832764,-0.26934814
1605203376020,998,-0.7390137,0.59832764,-0.26934814
1605203376020,999,-0.67578125,0.50946045,-0.1885376
1605203376020,1000,-0.67578125,0.50946045,-0.1885376
1605203376021,1001,-0.67578125,0.50946045,-0.1885376
1605203376022,1002,-0.7438965,0.43597412,-0.20758057
1605203376022,1003,-0.7438965,0.43597412,-0.20758057
1605203376023,1004,-0.9526367,0.5844116,-0.22393799
1605203376024,1005,-0.9526367,0.5844116,-0.22393799
1605203376026,1006,-0.83032227,0.5536499,-0.15118408
1605203376027,1007,-0.7438965,0.43597412,-0.20758057
1605203376029,1008,-0.77685547,0.52630615,-0.13043213
1605203376031,1009,-0.9526367,0.5844116,-0.22393799
1605203376032,1010,-0.8190918,0.5216675,-0.10064697
1605203376036,1011,-0.83032227,0.5536499,-0.15118408
1605203376040,1012,-0.9914551,0.5751343,-0.09820557
1605203376044,1013,-0.77685547,0.52630615,-0.13043213
1605203376047,1014,-0.7504883,0.5265503,-0.057678223
1605203376050,1015,-0.8190918,0.5216675,-0.10064697
1605203376053,1016,-0.6882324,0.668396,-0.046936035
1605203376055,1017,-0.9914551,0.5751343,-0.09820557
1605203376056,1018,-0.9301758,0.64105225,-0.11846924
1605203376058,1019,-0.7504883,0.5265503,-0.057678223
1605203376061,1020,-0.8178711,0.54364014,-0.06744385
1605203376063,1021,-0.6882324,0.668396,-0.046936035
1605203376064,1022,-0.77905273,0.5739136,-0.08306885
1605203376066,1023,-0.9301758,0.64105225,-0.11846924
1605203376069,1024,-0.7807617,0.6967163,-0.22247314
1605203376071,1025,-0.8178711,0.54364014,-0.06744385
1605203376075,1026,-0.72802734,0.7262573,-0.21490479
1605203376078,1027,-0.77905273,0.5739136,-0.08306885
1605203376081,1028,-0.62646484,0.73236084,-0.21417236
1605203376085,1029,-0.7807617,0.6967163,-0.22247314
1605203376088,1030,-0.6135254,0.84539795,-0.1375122
1605203376090,1031,-0.72802734,0.7262573,-0.21490479
1605203376091,1032,-0.7546387,0.65740967,-0.24273682
1605203376093,1033,-0.62646484,0.73236084,-0.21417236
1605203376095,1034,-0.80078125,0.6342163,-0.31280518
1605203376096,1035,-0.6135254,0.84539795,-0.1375122
1605203376097,1036,-0.67041016,0.53900146,-0.25299072
1605203376099,1037,-0.7546387,0.65740967,-0.24273682
1605203376100,1038,-0.80078125,0.6342163,-0.31280518
1605203376101,1039,-0.83032227,0.5536499,-0.15118408
1605203376102,1040,-0.67041016,0.53900146,-0.25299072
1605203376104,1041,-0.77685547,0.52630615,-0.13043213
1605203376106,1042,-0.8190918,0.5216675,-0.10064697
1605203376107,1043,-0.9914551,0.5751343,-0.09820557
1605203376108,1044,-0.7504883,0.5265503,-0.057678223
1605203376109,1045,-0.6882324,0.668396,-0.046936035
1605203376110,1046,-0.9301758,0.64105225,-0.11846924
1605203376112,1047,-0.8178711,0.54364014,-0.06744385
1605203376113,1048,-0.77905273,0.5739136,-0.08306885
1605203376114,1049,-0.7807617,0.6967163,-0.22247314
1605203376116,1050,-0.72802734,0.7262573,-0.21490479
1605203376117,1051,-0.62646484,0.73236084,-0.21417236
1605203376118,1052,-0.6135254,0.84539795,-0.1375122
1605203376119,1053,-0.7546387,0.65740967,-0.24273682
1605203376120,1054,-0.80078125,0.6342163,-0.31280518
1605203376121,1055,-0.67041016,0.53900146,-0.25299072
1605203378377,1056,-0.69506836,0.72821045,-0.078186035
1605203378378,1057,-0.69506836,0.72821045,-0.078186035
1605203378378,1058,-0.69506836,0.72821045,-0.078186035
1605203378378,1059,-0.61621094,0.7741089,0.034851074
1605203378379,1060,-0.61621094,0.7741089,0.034851074
1605203378380,1061,-0.61621094,0.7741089,0.034851074
1605203378381,1062,-0.5505371,0.809021,0.002380371
1605203378381,1063,-0.5505371,0.809021,0.002380371
1605203378381,1064,-0.5505371,0.809021,0.002380371
1605203378382,1065,-0.64208984,0.85565186,0.073913574
1605203378384,1066,-0.64208984,0.85565186,0.073913574
1605203378384,1067,-0.7216797,0.7670288,0.0446167
1605203378385,1068,-0.64208984,0.85565186,0.073913574
1605203378385,1069,-0.7216797,0.7670288,0.0446167
1605203378387,1070,-0.7216797,0.7670288,0.0446167
1605203378388,1071,-0.68652344,0.8131714,-0.010803223
1605203378389,1072,-0.66381836,0.9142456,0.010925293
1605203378390,1073,-0.68652344,0.8131714,-0.010803223
1605203378391,1074,-0.68652344,0.8131714,-0.010803223
1605203378391,1075,-0.39770508,0.83148193,0.17718506
1605203378392,1076,-0.66381836,0.9142456,0.010925293
1605203378393,1077,-0.66381836,0.9142456,0.010925293
1605203378393,1078,-0.6315918,0.8641968,0.18231201
1605203378393,1079,-0.39770508,0.83148193,0.17718506
1605203378394,1080,-0.6315918,0.8641968,0.18231201
1605203378395,1081,-0.5229492,0.7770386,0.18060303
1605203378396,1082,-0.5229492,0.7770386,0.18060303
1605203378397,1083,-0.69433594,1.0497437,0.12005615
1605203378398,1084,-0.69433594,1.0497437,0.12005615
1605203378399,1085,-0.39770508,0.83148193,0.17718506
1605203378399,1086,-0.5673828,0.8295288,0.14154053
1605203378401,1087,-0.5673828,0.8295288,0.14154053
1605203378401,1088,-0.6315918,0.8641968,0.18231201
1605203378406,1089,-0.7155762,0.80267334,0.015319824
1605203378407,1090,-0.7155762,0.80267334,0.015319824
1605203378407,1091,-0.5229492,0.7770386,0.18060303
1605203378407,1092,-0.642334,0.52093506,0.015075684
1605203378407,1093,-0.642334,0.52093506,0.015075684
1605203378407,1094,-0.69433594,1.0497437,0.12005615
1605203378408,1095,-0.6699219,0.5001831,0.0014038086
1605203378408,1096,-0.5673828,0.8295288,0.14154053
1605203378408,1097,-0.7246094,0.48846436,0.09051514
1605203378408,1098,-0.7155762,0.80267334,0.015319824
1605203378408,1099,-0.8598633,0.43328857,0.13397217
1605203378409,1100,-0.642334,0.52093506,0.015075684
1605203378409,1101,-0.9477539,0.6168823,0.14593506
1605203378410,1102,-0.6699219,0.5001831,0.0014038086
1605203378411,1103,-0.84521484,0.5126343,0.09564209
1605203378412,1104,-0.6699219,0.5001831,0.0014038086
1605203378412,1105,-0.7246094,0.48846436,0.09051514
1605203378414,1106,-0.8276367,0.55755615,0.062194824
1605203378415,1107,-0.7246094,0.48846436,0.09051514
1605203378415,1108,-0.8598633,0.43328857,0.13397217
1605203378415,1109,-0.9152832,0.62054443,0.13446045
1605203378415,1110,-0.8598633,0.43328857,0.13397217
1605203378416,1111,-0.9477539,0.6168823,0.14593506
1605203378417,1112,-0.8664551,0.6161499,0.22161865
1605203378417,1113,-0.9477539,0.6168823,0.14593506
1605203378418,1114,-0.84521484,0.5126343,0.09564209
1605203378418,1115,-0.8857422,0.5934448,0.21014404
1605203378418,1116,-0.84521484,0.5126343,0.09564209
1605203378420,1117,-0.8276367,0.55755615,0.062194824
1605203378421,1118,-0.8984375,0.59661865,0.14471436
1605203378421,1119,-0.8276367,0.55755615,0.062194824
1605203378421,1120,-0.9152832,0.62054443,0.13446045
1605203378422,1121,-0.6748047,0.51068115,0.16131592
1605203378422,1122,-0.9152832,0.62054443,0.13446045
1605203378423,1123,-0.8664551,0.6161499,0.22161865
1605203378423,1124,-0.8664551,0.6161499,0.22161865
1605203378424,1125,-0.71606445,0.6461792,0.25457764
1605203378424,1126,-0.8857422,0.5934448,0.21014404
1605203378425,1127,-0.8857422,0.5934448,0.21014404
1605203378425,1128,-0.7050781,0.72088623,0.13201904
1605203378426,1129,-0.8984375,0.59661865,0.14471436
1605203378426,1130,-0.8984375,0.59661865,0.14471436
1605203378427,1131,-0.6345215,0.74993896,0.10394287
1605203378427,1132,-0.6748047,0.51068115,0.16131592
1605203378427,1133,-0.6748047,0.51068115,0.16131592
1605203378428,1134,-0.62158203,0.7814331,0.14642334
1605203378429,1135,-0.71606445,0.6461792,0.25457764
1605203378429,1136,-0.71606445,0.6461792,0.25457764
1605203378429,1137,-0.72924805,0.75653076,0.17254639
1605203378430,1138,-0.7050781,0.72088623,0.13201904
1605203378430,1139,-0.7050781,0.72088623,0.13201904
1605203378431,1140,-0.7597656,0.49456787,-0.113586426
1605203378432,1141,-0.6345215,0.74993896,0.10394287
1605203378432,1142,-0.6472168,0.5375366,-0.12164307
1605203378433,1143,-0.6345215,0.74993896,0.10394287
1605203378434,1144,-0.62158203,0.7814331,0.14642334
1605203378434,1145,-0.62158203,0.7814331,0.14642334
1605203378434,1146,-0.72924805,0.75653076,0.17254639
1605203378436,1147,-0.72924805,0.75653076,0.17254639
1605203378437,1148,-0.7597656,0.49456787,-0.113586426
1605203378437,1149,-0.7597656,0.49456787,-0.113586426
1605203378438,1150,-0.6472168,0.5375366,-0.12164307
1605203378438,1151,-0.6472168,0.5375366,-0.12164307
1605203380963,1152,-1.0205078,0.83148193,-0.13800049
1605203380966,1153,-1.0205078,0.83148193,-0.13800049
1605203380970,1154,-0.6791992,0.46502686,-0.12677002
1605203380974,1155,-0.6791992,0.46502686,-0.12677002
1605203380977,1156,-0.7763672,0.62323,-0.15753174
1605203380980,1157,-0.7763672,0.62323,-0.15753174
1605203380984,1158,-0.7758789,0.6972046,-0.17315674
1605203380988,1159,-0.7758789,0.6972046,-0.17315674
1605203380991,1160,-0.82177734,0.8270874,-0.07183838
1605203380994,1161,-0.82177734,0.8270874,-0.07183838
1605203380995,1162,-0.7236328,0.48968506,-0.15802002
1605203380998,1163,-0.7236328,0.48968506,-0.15802002
1605203381001,1164,-0.953125,0.5216675,-0.222229
1605203381004,1165,-0.953125,0.5216675,-0.222229
1605203381008,1166,-0.9824219,0.5128784,-0.23614502
1605203381012,1167,-0.9824219,0.5128784,-0.23614502
1605203381016,1168,-0.7944336,0.30584717,-0.19903564
1605203381019,1169,-0.7944336,0.30584717,-0.19903564
1605203381022,1170,-0.9929199,0.40203857,-0.081604004
1605203381025,1171,-0.9929199,0.40203857,-0.081604004
1605203381029,1172,-0.9206543,0.33636475,-0.016418457
1605203381033,1173,-0.9206543,0.33636475,-0.016418457
1605203381037,1174,-0.8195801,0.6832886,-0.065979004
1605203381040,1175,-0.8195801,0.6832886,-0.065979004
1605203381044,1176,-0.7133789,0.6786499,-0.109680176
1605203381047,1177,-0.7133789,0.6786499,-0.109680176
1605203381051,1178,-0.80371094,0.7723999,-0.17071533
1605203381052,1179,-0.80371094,0.7723999,-0.17071533
1605203381053,1180,-0.7043457,0.6154175,-0.121154785
1605203381054,1181,-0.7043457,0.6154175,-0.121154785
1605203381055,1182,-0.6645508,0.4550171,-0.062561035
1605203381056,1183,-0.6645508,0.4550171,-0.062561035
1605203381056,1184,-1.0205078,0.83148193,-0.13800049
1605203381056,1185,-0.6791992,0.46502686,-0.12677002
1605203381057,1186,-0.87890625,0.7387085,-0.33673096
1605203381058,1187,-0.7763672,0.62323,-0.15753174
1605203381059,1188,-0.68530273,0.8534546,-0.28619385
1605203381061,1189,-0.7758789,0.6972046,-0.17315674
1605203381061,1190,-0.51708984,0.82733154,-0.25689697
1605203381062,1191,-0.87890625,0.7387085,-0.33673096
1605203381063,1192,-0.5205078,0.6432495,-0.11529541
1605203381064,1193,-0.82177734,0.8270874,-0.07183838
1605203381065,1194,-0.68530273,0.8534546,-0.28619385
1605203381066,1195,-0.7236328,0.48968506,-0.15802002
1605203381067,1196,-0.80444336,0.7626343,-0.24468994
1605203381068,1197,-0.51708984,0.82733154,-0.25689697
1605203381069,1198,-0.4440918,0.65960693,-0.29644775
1605203381070,1199,-0.7519531,0.88812256,-0.19366455
1605203381071,1200,-0.5205078,0.6432495,-0.11529541
1605203381071,1201,-0.56689453,0.54119873,-0.14068604
1605203381073,1202,-0.80444336,0.7626343,-0.24468994
1605203381073,1203,-0.6687012,0.7111206,-0.06500244
1605203381073,1204,-0.953125,0.5216675,-0.222229
1605203381075,1205,-0.4440918,0.65960693,-0.29644775
1605203381075,1206,-0.75756836,0.77996826,0.062683105
1605203381076,1207,-0.9824219,0.5128784,-0.23614502
1605203381077,1208,-0.7519531,0.88812256,-0.19366455
1605203381077,1209,-0.689209,0.76605225,0.035827637
1605203381078,1210,-0.7944336,0.30584717,-0.19903564
1605203381079,1211,-0.56689453,0.54119873,-0.14068604
1605203381079,1212,-0.5270996,0.72576904,-0.04937744
1605203381080,1213,-0.6687012,0.7111206,-0.06500244
1605203381081,1214,-0.5217285,0.8390503,-0.04815674
1605203381082,1215,-0.9929199,0.40203857,-0.081604004
1605203381082,1216,-0.75756836,0.77996826,0.062683105
1605203381083,1217,-0.9206543,0.33636475,-0.016418457
1605203381084,1218,-0.689209,0.76605225,0.035827637
1605203381084,1219,-0.63720703,0.9142456,-0.053771973
1605203381085,1220,-0.8195801,0.6832886,-0.065979004
1605203381086,1221,-0.5270996,0.72576904,-0.04937744
1605203381086,1222,-0.53393555,0.7333374,-0.0010375977
1605203381087,1223,-0.7133789,0.6786499,-0.109680176
1605203381088,1224,-0.5217285,0.8390503,-0.04815674
1605203381088,1225,-0.529541,0.8656616,-0.014709473
1605203381088,1226,-0.80371094,0.7723999,-0.17071533
1605203381089,1227,-0.63720703,0.9142456,-0.053771973
1605203381090,1228,-0.7043457,0.6154175,-0.121154785
1605203381091,1229,-0.53393555,0.7333374,-0.0010375977
1605203381091,1230,-0.6645508,0.4550171,-0.062561035
1605203381092,1231,-0.87890625,0.7387085,-0.33673096
1605203381092,1232,-0.529541,0.8656616,-0.014709473
1605203381093,1233,-0.68530273,0.8534546,-0.28619385
1605203381094,1234,-0.51708984,0.82733154,-0.25689697
1605203381095,1235,-0.5205078,0.6432495,-0.11529541
1605203381096,1236,-0.80444336,0.7626343,-0.24468994
1605203381097,1237,-0.4440918,0.65960693,-0.29644775
1605203381097,1238,-0.7519531,0.88812256,-0.19366455
1605203381098,1239,-0.56689453,0.54119873,-0.14068604
1605203381099,1240,-0.6687012,0.7111206,-0.06500244
1605203381100,1241,-0.75756836,0.77996826,0.062683105
1605203381101,1242,-0.689209,0.76605225,0.035827637
1605203381102,1243,-0.5270996,0.72576904,-0.04937744
1605203381103,1244,-0.5217285,0.8390503,-0.04815674
1605203381104,1245,-0.63720703,0.9142456,-0.053771973
1605203381105,1246,-0.53393555,0.7333374,-0.0010375977
1605203381106,1247,-0.529541,0.8656616,-0.014709473
1605203383542,1248,-0.46533203,0.87542725,-0.06793213
1605203383543,1249,-0.46533203,0.87542725,-0.06793213
1605203383545,1250,-0.43408203,0.8361206,-0.019348145
1605203383545,1251,-0.46533203,0.87542725,-0.06793213
1605203383546,1252,-0.43408203,0.8361206,-0.019348145
1605203383547,1253,-0.60009766,0.8895874,-0.05621338
1605203383548,1254,-0.43408203,0.8361206,-0.019348145
1605203383548,1255,-0.60009766,0.8895874,-0.05621338
1605203383549,1256,-0.4194336,0.8776245,-0.03302002
1605203383549,1257,-0.60009766,0.8895874,-0.05621338
1605203383549,1258,-0.4194336,0.8776245,-0.03302002
1605203383550,1259,-0.4194336,0.8776245,-0.03302002
1605203383554,1260,-0.3930664,0.88934326,-0.044006348
1605203383554,1261,-0.3930664,0.88934326,-0.044006348
1605203383554,1262,-0.3930664,0.88934326,-0.044006348
1605203383555,1263,-0.3701172,0.91278076,-0.038391113
1605203383556,1264,-0.3701172,0.91278076,-0.038391113
1605203383556,1265,-0.3701172,0.91278076,-0.038391113
1605203383557,1266,-0.30200195,0.8890991,-0.013000488
1605203383557,1267,-0.30200195,0.8890991,-0.013000488
1605203383557,1268,-0.30200195,0.8890991,-0.013000488
1605203383558,1269,-0.39648438,0.90618896,-0.022521973
1605203383558,1270,-0.39648438,0.90618896,-0.022521973
1605203383561,1271,-0.39648438,0.90618896,-0.022521973
1605203383561,1272,-0.41723633,0.9406128,-0.026916504
1605203383561,1273,-0.41723633,0.9406128,-0.026916504
1605203383562,1274,-0.41723633,0.9406128,-0.026916504
1605203383562,1275,-0.30908203,0.8588257,0.053894043
1605203383562,1276,-0.30908203,0.8588257,0.053894043
1605203383562,1277,-0.30908203,0.8588257,0.053894043
1605203383563,1278,-0.35302734,0.9371948,0.074157715
1605203383563,1279,-0.35302734,0.9371948,0.074157715
1605203383563,1280,-0.35302734,0.9371948,0.074157715
1605203383563,1281,-0.3425293,0.86102295,0.16009521
1605203383565,1282,-0.3425293,0.86102295,0.16009521
1605203383565,1283,-0.3425293,0.86102295,0.16009521
1605203383567,1284,-0.5007324,0.8500366,0.28582764
1605203383567,1285,-0.5007324,0.8500366,0.28582764
1605203383567,1286,-0.5007324,0.8500366,0.28582764
1605203383568,1287,-0.80029297,0.8307495,0.17108154
1605203383568,1288,-0.80029297,0.8307495,0.17108154
1605203383571,1289,-0.76708984,0.53533936,0.17254639
1605203383573,1290,-0.80029297,0.8307495,0.17108154
1605203383574,1291,-0.76708984,0.53533936,0.17254639
1605203383574,1292,-0.7758789,0.6112671,0.18914795
1605203383574,1293,-0.76708984,0.53533936,0.17254639
1605203383574,1294,-0.7758789,0.6112671,0.18914795
1605203383575,1295,-0.7258301,0.58636475,0.17279053
1605203383575,1296,-0.7258301,0.58636475,0.17279053
1605203383576,1297,-0.7758789,0.6112671,0.18914795
1605203383577,1298,-0.77490234,0.5651245,0.16107178
1605203383578,1299,-0.77490234,0.5651245,0.16107178
1605203383578,1300,-0.7258301,0.58636475,0.17279053
1605203383579,1301,-0.9147949,0.5426636,0.16522217
1605203383579,1302,-0.9147949,0.5426636,0.16522217
1605203383581,1303,-0.77490234,0.5651245,0.16107178
1605203383581,1304,-0.88012695,0.42279053,0.2333374
1605203383582,1305,-0.88012695,0.42279053,0.2333374
1605203383582,1306,-0.9147949,0.5426636,0.16522217
1605203383583,1307,-0.88012695,0.42279053,0.2333374
1605203383583,1308,-0.6657715,0.75653076,0.1630249
1605203383583,1309,-0.6657715,0.75653076,0.1630249
1605203383585,1310,-0.40698242,1.0787964,0.08709717
1605203383586,1311,-0.6657715,0.75653076,0.1630249
1605203383586,1312,-0.40698242,1.0787964,0.08709717
1605203383586,1313,-0.45581055,0.8187866,-0.03253174
1605203383588,1314,-0.45581055,0.8187866,-0.03253174
1605203383588,1315,-0.5991211,0.9020386,-0.058654785
1605203383588,1316,-0.40698242,1.0787964,0.08709717
1605203383590,1317,-0.71533203,0.8600464,0.07977295
1605203383590,1318,-0.5991211,0.9020386,-0.058654785
1605203383590,1319,-0.45581055,0.8187866,-0.03253174
1605203383591,1320,-0.5239258,0.77215576,0.17645264
1605203383591,1321,-0.71533203,0.8600464,0.07977295
1605203383592,1322,-0.5991211,0.9020386,-0.058654785
1605203383594,1323,-0.6074219,0.7081909,0.061462402
1605203383594,1324,-0.71533203,0.8600464,0.07977295
1605203383594,1325,-0.5239258,0.77215576,0.17645264
1605203383594,1326,-0.5239258,0.77215576,0.17645264
1605203383595,1327,-0.6074219,0.7081909,0.061462402
1605203383595,1328,-0.7492676,0.72991943,0.003112793
1605203383597,1329,-0.6074219,0.7081909,0.061462402
1605203383597,1330,-0.7492676,0.72991943,0.003112793
1605203383598,1331,-0.7570801,0.70355225,-0.07232666
1605203383599,1332,-0.7492676,0.72991943,0.003112793
1605203383600,1333,-0.7570801,0.70355225,-0.07232666
1605203383600,1334,-0.7236328,0.6168823,-0.057922363
1605203383605,1335,-0.7570801,0.70355225,-0.07232666
1605203383606,1336,-0.7236328,0.6168823,-0.057922363
1605203383606,1337,-0.6899414,0.7025757,-0.1038208
1605203383606,1338,-0.6899414,0.7025757,-0.1038208
1605203383606,1339,-0.7236328,0.6168823,-0.057922363
1605203383607,1340,-0.70043945,0.697937,-0.28302002
1605203383607,1341,-0.70043945,0.697937,-0.28302002
1605203383619,1342,-0.6899414,0.7025757,-0.1038208
1605203383620,1343,-0.70043945,0.697937,-0.28302002
1605203386130,1344,-0.6838379,0.5602417,-0.24615479
1605203386133,1345,-0.6838379,0.5602417,-0.24615479
1605203386137,1346,-0.81103516,0.50115967,-0.11993408
1605203386142,1347,-0.81103516,0.50115967,-0.11993408
1605203386143,1348,-0.6838379,0.5602417,-0.24615479
1605203386143,1349,-0.7890625,0.6071167,-0.06036377
1605203386144,1350,-0.81103516,0.50115967,-0.11993408
1605203386147,1351,-0.7890625,0.6071167,-0.06036377
1605203386150,1352,-0.7470703,0.7914429,-0.58477783
1605203386154,1353,-0.7470703,0.7914429,-0.58477783
1605203386156,1354,-0.6291504,0.5775757,-0.27056885
1605203386161,1355,-0.6291504,0.5775757,-0.27056885
1605203386162,1356,-0.7890625,0.6071167,-0.06036377
1605203386162,1357,-0.97265625,0.54608154,-0.20391846
1605203386164,1358,-0.97265625,0.54608154,-0.20391846
1605203386166,1359,-0.6386719,0.78826904,-0.23516846
1605203386170,1360,-0.6386719,0.78826904,-0.23516846
1605203386174,1361,-0.7570801,0.44158936,-0.2876587
1605203386177,1362,-0.7570801,0.44158936,-0.2876587
1605203386181,1363,-0.86083984,0.5446167,-0.2883911
1605203386184,1364,-0.86083984,0.5446167,-0.2883911
1605203386189,1365,-0.873291,0.526062,-0.13702393
1605203386189,1366,-0.7470703,0.7914429,-0.58477783
1605203386190,1367,-0.873291,0.526062,-0.13702393
1605203386192,1368,-0.9741211,0.5001831,-0.09039307
1605203386195,1369,-0.9741211,0.5001831,-0.09039307
1605203386197,1370,-0.90771484,0.5248413,-0.02154541
1605203386200,1371,-0.90771484,0.5248413,-0.02154541
1605203386202,1372,-0.60961914,0.61395264,0.046813965
1605203386205,1373,-0.60961914,0.61395264,0.046813965
1605203386208,1374,-0.6711426,0.7897339,0.015808105
1605203386209,1375,-0.6711426,0.7897339,0.015808105
1605203386210,1376,-0.67285156,0.86517334,0.018005371
1605203386212,1377,-0.6291504,0.5775757,-0.27056885
1605203386212,1378,-0.53125,0.8446655,-0.05718994
1605203386213,1379,-0.67285156,0.86517334,0.018005371
1605203386214,1380,-0.97265625,0.54608154,-0.20391846
1605203386215,1381,-0.53125,0.8446655,-0.05718994
1605203386216,1382,-0.6386719,0.78826904,-0.23516846
1605203386217,1383,-0.6113281,0.8969116,0.029968262
1605203386218,1384,-0.7570801,0.44158936,-0.2876587
1605203386219,1385,-0.49414062,0.78460693,-0.011779785
1605203386220,1386,-0.86083984,0.5446167,-0.2883911
1605203386220,1387,-0.6113281,0.8969116,0.029968262
1605203386221,1388,-0.873291,0.526062,-0.13702393
1605203386222,1389,-0.49414062,0.78460693,-0.011779785
1605203386223,1390,-0.9741211,0.5001831,-0.09039307
1605203386224,1391,-0.59643555,0.79315186,-0.043273926
1605203386224,1392,-0.90771484,0.5248413,-0.02154541
1605203386225,1393,-0.59643555,0.79315186,-0.043273926
1605203386225,1394,-0.61987305,0.71868896,-0.0029907227
1605203386226,1395,-0.61987305,0.71868896,-0.0029907227
1605203386228,1396,-0.66015625,0.57025146,-0.03375244
1605203386228,1397,-0.66015625,0.57025146,-0.03375244
1605203386228,1398,-0.60961914,0.61395264,0.046813965
1605203386230,1399,-0.86621094,0.670105,-0.16314697
1605203386230,1400,-0.86621094,0.670105,-0.16314697
1605203386231,1401,-0.78027344,0.7206421,0.004333496
1605203386232,1402,-0.6711426,0.7897339,0.015808105
1605203386233,1403,-0.78027344,0.7206421,0.004333496
1605203386234,1404,-0.71606445,0.5631714,-0.09869385
1605203386234,1405,-0.67285156,0.86517334,0.018005371
1605203386235,1406,-0.71606445,0.5631714,-0.09869385
1605203386235,1407,-0.91552734,0.69525146,-0.14678955
1605203386236,1408,-0.53125,0.8446655,-0.05718994
1605203386237,1409,-0.7751465,0.5075073,-0.12994385
1605203386237,1410,-0.91552734,0.69525146,-0.14678955
1605203386237,1411,-0.6113281,0.8969116,0.029968262
1605203386239,1412,-0.8227539,0.54974365,0.061950684
1605203386239,1413,-0.7751465,0.5075073,-0.12994385
1605203386239,1414,-0.49414062,0.78460693,-0.011779785
1605203386240,1415,-0.72094727,0.9249878,0.08465576
1605203386241,1416,-0.8227539,0.54974365,0.061950684
1605203386241,1417,-0.59643555,0.79315186,-0.043273926
1605203386242,1418,-0.4243164,0.60150146,0.11224365
1605203386243,1419,-0.72094727,0.9249878,0.08465576
1605203386243,1420,-0.61987305,0.71868896,-0.0029907227
1605203386243,1421,-0.7512207,0.86346436,0.0680542
1605203386245,1422,-0.4243164,0.60150146,0.11224365
1605203386245,1423,-0.66015625,0.57025146,-0.03375244
1605203386245,1424,-0.75,0.6937866,0.12298584
1605203386246,1425,-0.7512207,0.86346436,0.0680542
1605203386247,1426,-0.86621094,0.670105,-0.16314697
1605203386247,1427,-0.6113281,0.73895264,0.1251831
1605203386248,1428,-0.75,0.6937866,0.12298584
1605203386248,1429,-0.78027344,0.7206421,0.004333496
1605203386250,1430,-0.6113281,0.73895264,0.1251831
1605203386250,1431,-0.71606445,0.5631714,-0.09869385
1605203386251,1432,-0.91552734,0.69525146,-0.14678955
1605203386252,1433,-0.7751465,0.5075073,-0.12994385
1605203386253,1434,-0.8227539,0.54974365,0.061950684
1605203386254,1435,-0.72094727,0.9249878,0.08465576
1605203386255,1436,-0.4243164,0.60150146,0.11224365
1605203386256,1437,-0.7512207,0.86346436,0.0680542
1605203386257,1438,-0.75,0.6937866,0.12298584
1605203386258,1439,-0.6113281,0.73895264,0.1251831
1605203388709,1440,-0.72216797,0.7692261,0.097351074
1605203388710,1441,-0.72216797,0.7692261,0.097351074
1605203388710,1442,-0.5515137,0.7592163,0.07244873
1605203388710,1443,-0.5515137,0.7592163,0.07244873
1605203388711,1444,-0.51660156,0.6210327,0.45281982
1605203388712,1445,-0.83325195,0.6071167,0.41522217
1605203388713,1446,-0.8781738,0.7863159,0.2982788
1605203388714,1447,-0.51660156,0.6210327,0.45281982
1605203388715,1448,-0.6616211,0.7184448,0.23944092
1605203388716,1449,-0.72216797,0.7692261,0.097351074
1605203388716,1450,-0.83325195,0.6071167,0.41522217
1605203388718,1451,-0.5515137,0.7592163,0.07244873
1605203388718,1452,-0.52124023,0.59954834,0.29656982
1605203388718,1453,-0.8781738,0.7863159,0.2982788
1605203388719,1454,-0.7055664,0.67645264,0.27850342
1605203388719,1455,-0.6616211,0.7184448,0.23944092
1605203388720,1456,-0.7163086,0.63494873,0.1564331
1605203388720,1457,-0.52124023,0.59954834,0.29656982
1605203388721,1458,-0.6809082,0.65789795,0.08465576
1605203388722,1459,-0.7055664,0.67645264,0.27850342
1605203388723,1460,-0.70214844,0.72406006,0.047790527
1605203388723,1461,-0.7163086,0.63494873,0.1564331
1605203388723,1462,-0.6020508,0.83026123,0.17401123
1605203388724,1463,-0.6809082,0.65789795,0.08465576
1605203388725,1464,-0.38452148,0.7765503,0.22601318
1605203388725,1465,-0.70214844,0.72406006,0.047790527
1605203388727,1466,-0.5961914,0.8991089,0.13372803
1605203388728,1467,-0.6020508,0.83026123,0.17401123
1605203388729,1468,-0.43432617,0.8883667,0.1239624
1605203388730,1469,-0.38452148,0.7765503,0.22601318
1605203388732,1470,-0.51660156,0.6210327,0.45281982
1605203388732,1471,-0.5961914,0.8991089,0.13372803
1605203388732,1472,-0.83325195,0.6071167,0.41522217
1605203388732,1473,-0.3310547,0.85687256,0.09881592
1605203388734,1474,-0.8781738,0.7863159,0.2982788
1605203388735,1475,-0.42333984,0.9633179,0.0211792
1605203388735,1476,-0.6616211,0.7184448,0.23944092
1605203388735,1477,-0.43432617,0.8883667,0.1239624
1605203388737,1478,-0.52124023,0.59954834,0.29656982
1605203388737,1479,-0.46606445,1.0055542,0.053894043
1605203388738,1480,-0.3310547,0.85687256,0.09881592
1605203388739,1481,-0.42333984,0.9633179,0.0211792
1605203388739,1482,-0.7055664,0.67645264,0.27850342
1605203388740,1483,-0.60009766,0.70062256,0.1293335
1605203388740,1484,-0.5834961,0.71380615,-0.02154541
1605203388741,1485,-0.46606445,1.0055542,0.053894043
1605203388743,1486,-0.7163086,0.63494873,0.1564331
1605203388743,1487,-0.61206055,1.0001831,-0.039367676
1605203388743,1488,-0.60009766,0.70062256,0.1293335
1605203388743,1489,-0.6809082,0.65789795,0.08465576
1605203388743,1490,-0.4716797,0.7699585,-0.023986816
1605203388744,1491,-0.70214844,0.72406006,0.047790527
1605203388744,1492,-0.5834961,0.71380615,-0.02154541
1605203388745,1493,-0.60058594,0.7206421,0.07318115
1605203388745,1494,-0.6020508,0.83026123,0.17401123
1605203388745,1495,-0.6970215,0.7472534,0.085632324
1605203388746,1496,-0.61206055,1.0001831,-0.039367676
1605203388746,1497,-0.38452148,0.7765503,0.22601318
1605203388746,1498,-0.70288086,0.8290405,0.13250732
1605203388747,1499,-0.5961914,0.8991089,0.13372803
1605203388747,1500,-0.4716797,0.7699585,-0.023986816
1605203388747,1501,-0.6208496,0.7457886,0.2296753
1605203388748,1502,-0.60058594,0.7206421,0.07318115
1605203388748,1503,-0.43432617,0.8883667,0.1239624
1605203388748,1504,-0.61572266,0.6793823,0.015563965
1605203388749,1505,-0.3310547,0.85687256,0.09881592
1605203388750,1506,-0.6970215,0.7472534,0.085632324
1605203388750,1507,-0.7194824,0.83026123,-0.10845947
1605203388751,1508,-0.70288086,0.8290405,0.13250732
1605203388751,1509,-0.42333984,0.9633179,0.0211792
1605203388751,1510,-0.6633301,0.70062256,-0.07720947
1605203388752,1511,-0.6208496,0.7457886,0.2296753
1605203388752,1512,-0.5866699,0.69329834,0.014343262
1605203388753,1513,-0.61572266,0.6793823,0.015563965
1605203388753,1514,-0.46606445,1.0055542,0.053894043
1605203388753,1515,-0.8051758,0.6300659,0.001159668
1605203388753,1516,-0.7277832,0.6207886,-0.097961426
1605203388754,1517,-0.7194824,0.83026123,-0.10845947
1605203388754,1518,-0.60009766,0.70062256,0.1293335
1605203388755,1519,-0.6633301,0.70062256,-0.07720947
1605203388755,1520,-0.5834961,0.71380615,-0.02154541
1605203388756,1521,-0.61206055,1.0001831,-0.039367676
1605203388756,1522,-0.5866699,0.69329834,0.014343262
1605203388759,1523,-0.8051758,0.6300659,0.001159668
1605203388759,1524,-0.4716797,0.7699585,-0.023986816
1605203388759,1525,-0.7277832,0.6207886,-0.097961426
1605203388759,1526,-0.60058594,0.7206421,0.07318115
1605203388760,1527,-0.6970215,0.7472534,0.085632324
1605203388760,1528,-0.70288086,0.8290405,0.13250732
1605203388760,1529,-0.6208496,0.7457886,0.2296753
1605203388761,1530,-0.61572266,0.6793823,0.015563965
1605203388762,1531,-0.7194824,0.83026123,-0.10845947
1605203388762,1532,-0.6633301,0.70062256,-0.07720947
1605203388763,1533,-0.5866699,0.69329834,0.014343262
1605203388763,1534,-0.8051758,0.6300659,0.001159668
1605203388764,1535,-0.7277832,0.6207886,-0.097961426
1605203391296,1536,-0.9008789,0.6112671,-0.097961426
1605203391300,1537,-0.9008789,0.6112671,-0.097961426
1605203391300,1538,-0.9008789,0.6112671,-0.097961426
1605203391300,1539,-0.72216797,0.54730225,-0.14801025
1605203391303,1540,-0.72216797,0.54730225,-0.14801025
1605203391304,1541,-0.72216797,0.54730225,-0.14801025
1605203391306,1542,-0.763916,0.75042725,-0.20245361
1605203391307,1543,-0.763916,0.75042725,-0.20245361
1605203391309,1544,-0.8186035,0.9660034,-0.21246338
1605203391311,1545,-0.8186035,0.9660034,-0.21246338
1605203391313,1546,-0.7043457,0.8451538,-0.06427002
1605203391315,1547,-0.7043457,0.8451538,-0.06427002
1605203391316,1548,-0.34301758,0.5778198,0.03338623
1605203391317,1549,-0.763916,0.75042725,-0.20245361
1605203391319,1550,-0.34301758,0.5778198,0.03338623
1605203391320,1551,-0.6394043,0.87420654,-0.14019775
1605203391321,1552,-0.6394043,0.87420654,-0.14019775
1605203391323,1553,-0.5698242,0.699646,-0.14068604
1605203391323,1554,-0.5698242,0.699646,-0.14068604
1605203391323,1555,-0.8186035,0.9660034,-0.21246338
1605203391324,1556,-0.5859375,0.74554443,-0.17364502
1605203391324,1557,-0.5859375,0.74554443,-0.17364502
1605203391326,1558,-0.5534668,0.9450073,-0.23272705
1605203391329,1559,-0.5534668,0.9450073,-0.23272705
1605203391332,1560,-0.5476074,0.8566284,-0.10748291
1605203391332,1561,-0.7043457,0.8451538,-0.06427002
1605203391332,1562,-0.6899414,0.6473999,-3.0517578E-4
1605203391332,1563,-0.5476074,0.8566284,-0.10748291
1605203391334,1564,-0.5629883,0.8043823,-0.1272583
1605203391335,1565,-0.6899414,0.6473999,-3.0517578E-4
1605203391336,1566,-0.47070312,0.855896,-0.10430908
1605203391337,1567,-0.5629883,0.8043823,-0.1272583
1605203391340,1568,-0.513916,0.68573,-0.027893066
1605203391340,1569,-0.34301758,0.5778198,0.03338623
1605203391340,1570,-0.5593262,0.6766968,-0.0029907227
1605203391340,1571,-0.6394043,0.87420654,-0.14019775
1605203391340,1572,-0.47070312,0.855896,-0.10430908
1605203391340,1573,-0.6435547,0.66326904,0.15203857
1605203391341,1574,-0.5698242,0.699646,-0.14068604
1605203391342,1575,-0.7607422,0.88323975,0.3920288
1605203391342,1576,-0.5859375,0.74554443,-0.17364502
1605203391343,1577,-0.42626953,0.8300171,0.22064209
1605203391344,1578,-0.5534668,0.9450073,-0.23272705
1605203391345,1579,-0.6118164,0.76971436,0.3312378
1605203391345,1580,-0.513916,0.68573,-0.027893066
1605203391346,1581,-0.4501953,0.868103,0.28167725
1605203391346,1582,-0.5593262,0.6766968,-0.0029907227
1605203391347,1583,-0.3779297,0.7423706,0.45941162
1605203391347,1584,-0.6435547,0.66326904,0.15203857
1605203391348,1585,-0.52319336,0.81243896,0.4869995
1605203391348,1586,-0.7607422,0.88323975,0.3920288
1605203391349,1587,-0.5476074,0.8566284,-0.10748291
1605203391349,1588,-0.42626953,0.8300171,0.22064209
1605203391350,1589,-0.2824707,0.75408936,0.4088745
1605203391351,1590,-0.6118164,0.76971436,0.3312378
1605203391351,1591,-0.6899414,0.6473999,-3.0517578E-4
1605203391352,1592,-0.4440918,0.7328491,0.46722412
1605203391352,1593,-0.5629883,0.8043823,-0.1272583
1605203391353,1594,-0.4501953,0.868103,0.28167725
1605203391353,1595,-0.36645508,0.8085327,0.42279053
1605203391354,1596,-0.47070312,0.855896,-0.10430908
1605203391354,1597,-0.3779297,0.7423706,0.45941162
1605203391354,1598,-0.34521484,0.7218628,0.46185303
1605203391355,1599,-0.513916,0.68573,-0.027893066
1605203391356,1600,-0.52319336,0.81243896,0.4869995
1605203391356,1601,-0.37597656,0.85565186,0.43377686
1605203391357,1602,-0.2824707,0.75408936,0.4088745
1605203391357,1603,-0.5593262,0.6766968,-0.0029907227
1605203391357,1604,-0.41430664,0.8866577,0.4303589
1605203391358,1605,-0.6435547,0.66326904,0.15203857
1605203391358,1606,-0.4440918,0.7328491,0.46722412
1605203391358,1607,-0.36645508,0.8085327,0.42279053
1605203391359,1608,-0.43774414,0.88397217,0.37445068
1605203391359,1609,-0.7607422,0.88323975,0.3920288
1605203391359,1610,-0.34521484,0.7218628,0.46185303
1605203391360,1611,-0.42626953,0.8300171,0.22064209
1605203391360,1612,-0.5515137,0.71917725,0.30389404
1605203391360,1613,-0.37597656,0.85565186,0.43377686
1605203391361,1614,-0.532959,0.45062256,0.28656006
1605203391361,1615,-0.6118164,0.76971436,0.3312378
1605203391362,1616,-0.41430664,0.8866577,0.4303589
1605203391362,1617,-0.4501953,0.868103,0.28167725
1605203391363,1618,-0.43774414,0.88397217,0.37445068
1605203391363,1619,-0.3779297,0.7423706,0.45941162
1605203391364,1620,-0.5515137,0.71917725,0.30389404
1605203391365,1621,-0.52319336,0.81243896,0.4869995
1605203391365,1622,-0.532959,0.45062256,0.28656006
1605203391366,1623,-0.2824707,0.75408936,0.4088745
1605203391366,1624,-0.4440918,0.7328491,0.46722412
1605203391367,1625,-0.36645508,0.8085327,0.42279053
1605203391368,1626,-0.34521484,0.7218628,0.46185303
1605203391369,1627,-0.37597656,0.85565186,0.43377686
1605203391369,1628,-0.41430664,0.8866577,0.4303589
1605203391370,1629,-0.43774414,0.88397217,0.37445068
1605203391371,1630,-0.5515137,0.71917725,0.30389404
1605203391371,1631,-0.532959,0.45062256,0.28656006
1605203393874,1632,-0.7038574,0.92181396,0.16937256
1605203393874,1633,-0.7038574,0.92181396,0.16937256
1605203393874,1634,-0.7038574,0.92181396,0.16937256
1605203393875,1635,-0.5517578,0.77752686,0.101257324
1605203393875,1636,-0.5517578,0.77752686,0.101257324
1605203393875,1637,-0.5517578,0.77752686,0.101257324
1605203393875,1638,-0.49780273,0.6913452,-0.008850098
1605203393876,1639,-0.49780273,0.6913452,-0.008850098
1605203393876,1640,-0.53149414,0.7941284,0.0028686523
1605203393876,1641,-0.49780273,0.6913452,-0.008850098
1605203393877,1642,-0.53149414,0.7941284,0.0028686523
1605203393878,1643,-0.53149414,0.7941284,0.0028686523
1605203393878,1644,-0.62060547,0.87005615,-0.12872314
1605203393878,1645,-0.62060547,0.87005615,-0.12872314
1605203393878,1646,-0.62060547,0.87005615,-0.12872314
1605203393879,1647,-0.70581055,0.98480225,0.07537842
1605203393879,1648,-0.70581055,0.98480225,0.07537842
1605203393880,1649,-0.70581055,0.98480225,0.07537842
1605203393880,1650,-0.4128418,0.69329834,0.20013428
1605203393880,1651,-0.4128418,0.69329834,0.20013428
1605203393880,1652,-0.4128418,0.69329834,0.20013428
1605203393880,1653,-0.63378906,0.7719116,0.042663574
1605203393881,1654,-0.63378906,0.7719116,0.042663574
1605203393881,1655,-0.63378906,0.7719116,0.042663574
1605203393881,1656,-0.5461426,0.87054443,-0.04937744
1605203393882,1657,-0.5461426,0.87054443,-0.04937744
1605203393882,1658,-0.5461426,0.87054443,-0.04937744
1605203393882,1659,-0.42797852,0.75653076,-0.10699463
1605203393882,1660,-0.42797852,0.75653076,-0.10699463
1605203393883,1661,-0.42797852,0.75653076,-0.10699463
1605203393883,1662,-0.5205078,0.8998413,-0.144104
1605203393884,1663,-0.5205078,0.8998413,-0.144104
1605203393884,1664,-0.5205078,0.8998413,-0.144104
1605203393884,1665,-0.53881836,0.89959717,-0.08648682
1605203393885,1666,-0.53881836,0.89959717,-0.08648682
1605203393885,1667,-0.69433594,0.81903076,0.086120605
1605203393885,1668,-0.53881836,0.89959717,-0.08648682
1605203393886,1669,-0.69433594,0.81903076,0.086120605
1605203393886,1670,-0.69433594,0.81903076,0.086120605
1605203393886,1671,-0.5632324,0.5783081,0.035339355
1605203393887,1672,-0.5632324,0.5783081,0.035339355
1605203393887,1673,-0.5632324,0.5783081,0.035339355
1605203393887,1674,-0.70288086,0.94403076,-0.08355713
1605203393888,1675,-0.70288086,0.94403076,-0.08355713
1605203393888,1676,-0.5593262,0.70184326,-0.08135986
1605203393888,1677,-0.70288086,0.94403076,-0.08355713
1605203393889,1678,-0.63012695,0.682312,-0.07354736
1605203393889,1679,-0.5593262,0.70184326,-0.08135986
1605203393889,1680,-0.5593262,0.70184326,-0.08135986
1605203393890,1681,-0.65356445,0.6881714,-0.030334473
1605203393890,1682,-0.63012695,0.682312,-0.07354736
1605203393890,1683,-0.63012695,0.682312,-0.07354736
1605203393891,1684,-0.65356445,0.6881714,-0.030334473
1605203393891,1685,-0.8215332,0.6835327,0.0021362305
1605203393891,1686,-0.65356445,0.6881714,-0.030334473
1605203393892,1687,-0.8215332,0.6835327,0.0021362305
1605203393892,1688,-0.91137695,0.70233154,-0.05206299
1605203393893,1689,-0.8215332,0.6835327,0.0021362305
1605203393893,1690,-0.63427734,0.72088623,-0.053527832
1605203393894,1691,-0.91137695,0.70233154,-0.05206299
1605203393894,1692,-0.91137695,0.70233154,-0.05206299
1605203393894,1693,-0.50146484,0.7267456,-0.06329346
1605203393895,1694,-0.63427734,0.72088623,-0.053527832
1605203393895,1695,-0.63427734,0.72088623,-0.053527832
1605203393895,1696,-0.50146484,0.7267456,-0.06329346
1605203393895,1697,-0.732666,0.8361206,-0.16656494
1605203393895,1698,-0.50146484,0.7267456,-0.06329346
1605203393895,1699,-0.732666,0.8361206,-0.16656494
1605203393895,1700,-0.732666,0.8361206,-0.16656494
1605203393896,1701,-0.48217773,0.7711792,-0.11871338
1605203393897,1702,-0.48217773,0.7711792,-0.11871338
1605203393897,1703,-0.65356445,0.8031616,0.053649902
1605203393897,1704,-0.48217773,0.7711792,-0.11871338
1605203393898,1705,-0.7597656,0.8395386,0.031433105
1605203393898,1706,-0.65356445,0.8031616,0.053649902
1605203393898,1707,-0.65356445,0.8031616,0.053649902
1605203393898,1708,-0.62768555,0.5404663,0.010437012
1605203393899,1709,-0.7597656,0.8395386,0.031433105
1605203393899,1710,-0.7597656,0.8395386,0.031433105
1605203393899,1711,-0.8154297,0.9328003,-0.043273926
1605203393900,1712,-0.62768555,0.5404663,0.010437012
1605203393900,1713,-0.62768555,0.5404663,0.010437012
1605203393900,1714,-0.5349121,0.72943115,-0.06915283
1605203393901,1715,-0.8154297,0.9328003,-0.043273926
1605203393902,1716,-0.8154297,0.9328003,-0.043273926
1605203393902,1717,-0.6635742,0.7531128,-0.008850098
1605203393902,1718,-0.5349121,0.72943115,-0.06915283
1605203393902,1719,-0.66259766,0.7826538,-0.047668457
1605203393902,1720,-0.5349121,0.72943115,-0.06915283
1605203393903,1721,-0.6635742,0.7531128,-0.008850098
1605203393903,1722,-0.74658203,0.6613159,0.031433105
1605203393903,1723,-0.6635742,0.7531128,-0.008850098
1605203393903,1724,-0.66259766,0.7826538,-0.047668457
1605203393903,1725,-0.66259766,0.7826538,-0.047668457
1605203393904,1726,-0.74658203,0.6613159,0.031433105
1605203393904,1727,-0.74658203,0.6613159,0.031433105
1605203396259,1728,-0.8022461,0.5939331,-0.054016113
1605203396259,1729,-0.8022461,0.5939331,-0.054016113
1605203396260,1730,-0.6274414,0.7201538,-0.046936035
1605203396261,1731,-0.6274414,0.7201538,-0.046936035
1605203396261,1732,-0.58740234,0.7067261,0.14471436
1605203396262,1733,-0.8022461,0.5939331,-0.054016113
1605203396262,1734,-0.59716797,0.55682373,0.08026123
1605203396262,1735,-0.58740234,0.7067261,0.14471436
1605203396263,1736,-0.7512207,0.8649292,0.010925293
1605203396263,1737,-0.59716797,0.55682373,0.08026123
1605203396263,1738,-0.6274414,0.7201538,-0.046936035
1605203396268,1739,-0.58740234,0.7067261,0.14471436
1605203396269,1740,-0.7512207,0.8649292,0.010925293
1605203396269,1741,-0.7854004,0.6273804,0.10784912
1605203396269,1742,-0.59716797,0.55682373,0.08026123
1605203396270,1743,-0.7854004,0.6273804,0.10784912
1605203396270,1744,-0.80810547,0.62127686,0.14324951
1605203396270,1745,-0.7512207,0.8649292,0.010925293
1605203396271,1746,-0.80810547,0.62127686,0.14324951
1605203396272,1747,-0.87768555,0.5807495,0.17254639
1605203396272,1748,-0.7854004,0.6273804,0.10784912
1605203396272,1749,-0.87768555,0.5807495,0.17254639
1605203396272,1750,-0.98217773,0.66033936,0.050231934
1605203396273,1751,-0.80810547,0.62127686,0.14324951
1605203396273,1752,-0.98217773,0.66033936,0.050231934
1605203396274,1753,-0.87768555,0.5807495,0.17254639
1605203396275,1754,-0.70532227,0.49700928,-0.058654785
1605203396276,1755,-0.70532227,0.49700928,-0.058654785
1605203396276,1756,-0.98217773,0.66033936,0.050231934
1605203396276,1757,-0.80444336,0.7826538,-0.1663208
1605203396276,1758,-0.80444336,0.7826538,-0.1663208
1605203396276,1759,-0.70532227,0.49700928,-0.058654785
1605203396277,1760,-0.74560547,0.59710693,-0.11114502
1605203396279,1761,-0.80444336,0.7826538,-0.1663208
1605203396279,1762,-0.74560547,0.59710693,-0.11114502
1605203396279,1763,-0.7651367,0.5309448,-0.07281494
1605203396280,1764,-0.74560547,0.59710693,-0.11114502
1605203396280,1765,-0.7651367,0.5309448,-0.07281494
1605203396280,1766,-0.82421875,0.5114136,-0.05645752
1605203396281,1767,-0.9128418,0.40716553,0.04559326
1605203396285,1768,-0.7651367,0.5309448,-0.07281494
1605203396285,1769,-0.82421875,0.5114136,-0.05645752
1605203396288,1770,-0.7788086,0.7003784,-0.17510986
1605203396289,1771,-0.82421875,0.5114136,-0.05645752
1605203396289,1772,-0.9128418,0.40716553,0.04559326
1605203396289,1773,-0.6594238,0.65374756,-0.19537354
1605203396289,1774,-0.9128418,0.40716553,0.04559326
1605203396290,1775,-0.7788086,0.7003784,-0.17510986
1605203396290,1776,-0.7019043,0.7645874,-0.17559814
1605203396290,1777,-0.6594238,0.65374756,-0.19537354
1605203396290,1778,-0.7788086,0.7003784,-0.17510986
1605203396293,1779,-0.8244629,0.6168823,-0.18560791
1605203396293,1780,-0.7019043,0.7645874,-0.17559814
1605203396293,1781,-0.6594238,0.65374756,-0.19537354
1605203396293,1782,-0.81103516,0.776062,-0.04864502
1605203396294,1783,-0.8244629,0.6168823,-0.18560791
1605203396295,1784,-0.7019043,0.7645874,-0.17559814
1605203396295,1785,-0.4794922,0.73895264,-0.085754395
1605203396295,1786,-0.81103516,0.776062,-0.04864502
1605203396295,1787,-0.8244629,0.6168823,-0.18560791
1605203396296,1788,-0.55493164,0.8143921,-0.01763916
1605203396296,1789,-0.4794922,0.73895264,-0.085754395
1605203396296,1790,-0.81103516,0.776062,-0.04864502
1605203396297,1791,-0.4794922,0.73895264,-0.085754395
1605203396297,1792,-0.55493164,0.8143921,-0.01763916
1605203396297,1793,-0.85302734,0.56073,0.020935059
1605203396297,1794,-0.85302734,0.56073,0.020935059
1605203396299,1795,-0.86279297,0.5355835,0.08050537
1605203396300,1796,-0.55493164,0.8143921,-0.01763916
1605203396300,1797,-0.86279297,0.5355835,0.08050537
1605203396300,1798,-0.8261719,0.5836792,0.093444824
1605203396301,1799,-0.8261719,0.5836792,0.093444824
1605203396301,1800,-0.85253906,0.5963745,0.10662842
1605203396301,1801,-0.85302734,0.56073,0.020935059
1605203396301,1802,-0.85253906,0.5963745,0.10662842
1605203396301,1803,-0.81518555,0.6286011,0.1671753
1605203396302,1804,-0.86279297,0.5355835,0.08050537
1605203396303,1805,-0.81518555,0.6286011,0.1671753
1605203396303,1806,-0.7553711,0.53948975,0.21380615
1605203396303,1807,-0.8261719,0.5836792,0.093444824
1605203396303,1808,-0.7553711,0.53948975,0.21380615
1605203396303,1809,-0.75683594,0.57318115,0.0040893555
1605203396303,1810,-0.85253906,0.5963745,0.10662842
1605203396304,1811,-0.75683594,0.57318115,0.0040893555
1605203396304,1812,-0.81518555,0.6286011,0.1671753
1605203396304,1813,-0.4645996,0.7765503,-0.13067627
1605203396305,1814,-0.4645996,0.7765503,-0.13067627
1605203396305,1815,-0.7553711,0.53948975,0.21380615
1605203396305,1816,-0.71777344,0.81585693,-0.2144165
1605203396306,1817,-0.71777344,0.81585693,-0.2144165
1605203396306,1818,-0.7512207,0.78656006,-0.17022705
1605203396306,1819,-0.75683594,0.57318115,0.0040893555
1605203396306,1820,-0.7512207,0.78656006,-0.17022705
1605203396306,1821,-0.4645996,0.7765503,-0.13067627
1605203396307,1822,-0.71777344,0.81585693,-0.2144165
1605203396307,1823,-0.7512207,0.78656006,-0.17022705
1605203398844,1824,-0.86987305,0.81243896,-0.17144775
1605203398845,1825,-0.86987305,0.81243896,-0.17144775
1605203398846,1826,-1.1767578,0.64276123,0.070495605
1605203398846,1827,-1.1767578,0.64276123,0.070495605
1605203398847,1828,-0.58251953,0.4220581,0.1395874
1605203398848,1829,-0.58251953,0.4220581,0.1395874
1605203398849,1830,-0.86987305,0.81243896,-0.17144775
1605203398850,1831,-0.6557617,0.48919678,0.109069824
1605203398850,1832,-0.6557617,0.48919678,0.109069824
1605203398850,1833,-1.1767578,0.64276123,0.070495605
1605203398852,1834,-0.7817383,0.84368896,0.019226074
1605203398852,1835,-0.7817383,0.84368896,0.019226074
1605203398852,1836,-0.58251953,0.4220581,0.1395874
1605203398854,1837,-0.6965332,0.7809448,0.039733887
1605203398854,1838,-0.6965332,0.7809448,0.039733887
1605203398854,1839,-0.6557617,0.48919678,0.109069824
1605203398858,1840,-0.62841797,0.90667725,0.011169434
1605203398858,1841,-0.7817383,0.84368896,0.019226074
1605203398858,1842,-0.62841797,0.90667725,0.011169434
1605203398858,1843,-0.6386719,0.6613159,0.08709717
1605203398859,1844,-0.6965332,0.7809448,0.039733887
1605203398859,1845,-0.6386719,0.6613159,0.08709717
1605203398859,1846,-0.8300781,0.6713257,0.094177246
1605203398859,1847,-0.62841797,0.90667725,0.011169434
1605203398859,1848,-0.8300781,0.6713257,0.094177246
1605203398860,1849,-0.7248535,0.6679077,0.03265381
1605203398860,1850,-0.6386719,0.6613159,0.08709717
1605203398860,1851,-0.7248535,0.6679077,0.03265381
1605203398860,1852,-0.7487793,0.6803589,0.1329956
1605203398860,1853,-0.8300781,0.6713257,0.094177246
1605203398861,1854,-0.7487793,0.6803589,0.1329956
1605203398861,1855,-0.60058594,0.5565796,0.093933105
1605203398862,1856,-0.7248535,0.6679077,0.03265381
1605203398863,1857,-0.5908203,0.7008667,0.105163574
1605203398863,1858,-0.60058594,0.5565796,0.093933105
1605203398863,1859,-0.7487793,0.6803589,0.1329956
1605203398864,1860,-0.6838379,0.89642334,0.03753662
1605203398864,1861,-0.5908203,0.7008667,0.105163574
1605203398865,1862,-0.60058594,0.5565796,0.093933105
1605203398865,1863,-0.4711914,0.6124878,0.024353027
1605203398866,1864,-0.6838379,0.89642334,0.03753662
1605203398866,1865,-0.5908203,0.7008667,0.105163574
1605203398867,1866,-0.8679199,0.7863159,-0.06402588
1605203398867,1867,-0.4711914,0.6124878,0.024353027
1605203398868,1868,-0.6838379,0.89642334,0.03753662
1605203398870,1869,-0.50097656,0.7304077,-0.07647705
1605203398870,1870,-0.8679199,0.7863159,-0.06402588
1605203398870,1871,-0.4711914,0.6124878,0.024353027
1605203398870,1872,-0.50097656,0.7304077,-0.07647705
1605203398870,1873,-0.5949707,0.8739624,-0.02178955
1605203398871,1874,-0.8679199,0.7863159,-0.06402588
1605203398871,1875,-0.5949707,0.8739624,-0.02178955
1605203398872,1876,-0.61499023,0.90423584,-0.06060791
1605203398873,1877,-0.52124023,0.7352905,0.097839355
1605203398873,1878,-0.61499023,0.90423584,-0.06060791
1605203398874,1879,-0.50097656,0.7304077,-0.07647705
1605203398874,1880,-0.767334,0.8148804,0.1359253
1605203398874,1881,-0.5949707,0.8739624,-0.02178955
1605203398875,1882,-0.52124023,0.7352905,0.097839355
1605203398875,1883,-0.8051758,0.76483154,-0.006652832
1605203398876,1884,-0.61499023,0.90423584,-0.06060791
1605203398877,1885,-0.767334,0.8148804,0.1359253
1605203398877,1886,-0.57788086,0.3925171,-0.11383057
1605203398877,1887,-0.52124023,0.7352905,0.097839355
1605203398878,1888,-0.8051758,0.76483154,-0.006652832
1605203398879,1889,-0.96118164,0.8278198,-0.038879395
1605203398879,1890,-0.767334,0.8148804,0.1359253
1605203398879,1891,-0.57788086,0.3925171,-0.11383057
1605203398880,1892,-0.7055664,0.5914917,0.042419434
1605203398880,1893,-0.8051758,0.76483154,-0.006652832
1605203398882,1894,-0.96118164,0.8278198,-0.038879395
1605203398882,1895,-0.57788086,0.3925171,-0.11383057
1605203398882,1896,-0.767334,0.5465698,0.08514404
1605203398883,1897,-0.7055664,0.5914917,0.042419434
1605203398883,1898,-0.96118164,0.8278198,-0.038879395
1605203398884,1899,-0.75268555,0.6749878,-0.12750244
1605203398884,1900,-0.767334,0.5465698,0.08514404
1605203398885,1901,-0.85961914,0.58880615,-0.117248535
1605203398885,1902,-0.7055664,0.5914917,0.042419434
1605203398886,1903,-0.75268555,0.6749878,-0.12750244
1605203398886,1904,-0.83154297,0.44769287,-0.10845947
1605203398886,1905,-0.767334,0.5465698,0.08514404
1605203398887,1906,-0.85961914,0.58880615,-0.117248535
1605203398888,1907,-0.87768555,0.53118896,-0.058898926
1605203398888,1908,-0.75268555,0.6749878,-0.12750244
1605203398889,1909,-0.83154297,0.44769287,-0.10845947
1605203398890,1910,-0.9470215,0.5709839,0.07977295
1605203398890,1911,-0.85961914,0.58880615,-0.117248535
1605203398891,1912,-0.87768555,0.53118896,-0.058898926
1605203398891,1913,-0.7524414,0.7304077,0.16937256
1605203398891,1914,-0.83154297,0.44769287,-0.10845947
1605203398892,1915,-0.87768555,0.53118896,-0.058898926
1605203398893,1916,-0.9470215,0.5709839,0.07977295
1605203398893,1917,-0.9470215,0.5709839,0.07977295
1605203398894,1918,-0.7524414,0.7304077,0.16937256
1605203398895,1919,-0.7524414,0.7304077,0.16937256
1605203401434,1920,-0.68359375,0.7206421,0.19329834
1605203401438,1921,-0.68359375,0.7206421,0.19329834
1605203401441,1922,-0.7128906,0.73187256,0.09686279
1605203401445,1923,-0.7128906,0.73187256,0.09686279
1605203401448,1924,-0.6604004,0.7225952,-0.015930176
1605203401451,1925,-0.6604004,0.7225952,-0.015930176
1605203401455,1926,-0.7067871,0.7399292,-0.046936035
1605203401457,1927,-0.7067871,0.7399292,-0.046936035
1605203401458,1928,-0.6501465,0.6959839,0.00579834
1605203401461,1929,-0.68359375,0.7206421,0.19329834
1605203401464,1930,-0.72998047,0.69866943,-0.02520752
1605203401467,1931,-0.7128906,0.73187256,0.09686279
1605203401469,1932,-0.79003906,0.59002686,0.0079956055
1605203401470,1933,-0.6604004,0.7225952,-0.015930176
1605203401474,1934,-0.7878418,0.5582886,-0.09259033
1605203401476,1935,-0.7067871,0.7399292,-0.046936035
1605203401477,1936,-0.8195801,0.65252686,-0.05255127
1605203401479,1937,-0.6501465,0.6959839,0.00579834
1605203401480,1938,-0.6501465,0.6959839,0.00579834
1605203401483,1939,-0.72998047,0.69866943,-0.02520752
1605203401487,1940,-0.72998047,0.69866943,-0.02520752
1605203401488,1941,-0.79003906,0.59002686,0.0079956055
1605203401490,1942,-0.79003906,0.59002686,0.0079956055
1605203401490,1943,-0.83374023,0.62908936,-0.035217285
1605203401492,1944,-0.7878418,0.5582886,-0.09259033
1605203401493,1945,-0.73046875,0.5841675,-0.14678955
1605203401495,1946,-0.8195801,0.65252686,-0.05255127
1605203401496,1947,-0.81396484,0.57073975,-0.20635986
1605203401497,1948,-0.83374023,0.62908936,-0.035217285
1605203401498,1949,-0.82006836,0.46575928,-0.20635986
1605203401501,1950,-0.73046875,0.5841675,-0.14678955
1605203401501,1951,-0.7878418,0.5582886,-0.09259033
1605203401502,1952,-0.8503418,0.46795654,-0.18829346
1605203401502,1953,-0.81396484,0.57073975,-0.20635986
1605203401502,1954,-0.8195801,0.65252686,-0.05255127
1605203401503,1955,-0.82006836,0.46575928,-0.20635986
1605203401505,1956,-0.83374023,0.62908936,-0.035217285
1605203401505,1957,-0.8503418,0.46795654,-0.18829346
1605203401506,1958,-0.8466797,0.57855225,-0.24737549
1605203401506,1959,-0.97265625,0.74676514,-0.15899658
1605203401508,1960,-0.73046875,0.5841675,-0.14678955
1605203401508,1961,-0.8466797,0.57855225,-0.24737549
1605203401508,1962,-0.7055664,0.7133179,0.057556152
1605203401510,1963,-0.81396484,0.57073975,-0.20635986
1605203401511,1964,-0.97265625,0.74676514,-0.15899658
1605203401512,1965,-0.6022949,0.68743896,0.089782715
1605203401513,1966,-0.7055664,0.7133179,0.057556152
1605203401514,1967,-0.82006836,0.46575928,-0.20635986
1605203401514,1968,-0.6022949,0.68743896,0.089782715
1605203401515,1969,-0.8503418,0.46795654,-0.18829346
1605203401516,1970,-0.64282227,0.84783936,-0.059631348
1605203401517,1971,-0.8466797,0.57855225,-0.24737549
1605203401517,1972,-0.64282227,0.84783936,-0.059631348
1605203401518,1973,-0.97265625,0.74676514,-0.15899658
1605203401519,1974,-0.59155273,0.67889404,-0.07281494
1605203401520,1975,-0.7055664,0.7133179,0.057556152
1605203401521,1976,-0.66064453,0.75897217,-0.08721924
1605203401522,1977,-0.59155273,0.67889404,-0.07281494
1605203401522,1978,-0.6022949,0.68743896,0.089782715
1605203401523,1979,-0.66064453,0.75897217,-0.08721924
1605203401523,1980,-0.6574707,0.83270264,-0.109436035
1605203401524,1981,-0.6574707,0.83270264,-0.109436035
1605203401525,1982,-0.6750488,0.87786865,-0.11114502
1605203401526,1983,-0.6750488,0.87786865,-0.11114502
1605203401527,1984,-0.8515625,0.6901245,0.04949951
1605203401527,1985,-0.8515625,0.6901245,0.04949951
1605203401528,1986,-0.6308594,0.3925171,0.07342529
1605203401529,1987,-0.6308594,0.3925171,0.07342529
1605203401530,1988,-0.64282227,0.84783936,-0.059631348
1605203401530,1989,-0.6999512,0.7687378,0.0038452148
1605203401532,1990,-0.6999512,0.7687378,0.0038452148
1605203401532,1991,-0.59155273,0.67889404,-0.07281494
1605203401532,1992,-0.576416,0.7584839,-0.08648682
1605203401533,1993,-0.576416,0.7584839,-0.08648682
1605203401533,1994,-0.66064453,0.75897217,-0.08721924
1605203401534,1995,-0.53564453,0.59124756,-0.14703369
1605203401535,1996,-0.53564453,0.59124756,-0.14703369
1605203401535,1997,-0.6574707,0.83270264,-0.109436035
1605203401536,1998,-0.6550293,0.81243896,-0.18585205
1605203401536,1999,-0.6550293,0.81243896,-0.18585205
1605203401537,2000,-0.6750488,0.87786865,-0.11114502
1605203401538,2001,-0.6645508,0.8085327,-0.17584229
1605203401538,2002,-0.6645508,0.8085327,-0.17584229
1605203401538,2003,-0.8515625,0.6901245,0.04949951
1605203401540,2004,-0.71069336,0.8649292,0.051208496
1605203401540,2005,-0.71069336,0.8649292,0.051208496
1605203401540,2006,-0.6308594,0.3925171,0.07342529
1605203401540,2007,-0.84277344,0.68621826,0.1762085
1605203401541,2008,-0.6999512,0.7687378,0.0038452148
1605203401543,2009,-0.84277344,0.68621826,0.1762085
1605203401543,2010,-0.576416,0.7584839,-0.08648682
1605203401544,2011,-0.53564453,0.59124756,-0.14703369
1605203401546,2012,-0.6550293,0.81243896,-0.18585205
1605203401546,2013,-0.6645508,0.8085327,-0.17584229
1605203401547,2014,-0.71069336,0.8649292,0.051208496
1605203401548,2015,-0.84277344,0.68621826,0.1762085
1605203404213,2016,-0.83740234,0.72576904,0.027526855
1605203404214,2017,-0.83740234,0.72576904,0.027526855
1605203404214,2018,-0.83740234,0.72576904,0.027526855
1605203404215,2019,-0.71533203,0.65740967,-0.0051879883
1605203404219,2020,-0.71533203,0.65740967,-0.0051879883
1605203404223,2021,-0.6442871,0.58807373,0.06072998
1605203404230,2022,-0.6442871,0.58807373,0.06072998
1605203404232,2023,-0.6645508,0.6664429,0.10809326
1605203404233,2024,-0.71533203,0.65740967,-0.0051879883
1605203404233,2025,-0.6645508,0.6664429,0.10809326
1605203404236,2026,-0.7714844,0.69329834,0.0680542
1605203404239,2027,-0.7714844,0.69329834,0.0680542
1605203404243,2028,-0.86328125,0.66326904,-0.13043213
1605203404246,2029,-0.86328125,0.66326904,-0.13043213
1605203404247,2030,-0.6442871,0.58807373,0.06072998
1605203404250,2031,-0.75805664,0.6725464,-0.07354736
1605203404253,2032,-0.75805664,0.6725464,-0.07354736
1605203404257,2033,-0.7116699,0.54315186,-0.11846924
1605203404259,2034,-0.7116699,0.54315186,-0.11846924
1605203404262,2035,-0.7858887,0.58465576,-0.15240479
1605203404263,2036,-0.7858887,0.58465576,-0.15240479
1605203404265,2037,-0.79248047,0.619812,-0.22906494
1605203404265,2038,-0.79248047,0.619812,-0.22906494
1605203404266,2039,-0.84228516,0.52923584,-0.25054932
1605203404267,2040,-0.99072266,0.6696167,-0.13946533
1605203404268,2041,-0.6645508,0.6664429,0.10809326
1605203404269,2042,-0.7714844,0.69329834,0.0680542
1605203404270,2043,-0.6555176,0.65618896,0.0079956055
1605203404272,2044,-0.86328125,0.66326904,-0.13043213
1605203404272,2045,-0.56347656,0.72332764,-0.07696533
1605203404272,2046,-0.84228516,0.52923584,-0.25054932
1605203404273,2047,-0.99072266,0.6696167,-0.13946533
1605203404275,2048,-0.75805664,0.6725464,-0.07354736
1605203404275,2049,-0.6555176,0.65618896,0.0079956055
1605203404275,2050,-0.703125,0.83148193,-0.17706299
1605203404276,2051,-0.70166016,0.70648193,-0.16363525
1605203404277,2052,-0.7116699,0.54315186,-0.11846924
1605203404277,2053,-0.7487793,0.76190186,-0.128479
1605203404279,2054,-0.7858887,0.58465576,-0.15240479
1605203404279,2055,-0.5666504,0.74993896,-0.034240723
1605203404279,2056,-0.79248047,0.619812,-0.22906494
1605203404281,2057,-0.84228516,0.52923584,-0.25054932
1605203404282,2058,-0.99072266,0.6696167,-0.13946533
1605203404283,2059,-0.56347656,0.72332764,-0.07696533
1605203404284,2060,-0.9589844,0.6190796,0.027526855
1605203404284,2061,-0.6555176,0.65618896,0.0079956055
1605203404285,2062,-0.703125,0.83148193,-0.17706299
1605203404285,2063,-0.56347656,0.72332764,-0.07696533
1605203404286,2064,-0.70166016,0.70648193,-0.16363525
1605203404287,2065,-0.703125,0.83148193,-0.17706299
1605203404288,2066,-0.7487793,0.76190186,-0.128479
1605203404288,2067,-0.70166016,0.70648193,-0.16363525
1605203404289,2068,-0.5666504,0.74993896,-0.034240723
1605203404290,2069,-0.7487793,0.76190186,-0.128479
1605203404290,2070,-0.9589844,0.6190796,0.027526855
1605203404292,2071,-0.5666504,0.74993896,-0.034240723
1605203404292,2072,-0.7270508,0.57684326,-0.031799316
1605203404293,2073,-0.7270508,0.57684326,-0.031799316
1605203404294,2074,-0.9589844,0.6190796,0.027526855
1605203404294,2075,-0.65893555,0.77923584,-0.030578613
1605203404295,2076,-0.7270508,0.57684326,-0.031799316
1605203404296,2077,-0.65893555,0.77923584,-0.030578613
1605203404297,2078,-0.5566406,0.6893921,-0.15167236
1605203404299,2079,-0.5566406,0.6893921,-0.15167236
1605203404300,2080,-0.65893555,0.77923584,-0.030578613
1605203404302,2081,-0.61083984,0.69647217,-0.17510986
1605203404302,2082,-0.61083984,0.69647217,-0.17510986
1605203404302,2083,-0.5566406,0.6893921,-0.15167236
1605203404304,2084,-0.7248535,0.7941284,-0.20269775
1605203404304,2085,-0.61083984,0.69647217,-0.17510986
1605203404305,2086,-0.7248535,0.7941284,-0.20269775
1605203404306,2087,-0.58691406,0.82806396,-0.06793213
1605203404306,2088,-0.7248535,0.7941284,-0.20269775
1605203404306,2089,-0.58691406,0.82806396,-0.06793213
1605203404307,2090,-0.68359375,0.7057495,0.1906128
1605203404308,2091,-0.68359375,0.7057495,0.1906128
1605203404309,2092,-0.66674805,0.7626343,-0.043273926
1605203404309,2093,-0.58691406,0.82806396,-0.06793213
1605203404311,2094,-0.66674805,0.7626343,-0.043273926
1605203404312,2095,-0.67993164,0.8395386,-0.032287598
1605203404312,2096,-0.68359375,0.7057495,0.1906128
1605203404312,2097,-0.67993164,0.8395386,-0.032287598
1605203404313,2098,-0.60961914,0.66326904,-0.006164551
1605203404315,2099,-0.60961914,0.66326904,-0.006164551
1605203404316,2100,-0.58154297,0.80755615,-0.0335083
1605203404317,2101,-0.58154297,0.80755615,-0.0335083
1605203404317,2102,-0.66674805,0.7626343,-0.043273926
1605203404317,2103,-0.6801758,0.66082764,0.07659912
1605203404318,2104,-0.67993164,0.8395386,-0.032287598
1605203404319,2105,-0.60961914,0.66326904,-0.006164551
1605203404320,2106,-0.98291016,0.67108154,0.11053467
1605203404322,2107,-0.58154297,0.80755615,-0.0335083
1605203404323,2108,-0.6801758,0.66082764,0.07659912
1605203404324,2109,-0.6801758,0.66082764,0.07659912
1605203404324,2110,-0.98291016,0.67108154,0.11053467
1605203404326,2111,-0.98291016,0.67108154,0.11053467
1605203406602,2112,-0.611084,0.7069702,0.059753418
1605203406604,2113,-0.6394043,0.77752686,0.062927246
1605203406608,2114,-0.611084,0.7069702,0.059753418
1605203406613,2115,-0.6394043,0.77752686,0.062927246
1605203406613,2116,-0.67700195,0.6359253,0.1852417
1605203406613,2117,-0.611084,0.7069702,0.059753418
1605203406618,2118,-0.6394043,0.77752686,0.062927246
1605203406618,2119,-0.71728516,0.57318115,0.25042725
1605203406621,2120,-0.67700195,0.6359253,0.1852417
1605203406622,2121,-0.72265625,0.6622925,0.22943115
1605203406625,2122,-0.71728516,0.57318115,0.25042725
1605203406629,2123,-0.59472656,0.79437256,0.24407959
1605203406633,2124,-0.72265625,0.6622925,0.22943115
1605203406636,2125,-0.65405273,0.730896,0.26116943
1605203406640,2126,-0.59472656,0.79437256,0.24407959
1605203406644,2127,-0.6101074,0.98309326,0.121276855
1605203406647,2128,-0.65405273,0.730896,0.26116943
1605203406649,2129,-0.43164062,0.71990967,0.14520264
1605203406649,2130,-0.67700195,0.6359253,0.1852417
1605203406652,2131,-0.6101074,0.98309326,0.121276855
1605203406652,2132,-0.4736328,0.87371826,0.16644287
1605203406655,2133,-0.71728516,0.57318115,0.25042725
1605203406657,2134,-0.5332031,0.80340576,0.18719482
1605203406659,2135,-0.72265625,0.6622925,0.22943115
1605203406661,2136,-0.71069336,0.67962646,0.08685303
1605203406664,2137,-0.59472656,0.79437256,0.24407959
1605203406667,2138,-0.66064453,0.72528076,-0.07281494
1605203406671,2139,-0.65405273,0.730896,0.26116943
1605203406674,2140,-0.78759766,0.8422241,-0.08258057
1605203406677,2141,-0.6101074,0.98309326,0.121276855
1605203406679,2142,-0.62060547,0.70599365,-0.13214111
1605203406682,2143,-0.43164062,0.71990967,0.14520264
1605203406684,2144,-0.6635742,0.6935425,-0.050109863
1605203406685,2145,-0.4736328,0.87371826,0.16644287
1605203406686,2146,-0.7636719,0.75408936,0.059265137
1605203406687,2147,-0.5332031,0.80340576,0.18719482
1605203406688,2148,-0.5852051,0.619812,-0.14776611
1605203406689,2149,-0.71069336,0.67962646,0.08685303
1605203406690,2150,-0.7792969,0.75701904,-0.120666504
1605203406690,2151,-0.66064453,0.72528076,-0.07281494
1605203406691,2152,-0.43164062,0.71990967,0.14520264
1605203406692,2153,-0.78759766,0.8422241,-0.08258057
1605203406693,2154,-0.4736328,0.87371826,0.16644287
1605203406694,2155,-0.62060547,0.70599365,-0.13214111
1605203406695,2156,-0.5332031,0.80340576,0.18719482
1605203406697,2157,-0.71069336,0.67962646,0.08685303
1605203406698,2158,-0.6928711,0.6935425,-0.14337158
1605203406698,2159,-0.6635742,0.6935425,-0.050109863
1605203406698,2160,-0.7636719,0.75408936,0.059265137
1605203406700,2161,-0.66064453,0.72528076,-0.07281494
1605203406701,2162,-0.5852051,0.619812,-0.14776611
1605203406701,2163,-0.78759766,0.8422241,-0.08258057
1605203406702,2164,-0.6750488,0.6403198,-0.14630127
1605203406702,2165,-0.8342285,0.70599365,-0.09576416
1605203406703,2166,-0.7792969,0.75701904,-0.120666504
1605203406705,2167,-0.62060547,0.70599365,-0.13214111
1605203406706,2168,-0.6928711,0.6935425,-0.14337158
1605203406706,2169,-0.7109375,0.7272339,-7.9345703E-4
1605203406708,2170,-0.6635742,0.6935425,-0.050109863
1605203406709,2171,-0.5097656,0.6107788,0.019958496
1605203406710,2172,-0.6750488,0.6403198,-0.14630127
1605203406710,2173,-0.6088867,0.8517456,0.062194824
1605203406711,2174,-0.7636719,0.75408936,0.059265137
1605203406712,2175,-0.8342285,0.70599365,-0.09576416
1605203406712,2176,-0.6677246,0.90448,-0.020080566
1605203406713,2177,-0.5852051,0.619812,-0.14776611
1605203406713,2178,-0.7109375,0.7272339,-7.9345703E-4
1605203406713,2179,-0.7792969,0.75701904,-0.120666504
1605203406713,2180,-0.595459,0.70965576,0.029968262
1605203406713,2181,-0.5097656,0.6107788,0.019958496
1605203406715,2182,-0.6088867,0.8517456,0.062194824
1605203406716,2183,-0.64160156,0.8016968,0.007751465
1605203406716,2184,-0.6928711,0.6935425,-0.14337158
1605203406716,2185,-0.64086914,0.7921753,-0.003479004
1605203406717,2186,-0.6677246,0.90448,-0.020080566
1605203406718,2187,-0.6750488,0.6403198,-0.14630127
1605203406719,2188,-0.48535156,0.774353,-0.003967285
1605203406719,2189,-0.595459,0.70965576,0.029968262
1605203406719,2190,-0.8342285,0.70599365,-0.09576416
1605203406720,2191,-0.64160156,0.8016968,0.007751465
1605203406723,2192,-0.5769043,0.8883667,-0.030334473
1605203406724,2193,-0.7109375,0.7272339,-7.9345703E-4
1605203406724,2194,-0.64086914,0.7921753,-0.003479004
1605203406725,2195,-0.5349121,0.8085327,-0.010559082
1605203406726,2196,-0.5097656,0.6107788,0.019958496
1605203406727,2197,-0.6088867,0.8517456,0.062194824
1605203406728,2198,-0.6677246,0.90448,-0.020080566
1605203406729,2199,-0.48535156,0.774353,-0.003967285
1605203406731,2200,-0.5769043,0.8883667,-0.030334473
1605203406731,2201,-0.5349121,0.8085327,-0.010559082
1605203406732,2202,-0.595459,0.70965576,0.029968262
1605203406733,2203,-0.64160156,0.8016968,0.007751465
1605203406735,2204,-0.64086914,0.7921753,-0.003479004
1605203406736,2205,-0.48535156,0.774353,-0.003967285
1605203406737,2206,-0.5769043,0.8883667,-0.030334473
1605203406742,2207,-0.5349121,0.8085327,-0.010559082
1605203409182,2208,-0.67089844,0.6923218,0.057800293
1605203409182,2209,-0.67089844,0.6923218,0.057800293
1605203409183,2210,-0.67089844,0.6923218,0.057800293
1605203409186,2211,-0.8847656,0.6749878,-0.04156494
1605203409189,2212,-0.8847656,0.6749878,-0.04156494
1605203409191,2213,-0.7104492,0.6828003,-0.15289307
1605203409195,2214,-0.7104492,0.6828003,-0.15289307
1605203409199,2215,-0.79125977,0.6889038,-0.14263916
1605203409202,2216,-0.79125977,0.6889038,-0.14263916
1605203409203,2217,-0.7194824,0.64349365,-0.11846924
1605203409203,2218,-0.8847656,0.6749878,-0.04156494
1605203409203,2219,-0.7194824,0.64349365,-0.11846924
1605203409203,2220,-0.7302246,0.680603,-0.059631348
1605203409207,2221,-0.7104492,0.6828003,-0.15289307
1605203409210,2222,-0.8022461,0.6220093,0.014343262
1605203409214,2223,-0.79125977,0.6889038,-0.14263916
1605203409217,2224,-0.6804199,0.5778198,-0.16949463
1605203409221,2225,-0.7194824,0.64349365,-0.11846924
1605203409221,2226,-0.85302734,0.651062,-0.10748291
1605203409223,2227,-0.7302246,0.680603,-0.059631348
1605203409224,2228,-0.7302246,0.680603,-0.059631348
1605203409227,2229,-0.8022461,0.6220093,0.014343262
1605203409228,2230,-0.8022461,0.6220093,0.014343262
1605203409228,2231,-0.78344727,0.59173584,-0.14581299
1605203409229,2232,-0.6804199,0.5778198,-0.16949463
1605203409229,2233,-0.6804199,0.5778198,-0.16949463
1605203409230,2234,-0.76586914,0.57489014,-0.15020752
1605203409232,2235,-0.85302734,0.651062,-0.10748291
1605203409232,2236,-0.85302734,0.651062,-0.10748291
1605203409233,2237,-0.89038086,0.65911865,0.007507324
1605203409235,2238,-0.78344727,0.59173584,-0.14581299
1605203409236,2239,-0.78344727,0.59173584,-0.14581299
1605203409236,2240,-0.7006836,0.68084717,0.04046631
1605203409236,2241,-0.76586914,0.57489014,-0.15020752
1605203409236,2242,-0.76586914,0.57489014,-0.15020752
1605203409237,2243,-0.6201172,0.7470093,0.035583496
1605203409238,2244,-0.89038086,0.65911865,0.007507324
1605203409239,2245,-0.6843262,0.84710693,0.024841309
1605203409245,2246,-0.7006836,0.68084717,0.04046631
1605203409246,2247,-0.89038086,0.65911865,0.007507324
1605203409246,2248,-0.5666504,0.67108154,0.01776123
1605203409248,2249,-0.6201172,0.7470093,0.035583496
1605203409248,2250,-0.7006836,0.68084717,0.04046631
1605203409250,2251,-0.59643555,0.732605,0.06072998
1605203409250,2252,-0.6843262,0.84710693,0.024841309
1605203409250,2253,-0.6201172,0.7470093,0.035583496
1605203409250,2254,-0.5666504,0.67108154,0.01776123
1605203409251,2255,-0.76586914,0.78289795,0.081970215
1605203409251,2256,-0.59643555,0.732605,0.06072998
1605203409251,2257,-0.5656738,0.79315186,0.011169434
1605203409251,2258,-0.76586914,0.78289795,0.081970215
1605203409251,2259,-0.545166,0.760437,0.12884521
1605203409252,2260,-0.6843262,0.84710693,0.024841309
1605203409252,2261,-0.5656738,0.79315186,0.011169434
1605203409252,2262,-0.50024414,0.75213623,0.18304443
1605203409252,2263,-0.5666504,0.67108154,0.01776123
1605203409252,2264,-0.545166,0.760437,0.12884521
1605203409253,2265,-0.6254883,0.83880615,0.26605225
1605203409253,2266,-0.50024414,0.75213623,0.18304443
1605203409253,2267,-0.6254883,0.83880615,0.26605225
1605203409253,2268,-0.64331055,0.77020264,0.15789795
1605203409254,2269,-0.59643555,0.732605,0.06072998
1605203409254,2270,-0.64331055,0.77020264,0.15789795
1605203409255,2271,-0.701416,0.5116577,0.14544678
1605203409256,2272,-0.76586914,0.78289795,0.081970215
1605203409257,2273,-0.701416,0.5116577,0.14544678
1605203409257,2274,-0.9152832,0.7694702,0.13397217
1605203409257,2275,-0.5656738,0.79315186,0.011169434
1605203409258,2276,-0.9152832,0.7694702,0.13397217
1605203409259,2277,-0.71777344,0.6520386,0.09295654
1605203409259,2278,-0.71777344,0.6520386,0.09295654
1605203409259,2279,-0.545166,0.760437,0.12884521
1605203409261,2280,-0.7487793,0.65838623,0.038269043
1605203409261,2281,-0.50024414,0.75213623,0.18304443
1605203409262,2282,-0.7487793,0.65838623,0.038269043
1605203409262,2283,-0.76293945,0.52264404,-0.008850098
1605203409266,2284,-0.6254883,0.83880615,0.26605225
1605203409274,2285,-0.7207031,0.4701538,0.15667725
1605203409274,2286,-0.76293945,0.52264404,-0.008850098
1605203409274,2287,-0.64331055,0.77020264,0.15789795
1605203409274,2288,-0.82055664,0.62298584,0.109069824
1605203409274,2289,-0.7207031,0.4701538,0.15667725
1605203409274,2290,-0.75878906,0.96502686,-0.032287598
1605203409275,2291,-0.82055664,0.62298584,0.109069824
1605203409275,2292,-0.701416,0.5116577,0.14544678
1605203409277,2293,-0.5925293,0.7037964,-0.034484863
1605203409277,2294,-0.75878906,0.96502686,-0.032287598
1605203409279,2295,-0.9152832,0.7694702,0.13397217
1605203409281,2296,-0.5925293,0.7037964,-0.034484863
1605203409281,2297,-0.71777344,0.6520386,0.09295654
1605203409281,2298,-0.7487793,0.65838623,0.038269043
1605203409282,2299,-0.76293945,0.52264404,-0.008850098
1605203409283,2300,-0.7207031,0.4701538,0.15667725
1605203409284,2301,-0.82055664,0.62298584,0.109069824
1605203409285,2302,-0.75878906,0.96502686,-0.032287598
