# Sensor position: Front pocket (trouser)
# Sensor side: Left
# Activity type: Movement
# Activity code: 9
# Subject id: s1660711
timestamp,seq,accel_x,accel_y,accel_z
1603053639558,0,-0.23754883,-1.0144653,0.08807373
1603053639560,1,0.04663086,-1.00177,0.1486206
1603053639561,2,-0.1953125,-1.0112915,0.101257324
1603053639561,3,-0.20727539,-1.0108032,0.04168701
1603053639562,4,-0.03173828,-1.0933228,0.05999756
1603053639563,5,-0.16503906,-1.0735474,0.07098389
1603053639564,6,-0.15893555,-1.0344849,-0.06427002
1603053639564,7,-0.23217773,-1.0149536,-0.11529541
1603053639565,8,-0.14208984,-1.0811157,-0.08404541
1603053639566,9,-0.21923828,-1.0071411,-0.18780518
1603053639567,10,-0.3161621,-0.9907837,-0.22296143
1603053639569,11,-0.26123047,-0.9951782,-0.25030518
1603053639571,12,-0.2475586,-1.0142212,-0.18878174
1603053639572,13,-0.30615234,-1.0171509,-0.206604
1603053639573,14,-0.31518555,-0.989563,-0.22515869
1603053639575,15,-0.26611328,-1.0112915,-0.21148682
1603053639576,16,-0.2541504,-1.0239868,-0.1987915
1603053639577,17,-0.27783203,-0.9985962,-0.22540283
1603053639579,18,-0.19799805,-1.0088501,-0.19488525
1603053639579,19,-0.23608398,-1.0271606,-0.1741333
1603053639580,20,-0.23803711,-1.0134888,-0.15924072
1603053639581,21,-0.17651367,-1.024231,-0.12750244
1603053639582,22,-0.21972656,-1.0286255,-0.124816895
1603053639583,23,-0.17749023,-1.0513306,-0.0791626
1603053639585,24,-0.16015625,-1.0474243,-0.049621582
1603053639590,25,-0.16455078,-1.0479126,-0.03692627
1603053639591,26,-0.171875,-1.0357056,-0.03741455
1603053639591,27,-0.17749023,-1.0481567,0.007507324
1603053639592,28,-0.14648438,-1.0403442,0.05316162
1603053639593,29,-0.13769531,-1.0303345,0.058776855
1603053639596,30,-0.16333008,-1.0310669,0.08660889
1603053639597,31,-0.18139648,-1.0327759,0.117126465
1603053641905,32,-0.18359375,-1.0335083,0.1515503
1603053641907,33,-0.14746094,-1.0408325,0.17181396
1603053641909,34,-0.14404297,-1.02594,0.14544678
1603053641915,35,-0.15478516,-1.0269165,0.20233154
1603053641915,36,-0.13500977,-0.9710083,0.22381592
1603053641917,37,-0.10595703,-0.9607544,0.21844482
1603053641918,38,-0.23901367,-0.96221924,0.19940186
1603053641922,39,-0.1694336,-0.9907837,0.30975342
1603053641930,40,-0.1953125,-0.9859009,0.30462646
1603053641930,41,-0.23388672,-0.9763794,0.2662964
1603053641931,42,-0.24438477,-0.9451294,0.26849365
1603053641932,43,-0.27490234,-0.972229,0.29559326
1603053641933,44,-0.19018555,-1.085022,0.37200928
1603053641936,45,-0.11035156,-0.9985962,0.18499756
1603053641941,46,-0.24169922,-0.99005127,0.036315918
1603053641943,47,-0.25830078,-1.0147095,-0.062316895
1603053641944,48,-0.29785156,-1.0215454,-0.074523926
1603053641947,49,-0.3815918,-1.0029907,-0.116760254
1603053641948,50,-0.2998047,-0.98638916,-0.13946533
1603053641952,51,-0.41430664,-0.9714966,-0.19244385
1603053641954,52,-0.20629883,-1.0613403,-0.06085205
1603053641956,53,-0.14892578,-1.0315552,-0.14849854
1603053641957,54,-0.33374023,-0.9507446,-0.29449463
1603053641958,55,-0.23168945,-1.0344849,-0.18804932
1603053641961,56,-0.36108398,-1.0073853,-0.14898682
1603053641962,57,-0.43066406,-1.0405884,-0.1843872
1603053641964,58,-0.092041016,-1.2766724,-0.07965088
1603053641965,59,-0.23120117,-1.1599731,-0.09136963
1603053641966,60,-0.125,-1.2546997,-0.19708252
1603053641969,61,-0.21777344,-0.9373169,-0.054748535
1603053641970,62,-0.3330078,-0.75616455,-0.028869629
1603053641971,63,-0.051513672,-0.692688,0.06854248
1603053644438,64,-0.5307617,-1.052063,0.46673584
1603053644443,65,-0.56640625,-1.0064087,0.41351318
1603053644444,66,-0.25463867,-1.0562134,0.019226074
1603053644451,67,0.17529297,-1.003479,-0.008605957
1603053644454,68,-0.6777344,-1.0222778,-0.270813
1603053644457,69,-0.23657227,-0.98638916,-0.07354736
1603053644459,70,-0.3564453,-0.98760986,-0.17364502
1603053644461,71,-0.41625977,-0.95806885,-0.1687622
1603053644463,72,-0.2409668,-0.99542236,-0.10845947
1603053644466,73,-0.4807129,-0.9924927,-0.16217041
1603053644471,74,-0.4428711,-1.140686,-0.18804932
1603053644475,75,-0.2397461,-1.2832642,0.059753418
1603053644475,76,-0.18823242,-1.0745239,-0.25787354
1603053644476,77,-0.26953125,-1.2715454,-0.13214111
1603053644478,78,-0.2175293,-0.9973755,-0.028137207
1603053644480,79,-0.1977539,-0.6980591,-0.062805176
1603053644482,80,-0.009277344,-0.60772705,0.023376465
1603053644485,81,-0.5292969,-1.1814575,0.6654663
1603053644488,82,-0.31079102,-1.1057739,0.432312
1603053644493,83,-0.27246094,-1.1226196,0.0060424805
1603053644495,84,0.055908203,-0.9126587,-0.22052002
1603053644496,85,-0.579834,-1.022522,-0.20587158
1603053644498,86,-0.19726562,-0.99224854,-0.112854004
1603053644500,87,-0.4230957,-0.92437744,-0.29278564
1603053644501,88,-0.44555664,-0.99468994,-0.08770752
1603053644503,89,-0.31274414,-1.0730591,-0.049621582
1603053644504,90,-0.5258789,-1.0508423,-0.26617432
1603053644506,91,-0.4350586,-1.2822876,0.09539795
1603053644507,92,-0.10644531,-1.194397,-0.34649658
1603053644511,93,-0.4165039,-1.3008423,-0.13043213
1603053644511,94,-0.15649414,-0.97320557,-0.17730713
1603053644511,95,-0.067871094,-0.6084595,-0.10797119
1603053647552,96,-0.052001953,-0.5750122,0.031677246
1603053647554,97,-0.8342285,-1.3303833,0.7909546
1603053647555,98,-0.071777344,-1.1477661,0.21234131
1603053647555,99,-0.18359375,-0.96539307,-0.05670166
1603053647558,100,-0.35229492,-0.99298096,-0.36431885
1603053647559,101,-0.44799805,-0.94903564,-0.093322754
1603053647561,102,-0.15014648,-1.0332642,-0.10772705
1603053647562,103,-0.38916016,-0.8999634,-0.23077393
1603053647563,104,-0.4621582,-1.029602,-0.03741455
1603053647565,105,-0.40722656,-1.142395,-0.1362915
1603053647566,106,-0.59155273,-1.222229,0.05706787
1603053647567,107,-0.21386719,-1.1409302,-0.25982666
1603053647568,108,-0.2980957,-1.2974243,-0.19317627
1603053647569,109,-0.18432617,-0.95513916,-0.093322754
1603053647570,110,-0.23120117,-0.75201416,-0.10650635
1603053647573,111,2.4414062E-4,-0.74468994,0.046569824
1603053647573,112,-0.4855957,-1.0925903,0.5934448
1603053647575,113,-0.47094727,-1.0379028,0.23651123
1603053647576,114,-0.17382812,-1.1643677,-0.023742676
1603053647577,115,-0.24438477,-0.9578247,-0.3057251
1603053647578,116,-0.5209961,-1.0071411,-0.061340332
1603053647579,117,-0.30395508,-1.0083618,-0.058166504
1603053647580,118,-0.5004883,-0.96417236,-0.034729004
1603053647580,119,-0.36279297,-1.0117798,0.17156982
1603053647581,120,-0.30810547,-1.071106,-0.054260254
1603053647583,121,-0.41333008,-1.111145,0.040222168
1603053647584,122,-0.22729492,-1.0747681,0.08709717
1603053647585,123,-0.14916992,-0.9866333,0.066589355
1603053647585,124,-0.25683594,-0.8772583,0.023132324
1603053647586,125,-0.35205078,-0.93829346,0.13763428
1603053647589,126,-0.15429688,-0.96417236,0.2062378
1603053647589,127,-0.2397461,-1.0549927,0.11077881
1603053649702,128,-0.17211914,-1.1133423,0.105407715
1603053649703,129,-0.21557617,-1.06427,0.1083374
1603053649705,130,-0.1694336,-1.0674438,-0.050109863
1603053649707,131,-0.07861328,-1.0584106,0.038269043
1603053649709,132,-0.13330078,-1.0049438,0.0446167
1603053649711,133,-0.123291016,-1.0337524,0.051208496
1603053649713,134,-0.0061035156,-1.0525513,0.12225342
1603053649716,135,-0.12792969,-1.0027466,0.0368042
1603053649718,136,-0.10424805,-1.0046997,-0.0068969727
1603053649721,137,-0.08642578,-1.0303345,0.08123779
1603053649724,138,-0.18164062,-1.0322876,0.105163574
1603053649728,139,-0.20727539,-1.065979,0.1395874
1603053649729,140,-0.14990234,-1.0479126,-0.117004395
1603053649731,141,-0.6484375,-0.93707275,-0.15509033
1603053649731,142,-0.21875,-1.0767212,-0.18121338
1603053649732,143,-0.31201172,-0.9685669,-0.20220947
1603053649733,144,-0.44677734,-0.9446411,-0.23248291
1603053649734,145,-0.31298828,-0.98638916,-0.11627197
1603053649734,146,-0.52783203,-0.9619751,-0.21759033
1603053649735,147,-0.5241699,-1.067688,-0.055725098
1603053649739,148,-0.3022461,-1.187561,0.08856201
1603053649741,149,-4.8828125E-4,-1.1709595,-0.09210205
1603053649742,150,-0.056152344,-1.260315,-0.128479
1603053649743,151,-0.10449219,-0.9968872,0.0099487305
1603053649744,152,-0.31713867,-0.8147583,0.06781006
1603053649747,153,-0.16088867,-0.69195557,0.097839355
1603053649749,154,-0.28930664,-1.0142212,0.6625366
1603053649751,155,-0.12182617,-1.0484009,0.5765991
1603053649752,156,-0.26489258,-0.94000244,-0.11212158
1603053649754,157,-0.1652832,-1.0471802,-0.0791626
1603053649755,158,-0.49047852,-1.0042114,-0.18658447
1603053649756,159,-0.23291016,-1.0095825,-0.12701416
1603053652235,160,-0.38793945,-0.94000244,-0.18878174
1603053652237,161,-0.45385742,-0.95440674,-0.15826416
1603053652240,162,-0.4885254,-1.0261841,-0.028137207
1603053652243,163,-0.642334,-1.1565552,-0.1260376
1603053652246,164,-0.24267578,-1.319397,0.15838623
1603053652249,165,-0.21557617,-1.1980591,-0.3508911
1603053652251,166,-0.12841797,-1.2600708,-0.0017700195
1603053652253,167,-0.2602539,-0.7756958,-0.039123535
1603053652255,168,-0.1899414,-0.55841064,-0.08526611
1603053652258,169,-0.27270508,-0.8460083,0.32537842
1603053652262,170,-0.45141602,-1.1731567,0.8522339
1603053652264,171,-0.17578125,-1.0996704,-0.121154785
1603053652267,172,-0.24536133,-0.960022,-0.10357666
1603053652267,173,-0.54589844,-0.97540283,-0.2107544
1603053652273,174,-0.24487305,-0.9834595,-0.08868408
1603053652273,175,-0.37939453,-0.91119385,-0.1921997
1603053652274,176,-0.41992188,-0.97979736,-0.08892822
1603053652280,177,-0.4790039,-1.0703735,-0.030822754
1603053652281,178,-0.6437988,-1.1607056,-0.06060791
1603053652283,179,-0.27856445,-1.2744751,-0.0413208
1603053652283,180,-0.11254883,-1.4639282,-0.17340088
1603053652286,181,-0.22485352,-1.0066528,-0.070129395
1603053652291,182,-0.22558594,-0.7036743,-0.04425049
1603053652291,183,-0.043945312,-0.51275635,-3.0517578E-4
1603053652293,184,-0.6003418,-1.1565552,0.6691284
1603053652294,185,-0.24243164,-1.0315552,0.56170654
1603053652294,186,-0.3413086,-1.0696411,-0.19854736
1603053652295,187,-0.047851562,-0.9854126,-0.3027954
1603053652299,188,-0.50439453,-0.97369385,-0.2197876
1603053652299,189,-0.4494629,-0.9678345,-0.13165283
1603053652299,190,-0.5522461,-0.8921509,-0.28912354
1603053652300,191,-0.38305664,-1.0222778,-0.043029785
1603053654584,192,-0.63964844,-1.0664673,-0.061584473
1603053654590,193,-0.45141602,-1.2901001,0.1305542
1603053654592,194,-0.30688477,-1.3755493,-0.333313
1603053654595,195,-0.0769043,-1.4133911,-0.11846924
1603053654597,196,-0.29907227,-0.72125244,-0.10235596
1603053654600,197,-0.14135742,-0.47320557,-0.1663208
1603053654602,198,-0.21386719,-0.74713135,0.2399292
1603053654605,199,-0.6623535,-1.2163696,0.887146
1603053654607,200,-0.2109375,-1.1765747,-0.15899658
1603053654610,201,-0.083984375,-0.95758057,-0.15802002
1603053654612,202,-0.5463867,-0.99224854,-0.23980713
1603053654613,203,-0.34301758,-0.95880127,-0.07525635
1603053654614,204,-0.4091797,-0.9212036,-0.1975708
1603053654615,205,-0.63623047,-0.95147705,-0.010314941
1603053654617,206,-0.53393555,-1.1292114,0.040222168
1603053654620,207,-0.66308594,-1.2598267,0.1071167
1603053654621,208,-0.31347656,-1.2022095,-0.37530518
1603053654623,209,-0.2331543,-1.409729,-0.19488525
1603053654624,210,-0.32714844,-0.80133057,-0.101867676
1603053654625,211,-0.091552734,-0.55718994,-0.20928955
1603053654626,212,-0.30615234,-0.96661377,0.14593506
1603053654628,213,0.024902344,-1.4053345,0.46746826
1603053654631,214,-0.623291,-1.0996704,-0.14361572
1603053654632,215,-0.37402344,-0.95147705,-0.2732544
1603053654633,216,-0.26123047,-1.0354614,0.0040893555
1603053654635,217,-0.21899414,-1.0300903,-0.035461426
1603053654636,218,-0.31982422,-1.0217896,0.026062012
1603053654638,219,-0.39575195,-0.9854126,0.124694824
1603053654640,220,-0.46728516,-0.9414673,0.105163574
1603053654641,221,-0.36914062,-0.9338989,0.07684326
1603053654643,222,-0.3046875,-1.0667114,0.16693115
1603053654644,223,-0.14331055,-1.071106,0.30413818
1603053657506,224,-0.18579102,-1.0217896,0.35662842
1603053657509,225,-0.4909668,-0.84332275,0.33172607
1603053657514,226,-0.40014648,-0.8213501,0.1437378
1603053657516,227,-0.32861328,-0.9299927,0.38006592
1603053657517,228,-0.15429688,-1.0105591,0.3607788
1603053657522,229,-0.3251953,-1.0393677,0.293396
1603053657525,230,-0.38330078,-0.92755127,0.23358154
1603053657541,231,-0.35961914,-0.90704346,0.2970581
1603053657541,232,-0.25854492,-0.8689575,0.36883545
1603053657542,233,-0.33935547,-0.8167114,0.32684326
1603053657542,234,-0.5949707,-1.1607056,0.28729248
1603053657545,235,0.0036621094,-0.94732666,-0.08258057
1603053657545,236,-0.592041,-1.0056763,-0.23345947
1603053657552,237,-0.50878906,-0.97735596,-0.094055176
1603053657554,238,-0.23608398,-1.0159302,-0.055236816
1603053657554,239,-0.4128418,-0.92559814,-0.16729736
1603053657557,240,-0.46484375,-0.9578247,-0.13482666
1603053657558,241,-0.29541016,-1.0269165,-0.05255127
1603053657560,242,-0.48901367,-1.0388794,-0.20196533
1603053657561,243,-0.50634766,-1.1973267,-0.04498291
1603053657562,244,-0.059570312,-1.1790161,-0.10772705
1603053657569,245,-0.068359375,-1.2000122,-0.090148926
1603053657569,246,-0.2043457,-1.0005493,-0.016662598
1603053657569,247,-0.296875,-0.88116455,-0.020080566
1603053657570,248,-0.13134766,-0.7659302,-0.016662598
1603053657572,249,-0.20996094,-0.87994385,0.22796631
1603053657573,250,-0.4267578,-1.1399536,0.5475464
1603053657574,251,-0.057128906,-1.1611938,0.23431396
1603053657575,252,-0.20947266,-0.9890747,0.11199951
1603053657576,253,-0.532959,-0.90582275,-0.18463135
1603053657577,254,-0.68066406,-0.88897705,-0.08868408
1603053657578,255,-0.3959961,-1.0049438,-0.0491333
1603053660428,256,-0.31225586,-1.0137329,-0.07965088
1603053660432,257,-0.46020508,-0.95513916,-0.13848877
1603053660435,258,-0.31030273,-0.9871216,-0.16290283
1603053660438,259,-0.25073242,-1.0127563,-0.16217041
1603053660443,260,-0.42089844,-0.9907837,-0.14239502
1603053660446,261,-0.5114746,-1.0393677,-0.128479
1603053660450,262,-0.49243164,-1.1135864,0.047546387
1603053660452,263,-0.39672852,-0.975647,-0.0015258789
1603053660454,264,-0.26660156,-1.1865845,-0.18585205
1603053660456,265,-0.4243164,-1.1028442,-0.029846191
1603053660459,266,-0.2565918,-0.9956665,-0.018859863
1603053660462,267,0.030029297,-0.802063,0.08441162
1603053660463,268,-0.10986328,-0.9221802,0.3834839
1603053660464,269,-0.48876953,-0.972229,0.3427124
1603053660465,270,-0.4597168,-1.1936646,0.2074585
1603053660467,271,0.16699219,-0.98150635,-0.13580322
1603053660469,272,-0.58374023,-1.0410767,-0.1807251
1603053660471,273,-0.34301758,-0.99664307,-0.089904785
1603053660473,274,-0.42089844,-0.96173096,-0.08062744
1603053660481,275,-0.45410156,-0.95684814,-0.062561035
1603053660481,276,-0.48950195,-0.89434814,-0.050109863
1603053660482,277,-0.4465332,-0.9763794,-0.17266846
1603053660482,278,-0.31176758,-1.203186,-0.08404541
1603053660482,279,-0.07543945,-1.34552,0.12030029
1603053660484,280,0.22973633,-1.1350708,0.12738037
1603053660486,281,-0.18969727,-0.97052,0.13543701
1603053660488,282,-0.12426758,-0.8496704,0.18548584
1603053660492,283,0.08984375,-0.94659424,0.246521
1603053660493,284,0.2861328,-0.9968872,0.25335693
1603053660494,285,0.024658203,-0.9456177,0.21380615
1603053660496,286,0.10668945,-1.0151978,0.11590576
1603053660496,287,0.17407227,-0.95269775,0.09515381
1603053662371,288,0.18823242,-0.9907837,0.005554199
1603053662372,289,0.24951172,-1.0291138,0.018005371
1603053662375,290,0.2692871,-0.9885864,0.022155762
1603053662377,291,0.171875,-1.005188,-0.0049438477
1603053662379,292,0.31933594,-1.0828247,0.08905029
1603053662381,293,0.26733398,-1.0996704,0.19622803
1603053662382,294,0.14404297,-1.046936,0.21136475
1603053662384,295,0.21240234,-1.1189575,0.09100342
1603053662386,296,0.2758789,-0.7605591,0.10345459
1603053662387,297,0.1328125,-0.84088135,0.0053100586
1603053662389,298,0.29614258,-0.99298096,0.34832764
1603053662391,299,0.17651367,-0.9182739,0.2538452
1603053662391,300,0.16479492,-1.0059204,0.14007568
1603053662393,301,0.15795898,-0.94488525,0.22381592
1603053662394,302,0.060791016,-1.0371704,0.15789795
1603053662395,303,0.0793457,-1.0784302,0.082458496
1603053662396,304,0.0078125,-1.0352173,0.113708496
1603053662399,305,0.123046875,-1.0767212,0.018005371
1603053662401,306,0.03857422,-1.1221313,0.020690918
1603053662402,307,-0.014892578,-1.0657349,-0.008361816
1603053662403,308,-0.09838867,-1.0198364,0.042175293
1603053662403,309,-0.006591797,-1.0703735,0.04949951
1603053662405,310,0.005859375,-1.015686,0.044128418
1603053662406,311,0.0234375,-1.0918579,0.043884277
1603053662407,312,0.030761719,-1.0601196,0.0446167
1603053662410,313,7.324219E-4,-1.0274048,0.042419434
1603053662410,314,-0.026123047,-1.0332642,0.05316162
1603053662411,315,-0.032470703,-1.0376587,0.05340576
1603053662412,316,-0.01171875,-1.0269165,0.08441162
1603053662412,317,-0.0078125,-1.06427,0.036071777
1603053662413,318,0.06347656,-1.0701294,0.030456543
1603053662414,319,0.025634766,-1.0427856,0.036315918
1603053665106,320,-0.028564453,-1.0361938,0.053649902
1603053665109,321,-0.012939453,-1.0466919,0.06781006
1603053665113,322,0.0063476562,-1.0278931,0.06878662
1603053665117,323,-0.03125,-1.0386353,0.078063965
1603053665119,324,-0.01953125,-1.0425415,0.08709717
1603053665121,325,-0.011474609,-1.039856,0.074157715
1603053665124,326,0.001953125,-1.0418091,0.06951904
1603053665127,327,0.0,-1.0501099,0.055847168
1603053665133,328,0.012939453,-1.0420532,0.05316162
1603053665138,329,0.009521484,-1.0376587,0.050476074
1603053665140,330,-0.015136719,-1.0466919,0.07611084
1603053665142,331,-0.045166016,-1.0493774,0.09515381
1603053665143,332,-0.0146484375,-1.0518188,0.06121826
1603053665147,333,0.061767578,-1.0740356,0.06707764
1603053665147,334,0.119140625,-1.0303345,0.004333496
1603053665148,335,0.07446289,-1.0476685,0.0014038086
1603053665151,336,-0.0107421875,-0.9990845,0.12664795
1603053665154,337,-0.024414062,-1.0178833,0.13983154
1603053665157,338,-0.10546875,-0.9824829,0.13348389
1603053665159,339,-0.16967773,-0.97735596,0.07171631
1603053665163,340,-0.29467773,-0.9795532,0.13470459
1603053665164,341,-0.41210938,-1.071106,0.37908936
1603053665165,342,-0.04638672,-0.9573364,-0.024963379
1603053665167,343,-0.6513672,-1.0681763,-0.09088135
1603053665169,344,-0.44921875,-0.9849243,-0.2234497
1603053665170,345,-0.40161133,-0.97003174,-0.11529541
1603053665172,346,-0.43603516,-0.99298096,-0.07598877
1603053665174,347,-0.36376953,-0.98516846,-0.02520752
1603053665178,348,-0.6496582,-0.8892212,0.017028809
1603053665178,349,-0.5593262,-1.2749634,0.18865967
1603053665179,350,0.12915039,-1.4954224,0.01727295
1603053665181,351,-0.053466797,-1.180481,-0.13336182
1603053667443,352,-0.27856445,-0.8167114,0.0848999
1603053667444,353,-0.27978516,-0.7366333,0.14422607
1603053667446,354,-0.18676758,-0.7007446,0.16351318
1603053667447,355,-0.29956055,-0.9168091,0.6798706
1603053667450,356,-0.35791016,-1.0166626,0.75775146
1603053667451,357,-0.26831055,-0.9336548,-0.16705322
1603053667455,358,-0.2783203,-1.0505981,-0.08355713
1603053667460,359,-0.5852051,-0.9976196,-0.19073486
1603053667462,360,-0.27734375,-0.99224854,-0.09136963
1603053667464,361,-0.46533203,-0.9356079,-0.06304932
1603053667466,362,-0.44213867,-0.9500122,-0.117492676
1603053667471,363,-0.2602539,-0.9973755,-0.3267212
1603053667471,364,-0.3408203,-0.9434204,-0.38702393
1603053667472,365,-0.30493164,-0.99420166,-0.36236572
1603053667475,366,-0.29736328,-0.92974854,-0.41241455
1603053667477,367,-0.3166504,-0.9558716,-0.30889893
1603053667479,368,-0.28588867,-0.89923096,-0.38043213
1603053667481,369,-0.23999023,-1.046936,-0.29400635
1603053667483,370,-0.3791504,-1.0025024,-0.2913208
1603053667485,371,-0.41748047,-1.0325317,-0.28863525
1603053667485,372,-0.24731445,-1.2063599,-0.12335205
1603053667486,373,-0.16064453,-1.1621704,-0.12872314
1603053667487,374,-0.17553711,-1.3533325,-0.16070557
1603053667488,375,-0.39282227,-1.1253052,-0.054260254
1603053667489,376,-0.23706055,-0.6709595,-0.039611816
1603053667489,377,-0.10205078,-0.34332275,-0.044006348
1603053667492,378,-0.5319824,-0.9990845,0.7333374
1603053667492,379,-0.4814453,-1.5286255,0.5516968
1603053667493,380,0.28344727,-0.59454346,-0.2263794
1603053667494,381,-0.6582031,-1.1863403,-0.21124268
1603053667496,382,-0.40185547,-0.96588135,-0.15411377
1603053667497,383,-0.29418945,-1.00177,-0.097717285
1603053669988,384,-0.2800293,-0.9277954,-0.18389893
1603053669990,385,-0.638916,-0.9714966,-0.023742676
1603053669998,386,-0.53759766,-1.25177,-0.004699707
1603053670004,387,-0.5883789,-1.1397095,-0.043762207
1603053670006,388,-0.32226562,-1.1843872,-0.29327393
1603053670009,389,-0.47045898,-1.2234497,-0.22418213
1603053670014,390,-0.43115234,-0.864563,-0.23052979
1603053670016,391,0.107666016,-0.7041626,-0.21661377
1603053670018,392,0.12426758,-0.9456177,0.22821045
1603053670021,393,-0.8383789,-1.2254028,0.70111084
1603053670027,394,-0.35839844,-1.1470337,-0.19317627
1603053670031,395,0.2199707,-0.90216064,-0.08428955
1603053670035,396,-0.7441406,-1.0220337,-0.26519775
1603053670040,397,-0.3557129,-0.9758911,-0.13604736
1603053670046,398,-0.19335938,-0.9727173,-0.14093018
1603053670047,399,-0.3684082,-0.9507446,-0.105285645
1603053670050,400,-0.5493164,-1.2075806,0.12738037
1603053670051,401,-0.7722168,-1.1699829,0.10638428
1603053670053,402,-0.4958496,-1.1528931,-0.42144775
1603053670053,403,-0.4013672,-1.3452759,-0.2810669
1603053670056,404,-0.39697266,-0.9649048,-0.19122314
1603053670057,405,0.107910156,-0.6560669,-0.2053833
1603053670059,406,0.11621094,-0.739563,0.055847168
1603053670061,407,-0.7988281,-1.3833618,0.78704834
1603053670061,408,-0.25634766,-1.1340942,-0.0095825195
1603053670063,409,-0.10180664,-0.8340454,-0.0015258789
1603053670064,410,-0.54003906,-1.0315552,-0.26055908
1603053670066,411,-0.4650879,-0.95684814,-0.112854004
1603053670067,412,-0.20117188,-0.97784424,-0.1519165
1603053670068,413,-0.29296875,-0.97540283,-0.17218018
1603053670070,414,-0.5859375,-1.0122681,-0.0037231445
1603053670073,415,-0.56469727,-1.2005005,-0.066711426
1603053672713,416,-0.5246582,-1.1294556,0.022644043
1603053672715,417,-0.33496094,-1.2781372,-0.2786255
1603053672716,418,-0.33618164,-1.2571411,-0.15167236
1603053672718,419,-0.26489258,-0.75006104,-0.13970947
1603053672721,420,0.109375,-0.5745239,-0.12213135
1603053672722,421,-0.33398438,-1.1802368,0.5180054
1603053672724,422,-0.532959,-0.9866333,0.57147217
1603053672726,423,-0.44140625,-1.1387329,-0.21612549
1603053672727,424,0.2277832,-0.97125244,-0.07183838
1603053672731,425,-0.7470703,-0.92681885,-0.27960205
1603053672733,426,-0.3803711,-1.0149536,-0.1375122
1603053672736,427,-0.29077148,-0.91485596,-0.16705322
1603053672738,428,-0.43359375,-0.9746704,-0.15704346
1603053672740,429,-0.6081543,-1.0003052,-0.070373535
1603053672743,430,-0.57421875,-1.2730103,0.1942749
1603053672744,431,-0.03930664,-1.4216919,-0.38067627
1603053672748,432,-0.103515625,-1.3779907,-0.035949707
1603053672749,433,-0.23901367,-0.74835205,-0.030822754
1603053672752,434,-0.19506836,-0.5454712,-0.08648682
1603053672754,435,-0.21923828,-0.7036743,0.19085693
1603053672755,436,-0.73535156,-1.2695923,0.9393921
1603053672757,437,-0.047607422,-1.2554321,0.00579834
1603053672758,438,-0.39526367,-0.86553955,-0.29644775
1603053672761,439,-0.29418945,-1.0496216,-0.1651001
1603053672762,440,-0.33374023,-0.9558716,-0.13848877
1603053672763,441,-0.40161133,-0.96759033,-0.22076416
1603053672764,442,-0.44262695,-0.91534424,-0.18927002
1603053672766,443,-0.35327148,-0.98760986,-0.17266846
1603053672768,444,-0.43774414,-1.2529907,-0.378479
1603053672770,445,0.14624023,-1.2593384,-0.045715332
1603053672771,446,0.21240234,-0.96832275,-0.29229736
1603053672772,447,-0.26953125,-0.85528564,0.010681152
1603053675064,448,-0.13134766,-0.9776001,-0.21173096
1603053675070,449,-0.052978516,-1.0366821,0.13787842
1603053675071,450,0.036621094,-1.0708618,0.008728027
1603053675073,451,-0.079833984,-1.0559692,-0.0960083
1603053675075,452,-0.041503906,-1.0542603,-0.06744385
1603053675077,453,-0.04736328,-1.0371704,-0.034973145
1603053675087,454,-0.014404297,-1.0637817,-0.061828613
1603053675091,455,-0.110839844,-1.0440063,-0.09552002
1603053675093,456,-0.060302734,-1.0227661,-0.07281494
1603053675095,457,-0.030029297,-1.0584106,-0.066467285
1603053675095,458,-0.02709961,-1.0552368,-0.05718994
1603053675097,459,-0.08666992,-1.038147,-0.043273926
1603053675098,460,-0.13769531,-1.0601196,0.0099487305
1603053675102,461,-0.09106445,-0.9871216,0.005554199
1603053675104,462,-0.11621094,-0.98687744,0.019470215
1603053675105,463,-0.18286133,-0.93292236,-0.113586426
1603053675107,464,-0.026123047,-1.1983032,-0.22149658
1603053675110,465,-0.43017578,-1.1143188,0.06536865
1603053675114,466,-0.38305664,-0.92315674,-0.28692627
1603053675115,467,-0.49951172,-0.9854126,-0.1350708
1603053675117,468,-0.38305664,-0.989563,-0.07183838
1603053675119,469,-0.47631836,-0.9751587,-0.17120361
1603053675121,470,-0.40014648,-0.9890747,-0.17144775
1603053675123,471,-0.49194336,-0.9771118,-0.29034424
1603053675125,472,-0.2487793,-0.9907837,-0.26885986
1603053675126,473,-0.29125977,-0.9380493,-0.27398682
1603053675127,474,-0.21240234,-1.0708618,0.046569824
1603053675129,475,-0.39770508,-1.1050415,0.31976318
1603053675131,476,-0.41430664,-1.0095825,0.047546387
1603053675133,477,-0.37329102,-1.0569458,-0.06964111
1603053675134,478,-0.25634766,-0.98272705,-0.08917236
1603053675135,479,-0.3232422,-0.99957275,-0.0115356445
1603053677783,480,-0.28857422,-0.958313,-0.026428223
1603053677785,481,-0.28027344,-0.99591064,0.15252686
1603053677788,482,-0.3215332,-0.9859009,0.1449585
1603053677795,483,-0.13891602,-1.2224731,0.09686279
1603053677800,484,-0.26831055,-0.9314575,-0.09844971
1603053677804,485,-0.6621094,-0.9495239,-0.1416626
1603053677805,486,-0.21899414,-1.0515747,-0.13287354
1603053677806,487,-0.25170898,-1.0046997,-0.13018799
1603053677811,488,-0.39648438,-0.98638916,-0.14337158
1603053677812,489,-0.35913086,-0.98150635,-0.20196533
1603053677814,490,-0.36035156,-1.0264282,-0.12335205
1603053677817,491,-0.36694336,-1.0344849,-0.19415283
1603053677821,492,-0.16137695,-1.0899048,-0.11407471
1603053677824,493,-0.2006836,-1.0606079,-0.11016846
1603053677826,494,-0.15332031,-1.0181274,-0.10211182
1603053677829,495,-0.044921875,-1.0317993,-0.1494751
1603053677832,496,-0.11035156,-1.0203247,-0.097717285
1603053677835,497,-0.14648438,-1.0359497,-0.022033691
1603053677838,498,-0.21166992,-1.0088501,-0.010314941
1603053677839,499,-0.08691406,-0.97906494,-0.20806885
1603053677841,500,-0.006591797,-1.0335083,-0.13482666
1603053677842,501,-0.106933594,-1.0369263,-0.29205322
1603053677847,502,-0.16015625,-0.9854126,-0.26275635
1603053677847,503,-0.2939453,-1.1067505,-0.17681885
1603053677849,504,-0.45458984,-0.94073486,-0.28302002
1603053677850,505,-0.39770508,-1.0508423,-0.17803955
1603053677852,506,-0.34448242,-0.9209595,-0.32647705
1603053677853,507,-0.2709961,-0.97076416,-0.3250122
1603053677856,508,-0.296875,-1.0046997,-0.26568604
1603053677856,509,-0.43945312,-0.92559814,-0.40631104
1603053677858,510,-0.31103516,-0.8945923,-0.45269775
1603053677859,511,-0.2043457,-0.960022,-0.3423462
1603053680123,512,-0.23242188,-1.0562134,-0.16583252
1603053680125,513,-0.37353516,-1.1311646,0.055847168
1603053680126,514,-0.27294922,-1.1694946,0.04827881
1603053680129,515,-0.13549805,-1.1453247,-0.032287598
1603053680132,516,-0.4309082,-0.880188,-0.23223877
1603053680134,517,-0.38110352,-1.0007935,-0.058654785
1603053680138,518,-0.15551758,-0.9673462,-0.016174316
1603053680140,519,-0.18457031,-0.9578247,0.19036865
1603053680142,520,-0.34204102,-1.029602,0.27850342
1603053680145,521,-0.08862305,-1.1577759,0.14251709
1603053680151,522,-0.35888672,-0.9463501,-0.039123535
1603053680154,523,-0.6640625,-0.9981079,-0.0960083
1603053680156,524,-0.48364258,-0.9920044,-0.0049438477
1603053680159,525,-0.33569336,-0.96099854,0.113464355
1603053680160,526,-0.37036133,-0.9710083,0.041931152
1603053680163,527,-0.41210938,-0.9956665,0.0053100586
1603053680165,528,-0.33984375,-1.0383911,0.014099121
1603053680167,529,-0.32128906,-1.0213013,-0.0335083
1603053680169,530,-0.14160156,-1.0095825,-0.02520752
1603053680170,531,-0.024902344,-1.0737915,0.3007202
1603053680171,532,-0.36987305,-1.128479,0.43450928
1603053680172,533,-0.19726562,-0.9048462,0.2453003
1603053680174,534,-0.08129883,-0.9314575,0.15203857
1603053680176,535,-0.29492188,-0.9026489,-0.012756348
1603053680176,536,-0.3256836,-1.0535278,0.066833496
1603053680177,537,-0.18139648,-1.0210571,0.43255615
1603053680178,538,-0.5209961,-0.99664307,-0.02935791
1603053680180,539,-0.40307617,-0.91534424,0.081970215
1603053680181,540,-0.61938477,-0.96417236,0.11956787
1603053680182,541,-0.45166016,-0.7473755,0.26531982
1603053680183,542,-0.55444336,-0.7546997,0.36688232
1603053680184,543,-0.26416016,-0.75128174,0.33709717
1603053682651,544,-0.4519043,-0.57769775,0.5043335
1603053682656,545,-0.43603516,-0.7007446,0.5819702
1603053682660,546,-0.5793457,-0.68536377,0.7826538
1603053682663,547,-0.28930664,-0.67388916,0.7704468
1603053682667,548,-0.45947266,-0.59503174,0.8602905
1603053682671,549,-0.35961914,-0.47174072,0.8222046
1603053682672,550,-0.4477539,-0.4356079,0.85565186
1603053682674,551,-0.33666992,-0.44293213,0.8937378
1603053682674,552,-0.3203125,-0.42559814,0.86517334
1603053682676,553,-0.31518555,-0.42608643,0.8512573
1603053682676,554,-0.32763672,-0.41729736,0.79559326
1603053682678,555,-0.3359375,-0.43267822,0.8078003
1603053682679,556,-0.33374023,-0.45928955,0.81707764
1603053682681,557,-0.35473633,-0.46392822,0.8180542
1603053682683,558,-0.34936523,-0.47735596,0.8156128
1603053682684,559,-0.3244629,-0.48468018,0.8065796
1603053682685,560,-0.3071289,-0.4805298,0.81073
1603053682686,561,-0.33203125,-0.4841919,0.821228
1603053682687,562,-0.3034668,-0.47979736,0.82489014
1603053682688,563,-0.29296875,-0.4590454,0.8331909
1603053682690,564,-0.29345703,-0.4277954,0.8163452
1603053682691,565,-0.31079102,-0.4175415,0.82684326
1603053682692,566,-0.30395508,-0.39630127,0.8180542
1603053682694,567,-0.27148438,-0.3904419,0.8422241
1603053682694,568,-0.26879883,-0.39898682,0.86273193
1603053682696,569,-0.30200195,-0.4048462,0.8512573
1603053682697,570,-0.30566406,-0.38409424,0.84417725
1603053682699,571,-0.2956543,-0.37554932,0.8361206
1603053682700,572,-0.28710938,-0.39215088,0.8468628
1603053682701,573,-0.28173828,-0.38970947,0.8571167
1603053682702,574,-0.27734375,-0.4031372,0.8641968
1603053682708,575,-0.2553711,-0.3945923,0.8534546
1603053685395,576,-0.2697754,-0.37628174,0.857605
1603053685398,577,-0.27294922,-0.3731079,0.8475952
1603053685404,578,-0.26098633,-0.40655518,0.8583374
1603053685407,579,-0.24926758,-0.42730713,0.86395264
1603053685410,580,-0.25073242,-0.39556885,0.85150146
1603053685412,581,-0.24072266,-0.36383057,0.8539429
1603053685415,582,-0.26513672,-0.37408447,0.86517334
1603053685417,583,-0.24584961,-0.395813,0.8764038
1603053685417,584,-0.24243164,-0.35577393,0.86834717
1603053685420,585,-0.2705078,-0.32769775,0.87835693
1603053685423,586,-0.3071289,-0.2810669,0.84954834
1603053685426,587,-0.3227539,-0.3069458,0.868103
1603053685428,588,-0.23852539,-0.34161377,0.8786011
1603053685432,589,-0.21118164,-0.33135986,0.90179443
1603053685433,590,-0.2565918,-0.27642822,0.90130615
1603053685435,591,-0.37036133,-0.2366333,0.8607788
1603053685437,592,-0.3371582,-0.29864502,0.8344116
1603053685440,593,-0.3010254,-0.30645752,0.86932373
1603053685442,594,-0.22509766,-0.3513794,0.9257202
1603053685444,595,-0.24267578,-0.32183838,0.9052124
1603053685445,596,-0.2919922,-0.28668213,0.9069214
1603053685446,597,-0.28076172,-0.23883057,0.87615967
1603053685449,598,-0.23583984,-0.19488525,0.87323
1603053685450,599,-0.23828125,-0.20318604,0.8842163
1603053685452,600,-0.2626953,-0.20684814,0.9015503
1603053685453,601,-0.2553711,-0.2612915,0.86834717
1603053685453,602,-0.21459961,-0.29083252,0.871521
1603053685455,603,-0.19165039,-0.30303955,0.8915405
1603053685457,604,-0.22705078,-0.31744385,0.8969116
1603053685458,605,-0.25976562,-0.33648682,0.8986206
1603053685459,606,-0.25317383,-0.3345337,0.9008179
1603053685460,607,-0.24023438,-0.30914307,0.8876343
1603053688122,608,-0.28930664,-0.2883911,0.88690186
1603053688125,609,-0.26611328,-0.32525635,0.87713623
1603053688129,610,-0.27270508,-0.28082275,0.89178467
1603053688132,611,-0.28222656,-0.20855713,0.8751831
1603053688134,612,-0.31274414,-0.21612549,0.87615967
1603053688136,613,-0.3083496,-0.2617798,0.89178467
1603053688137,614,-0.32128906,-0.37628174,1.0045776
1603053688139,615,-0.34448242,-0.48028564,1.0128784
1603053688141,616,-0.36010742,-0.48223877,0.869812
1603053688145,617,-0.40698242,-0.48687744,0.7177124
1603053688147,618,-0.5078125,-0.6030884,0.68255615
1603053688149,619,-0.53100586,-0.71099854,0.62176514
1603053688150,620,-0.4621582,-0.7210083,0.52020264
1603053688152,621,-0.5090332,-0.87677,0.45062256
1603053688153,622,-0.38134766,-0.862854,0.31829834
1603053688154,623,-0.33081055,-0.7420044,0.24700928
1603053688155,624,-0.5053711,-0.7346802,0.18719482
1603053688156,625,-0.5031738,-0.90460205,0.070739746
1603053688157,626,-0.3779297,-0.9961548,0.06439209
1603053688158,627,-0.32910156,-1.0115356,-0.024230957
1603053688160,628,-0.40673828,-0.9866333,-0.06964111
1603053688161,629,-0.42089844,-0.97198486,-0.07183838
1603053688162,630,-0.19824219,-0.9890747,0.055603027
1603053688163,631,-0.36279297,-1.0918579,0.21478271
1603053688164,632,-0.44726562,-0.9673462,0.054138184
1603053688166,633,-0.22070312,-0.94488525,0.14471436
1603053688167,634,-0.111328125,-0.97784424,0.15740967
1603053688169,635,-0.32080078,-0.9385376,0.054626465
1603053688170,636,-0.5637207,-0.87506104,0.2243042
1603053688171,637,-0.24194336,-0.97198486,0.32635498
1603053688173,638,-0.34375,-1.1426392,0.47747803
1603053688174,639,-0.42236328,-0.99591064,-0.13018799
1603053690457,640,-0.23828125,-0.9871216,-0.14605713
1603053690459,641,-0.5500488,-0.9854126,-0.011047363
1603053690461,642,-0.38720703,-0.95977783,-0.008850098
1603053690462,643,-0.46484375,-0.97857666,0.008483887
1603053690465,644,-0.50268555,-0.96221924,-0.10211182
1603053690472,645,-0.34814453,-0.9944458,-0.05255127
1603053690474,646,-0.4248047,-0.98931885,-0.0154418945
1603053690475,647,-0.43945312,-0.9590454,-0.05670166
1603053690479,648,-0.44384766,-0.9751587,-0.06719971
1603053690482,649,-0.37353516,-1.0073853,-0.018859863
1603053690485,650,-0.33813477,-0.97247314,-0.07550049
1603053690490,651,-0.41455078,-1.0029907,-0.09576416
1603053690493,652,-0.38208008,-0.9734497,-0.0881958
1603053690496,653,-0.39868164,-1.005188,-0.066711426
1603053690499,654,-0.42456055,-1.0161743,0.003112793
1603053690503,655,-0.31835938,-1.0640259,0.20184326
1603053690506,656,-0.24023438,-1.0618286,0.1696167
1603053690507,657,-0.37329102,-0.9937134,0.08074951
1603053690512,658,-0.38110352,-0.97491455,0.112976074
1603053690514,659,-0.39526367,-0.9314575,0.117370605
1603053690517,660,-0.19018555,-0.8530884,0.117126465
1603053690517,661,-0.1340332,-0.8909302,0.26263428
1603053690520,662,-0.67041016,-1.0471802,0.4562378
1603053690522,663,-0.35009766,-1.0198364,0.29852295
1603053690524,664,-0.16137695,-1.0227661,0.1161499
1603053690526,665,-0.20336914,-1.0183716,-0.17388916
1603053690528,666,-0.6850586,-0.89141846,-0.09820557
1603053690531,667,-0.32080078,-0.97784424,-0.06109619
1603053690532,668,-0.29345703,-0.9649048,-0.112854004
1603053690534,669,-0.39868164,-0.91656494,-0.20465088
1603053690535,670,-0.45166016,-1.0593872,-0.07891846
1603053690537,671,-0.5788574,-1.1543579,-0.06573486
1603053693187,672,-0.5732422,-1.1443481,-0.00592041
1603053693190,673,-0.28686523,-1.1931763,-0.26446533
1603053693193,674,-0.29125977,-1.236145,-0.1362915
1603053693194,675,-0.37890625,-0.9060669,-0.12579346
1603053693197,676,0.016113281,-0.6057739,-0.12579346
1603053693199,677,-0.0847168,-0.8440552,0.291687
1603053693202,678,-0.93066406,-1.2512817,0.6798706
1603053693206,679,-0.26513672,-0.927063,-0.14483643
1603053693209,680,-0.02368164,-1.1184692,-0.077941895
1603053693211,681,-0.60913086,-0.87994385,-0.14117432
1603053693213,682,-0.43554688,-0.9199829,-0.12335205
1603053693214,683,-0.21411133,-0.9817505,-0.1531372
1603053693215,684,-0.39086914,-0.95098877,-0.14874268
1603053693216,685,-0.54541016,-1.0557251,-0.13092041
1603053693217,686,-0.5866699,-1.1992798,0.0033569336
1603053693219,687,-0.3479004,-1.2119751,-0.1873169
1603053693220,688,-0.18896484,-1.3787231,-0.12554932
1603053693221,689,-0.18920898,-1.0872192,-0.16436768
1603053693222,690,-0.27563477,-0.7163696,-0.14312744
1603053693223,691,0.0029296875,-0.5281372,-0.054748535
1603053693227,692,-0.6843262,-1.1807251,0.6102905
1603053693227,693,-0.28442383,-1.1751099,0.40374756
1603053693227,694,-0.40844727,-0.97003174,-0.24493408
1603053693228,695,-0.07836914,-1.0232544,-0.15460205
1603053693229,696,-0.49951172,-0.96417236,-0.18682861
1603053693232,697,-0.29956055,-1.0166626,-0.14874268
1603053693232,698,-0.5439453,-0.91070557,-0.21905518
1603053693233,699,-0.33447266,-0.9883423,-0.10064697
1603053693235,700,-0.45092773,-0.93218994,-0.18829346
1603053693236,701,-0.6286621,-0.94195557,-0.13433838
1603053693238,702,-0.25170898,-1.2266235,0.013366699
1603053693238,703,-0.07495117,-1.2744751,-0.18121338
