# Sensor position: Chest
# Sensor side: Right
# Activity type: Movement
# Activity code: 9
# Subject id: s1701688
timestamp,seq,accel_x,accel_y,accel_z
1600962175558,0,0.0146484375,-0.9607544,0.23724365
1600962175558,1,0.0146484375,-0.9607544,0.23724365
1600962175564,2,0.057617188,-1.0403442,0.093933105
1600962175564,3,0.057617188,-1.0403442,0.093933105
1600962175564,4,0.028808594,-1.034729,1.8310547E-4
1600962175564,5,0.028808594,-1.034729,1.8310547E-4
1600962175564,6,-0.033203125,-1.0061646,0.054138184
1600962175565,7,-0.033203125,-1.0061646,0.054138184
1600962175565,8,0.03149414,-1.0637817,0.02557373
1600962175565,9,0.03149414,-1.0637817,0.02557373
1600962175565,10,0.033447266,-0.9898071,0.028015137
1600962175568,11,0.033447266,-0.9898071,0.028015137
1600962175568,12,0.033935547,-1.0425415,0.03314209
1600962175568,13,0.033935547,-1.0425415,0.03314209
1600962175570,14,-0.07348633,-1.0073853,-0.02178955
1600962175570,15,-0.07348633,-1.0073853,-0.02178955
1600962175570,16,0.028808594,-1.0300903,0.016540527
1600962175570,17,0.028808594,-1.0300903,0.016540527
1600962175571,18,0.064941406,-1.008606,0.020446777
1600962175574,19,-0.059326172,-1.0745239,-0.0022583008
1600962175575,20,0.064941406,-1.008606,0.020446777
1600962175577,21,-0.092041016,-1.2669067,-0.0569458
1600962175577,22,-0.059326172,-1.0745239,-0.0022583008
1600962175578,23,-0.09301758,-1.2197876,-0.09942627
1600962175578,24,-0.092041016,-1.2669067,-0.0569458
1600962175578,25,-0.0637207,-1.2136841,-0.18487549
1600962175578,26,-0.049804688,-1.1729126,-0.09893799
1600962175580,27,-0.1652832,-1.1184692,-0.11480713
1600962175581,28,-0.09301758,-1.2197876,-0.09942627
1600962175581,29,-0.18725586,-0.8340454,-0.018615723
1600962175582,30,-0.0637207,-1.2136841,-0.18487549
1600962175583,31,-0.049804688,-1.1729126,-0.09893799
1600962175584,32,-0.1875,-0.86676025,-0.19415283
1600962175584,33,-0.1652832,-1.1184692,-0.11480713
1600962175584,34,0.07104492,-0.91656494,-0.0115356445
1600962175585,35,-0.18725586,-0.8340454,-0.018615723
1600962175585,36,0.18896484,-0.8303833,0.00579834
1600962175587,37,-0.1875,-0.86676025,-0.19415283
1600962175587,38,0.021240234,-1.0440063,0.07611084
1600962175588,39,0.07104492,-0.91656494,-0.0115356445
1600962175589,40,-0.051757812,-0.9492798,0.032165527
1600962175589,41,0.18896484,-0.8303833,0.00579834
1600962175591,42,0.11328125,-0.90582275,0.027526855
1600962175591,43,0.21557617,-0.97491455,0.090026855
1600962175595,44,0.011474609,-1.0488892,0.12713623
1600962175597,45,0.021240234,-1.0440063,0.07611084
1600962175597,46,0.16015625,-0.96881104,0.19232178
1600962175599,47,-0.11425781,-1.0942993,0.31878662
1600962175599,48,-0.051757812,-0.9492798,0.032165527
1600962175599,49,-0.12402344,-0.8555298,0.2189331
1600962175600,50,-0.18334961,-1.0025024,0.20037842
1600962175600,51,0.11328125,-0.90582275,0.027526855
1600962175601,52,0.14160156,-1.0671997,0.22454834
1600962175601,53,0.21557617,-0.97491455,0.090026855
1600962175603,54,0.011474609,-1.0488892,0.12713623
1600962175603,55,-0.06738281,-1.0003052,0.22821045
1600962175603,56,0.16015625,-0.96881104,0.19232178
1600962175604,57,-0.11425781,-1.0942993,0.31878662
1600962175604,58,0.107666016,-0.897522,0.42279053
1600962175605,59,-0.12402344,-0.8555298,0.2189331
1600962175608,60,-0.18334961,-1.0025024,0.20037842
1600962175609,61,0.14160156,-1.0671997,0.22454834
1600962175612,62,-0.06738281,-1.0003052,0.22821045
1600962175612,63,0.107666016,-0.897522,0.42279053
1600962178099,64,0.045410156,-0.92193604,0.3085327
1600962178099,65,0.045410156,-0.92193604,0.3085327
1600962178099,66,0.031982422,-0.9968872,0.3793335
1600962178102,67,0.031982422,-0.9968872,0.3793335
1600962178102,68,0.14990234,-0.975647,0.36175537
1600962178103,69,0.14990234,-0.975647,0.36175537
1600962178108,70,0.032958984,-0.9138794,0.37347412
1600962178109,71,0.032958984,-0.9138794,0.37347412
1600962178111,72,0.07055664,-1.2129517,0.25872803
1600962178112,73,0.07055664,-1.2129517,0.25872803
1600962178114,74,0.0715332,-0.8569946,0.019470215
1600962178114,75,0.0715332,-0.8569946,0.019470215
1600962178116,76,-0.08691406,-1.2637329,0.15496826
1600962178116,77,-0.08691406,-1.2637329,0.15496826
1600962178116,78,0.088378906,-0.8743286,0.06878662
1600962178117,79,0.088378906,-0.8743286,0.06878662
1600962178117,80,-0.049072266,-0.92437744,-0.0647583
1600962178119,81,0.07006836,-0.82476807,0.07342529
1600962178119,82,-0.049072266,-0.92437744,-0.0647583
1600962178119,83,0.07763672,-0.8933716,0.07293701
1600962178120,84,-0.39941406,-1.4859009,-0.26837158
1600962178121,85,-0.3322754,-1.2288208,-0.331604
1600962178121,86,0.07006836,-0.82476807,0.07342529
1600962178122,87,0.1237793,-1.2940063,-0.13677979
1600962178122,88,0.07763672,-0.8933716,0.07293701
1600962178122,89,0.07421875,-0.91534424,-0.008850098
1600962178124,90,-0.39941406,-1.4859009,-0.26837158
1600962178124,91,-0.22998047,-1.2271118,0.2074585
1600962178126,92,-0.040039062,-0.7510376,0.09490967
1600962178127,93,-0.3322754,-1.2288208,-0.331604
1600962178127,94,-0.24023438,-0.36602783,-0.09625244
1600962178129,95,0.1237793,-1.2940063,-0.13677979
1600962178129,96,0.07421875,-0.91534424,-0.008850098
1600962178129,97,0.11694336,-1.0652466,0.21624756
1600962178129,98,-0.22998047,-1.2271118,0.2074585
1600962178129,99,-0.30029297,-1.2703247,0.11834717
1600962178131,100,-0.040039062,-0.7510376,0.09490967
1600962178131,101,-0.024902344,-1.3157349,-0.021057129
1600962178132,102,-0.078125,-1.4719849,-0.18780518
1600962178132,103,-0.24023438,-0.36602783,-0.09625244
1600962178133,104,0.11694336,-1.0652466,0.21624756
1600962178134,105,0.1652832,-1.0840454,-0.11627197
1600962178134,106,-0.30029297,-1.2703247,0.11834717
1600962178135,107,0.037597656,-0.65704346,-0.1519165
1600962178136,108,-0.024902344,-1.3157349,-0.021057129
1600962178136,109,-0.33081055,-0.7354126,-0.33087158
1600962178136,110,-0.078125,-1.4719849,-0.18780518
1600962178137,111,-0.09716797,-0.59625244,0.17474365
1600962178138,112,0.1652832,-1.0840454,-0.11627197
1600962178140,113,-0.08935547,-1.2644653,0.17376709
1600962178140,114,0.037597656,-0.65704346,-0.1519165
1600962178140,115,-0.07495117,-1.6013794,0.19622803
1600962178141,116,-0.33081055,-0.7354126,-0.33087158
1600962178141,117,0.17138672,-1.3731079,-0.08013916
1600962178141,118,-0.09716797,-0.59625244,0.17474365
1600962178142,119,-0.045410156,-0.92193604,-0.12750244
1600962178142,120,-0.08935547,-1.2644653,0.17376709
1600962178144,121,0.13330078,-0.73760986,-0.019836426
1600962178144,122,-0.07495117,-1.6013794,0.19622803
1600962178145,123,0.17138672,-1.3731079,-0.08013916
1600962178146,124,-0.045410156,-0.92193604,-0.12750244
1600962178147,125,-0.051513672,-1.2039185,0.030212402
1600962178147,126,0.13330078,-0.73760986,-0.019836426
1600962178151,127,-0.051513672,-1.2039185,0.030212402
1600962180638,128,0.12695312,-1.0210571,0.12689209
1600962180642,129,-0.28759766,-0.7468872,0.05999756
1600962180642,130,-0.09008789,-0.8284302,-0.008361816
1600962180644,131,0.4741211,-1.1401978,0.26776123
1600962180646,132,0.12695312,-1.0210571,0.12689209
1600962180651,133,-0.29248047,-0.8826294,0.14715576
1600962180651,134,-0.28759766,-0.7468872,0.05999756
1600962180656,135,-0.09008789,-0.8284302,-0.008361816
1600962180657,136,0.5336914,-1.2432251,0.21185303
1600962180657,137,0.4741211,-1.1401978,0.26776123
1600962180657,138,-0.43237305,-0.98638916,-0.12652588
1600962180658,139,-0.29248047,-0.8826294,0.14715576
1600962180658,140,0.19384766,-0.92755127,0.11639404
1600962180658,141,0.5336914,-1.2432251,0.21185303
1600962180659,142,-0.083984375,-0.958313,-0.15240479
1600962180660,143,0.09326172,-1.2564087,-0.19073486
1600962180660,144,-0.43237305,-0.98638916,-0.12652588
1600962180661,145,0.09790039,-1.4719849,-0.12799072
1600962180664,146,0.19384766,-0.92755127,0.11639404
1600962180664,147,0.26635742,-0.87042236,0.19207764
1600962180667,148,-0.083984375,-0.958313,-0.15240479
1600962180667,149,0.4020996,-1.0281372,0.2489624
1600962180670,150,0.087890625,-0.75445557,-0.08868408
1600962180670,151,0.09326172,-1.2564087,-0.19073486
1600962180671,152,0.09790039,-1.4719849,-0.12799072
1600962180674,153,0.26635742,-0.87042236,0.19207764
1600962180674,154,0.09716797,-1.0278931,-0.07501221
1600962180676,155,0.4020996,-1.0281372,0.2489624
1600962180676,156,0.0625,-0.6843872,-0.09112549
1600962180678,157,0.087890625,-0.75445557,-0.08868408
1600962180679,158,-0.02758789,-0.6255493,-0.16217041
1600962180680,159,0.09716797,-1.0278931,-0.07501221
1600962180684,160,-0.37158203,-1.2527466,0.047302246
1600962180685,161,-0.3708496,-1.5713501,-0.23150635
1600962180685,162,-0.34326172,-1.5359497,0.29803467
1600962180685,163,0.0625,-0.6843872,-0.09112549
1600962180686,164,-0.02758789,-0.6255493,-0.16217041
1600962180688,165,0.7902832,-0.6062622,0.09466553
1600962180689,166,-0.37158203,-1.2527466,0.047302246
1600962180690,167,0.6022949,-0.65704346,0.0053100586
1600962180691,168,-0.3708496,-1.5713501,-0.23150635
1600962180691,169,0.15332031,-0.74664307,-0.051818848
1600962180695,170,0.22802734,-0.8447876,-0.45733643
1600962180695,171,-0.34326172,-1.5359497,0.29803467
1600962180696,172,-0.10107422,-1.649231,0.019226074
1600962180697,173,0.7902832,-0.6062622,0.09466553
1600962180698,174,0.31079102,-0.41900635,-0.08331299
1600962180699,175,0.6022949,-0.65704346,0.0053100586
1600962180700,176,0.15332031,-0.74664307,-0.051818848
1600962180700,177,-0.72875977,-1.4138794,-0.02130127
1600962180702,178,-0.27661133,-1.4663696,0.18231201
1600962180703,179,0.22802734,-0.8447876,-0.45733643
1600962180709,180,0.328125,-1.3369751,0.2008667
1600962180709,181,-0.10107422,-1.649231,0.019226074
1600962180711,182,0.040283203,-0.9402466,0.13861084
1600962180711,183,0.31079102,-0.41900635,-0.08331299
1600962180711,184,-0.72875977,-1.4138794,-0.02130127
1600962180711,185,0.03515625,-0.1963501,0.06341553
1600962180714,186,-0.3605957,-0.51348877,0.10223389
1600962180714,187,-0.27661133,-1.4663696,0.18231201
1600962180715,188,0.328125,-1.3369751,0.2008667
1600962180716,189,0.040283203,-0.9402466,0.13861084
1600962180717,190,0.03515625,-0.1963501,0.06341553
1600962180717,191,-0.3605957,-0.51348877,0.10223389
1600962183363,192,0.25976562,-1.4505005,0.34173584
1600962183368,193,0.07348633,-0.6099243,-0.0051879883
1600962183377,194,-0.6254883,-1.5071411,-0.22027588
1600962183377,195,0.25976562,-1.4505005,0.34173584
1600962183378,196,0.16455078,-1.7427368,-0.008850098
1600962183378,197,0.07348633,-0.6099243,-0.0051879883
1600962183378,198,0.03930664,-1.7442017,-0.026916504
1600962183378,199,-0.6254883,-1.5071411,-0.22027588
1600962183378,200,-0.18359375,-0.7346802,-0.32354736
1600962183379,201,0.16455078,-1.7427368,-0.008850098
1600962183379,202,0.03930664,-1.7442017,-0.026916504
1600962183379,203,-0.009033203,0.21331787,-0.1182251
1600962183380,204,-0.18359375,-0.7346802,-0.32354736
1600962183381,205,-0.06982422,-0.54693604,0.14154053
1600962183381,206,-0.05102539,-1.8076782,0.47869873
1600962183382,207,-0.009033203,0.21331787,-0.1182251
1600962183382,208,0.1550293,-1.2947388,0.09979248
1600962183383,209,0.033935547,-0.3928833,0.0927124
1600962183384,210,-0.06982422,-0.54693604,0.14154053
1600962183384,211,-0.09472656,-0.8657837,-0.3040161
1600962183385,212,-0.10644531,-1.9014282,-0.48712158
1600962183386,213,0.9133301,-1.4199829,0.0053100586
1600962183388,214,0.068359375,-0.5015259,-0.33111572
1600962183389,215,-0.05102539,-1.8076782,0.47869873
1600962183389,216,0.1550293,-1.2947388,0.09979248
1600962183390,217,-0.09350586,-0.08746338,-0.31866455
1600962183395,218,-0.03515625,-1.6921997,0.09979248
1600962183397,219,0.033935547,-0.3928833,0.0927124
1600962183397,220,-0.421875,-1.8074341,0.10662842
1600962183397,221,0.018310547,-1.0847778,-0.028869629
1600962183397,222,-0.021240234,-0.29034424,0.0018920898
1600962183397,223,-0.111083984,-0.5574341,-0.15582275
1600962183399,224,-0.059326172,-1.8919067,-0.116760254
1600962183399,225,-0.09472656,-0.8657837,-0.3040161
1600962183401,226,-0.32739258,-1.1799927,-0.09088135
1600962183404,227,0.02319336,-0.43267822,-0.10089111
1600962183404,228,-0.10644531,-1.9014282,-0.48712158
1600962183408,229,0.9133301,-1.4199829,0.0053100586
1600962183409,230,-0.042236328,-0.13580322,0.12957764
1600962183409,231,0.068359375,-0.5015259,-0.33111572
1600962183409,232,0.1574707,-1.9998169,0.36688232
1600962183409,233,-0.09350586,-0.08746338,-0.31866455
1600962183412,234,-0.03515625,-1.6921997,0.09979248
1600962183413,235,-0.20263672,-1.9998169,0.13983154
1600962183413,236,-0.421875,-1.8074341,0.10662842
1600962183416,237,0.018310547,-1.0847778,-0.028869629
1600962183417,238,-0.03173828,-0.9043579,0.023132324
1600962183417,239,-0.021240234,-0.29034424,0.0018920898
1600962183417,240,-0.23852539,0.027038574,0.012878418
1600962183417,241,-0.111083984,-0.5574341,-0.15582275
1600962183418,242,0.24560547,-0.036193848,-0.04547119
1600962183418,243,-0.059326172,-1.8919067,-0.116760254
1600962183419,244,-0.15136719,-0.1453247,-0.073791504
1600962183421,245,-0.11401367,-1.9998169,0.13372803
1600962183422,246,-0.32739258,-1.1799927,-0.09088135
1600962183423,247,0.02319336,-0.43267822,-0.10089111
1600962183424,248,-0.042236328,-0.13580322,0.12957764
1600962183432,249,0.1574707,-1.9998169,0.36688232
1600962183433,250,-0.20263672,-1.9998169,0.13983154
1600962183436,251,-0.03173828,-0.9043579,0.023132324
1600962183436,252,-0.23852539,0.027038574,0.012878418
1600962183436,253,0.24560547,-0.036193848,-0.04547119
1600962183438,254,-0.15136719,-0.1453247,-0.073791504
1600962183439,255,-0.11401367,-1.9998169,0.13372803
1600962186080,256,0.5317383,-1.9998169,0.5302124
1600962186082,257,-0.3137207,-0.94317627,0.12030029
1600962186083,258,0.10131836,0.3102417,-0.38824463
1600962186084,259,0.5317383,-1.9998169,0.5302124
1600962186086,260,-0.15600586,-0.25689697,0.11785889
1600962186087,261,-0.3137207,-0.94317627,0.12030029
1600962186089,262,0.030517578,-0.038391113,-0.013244629
1600962186090,263,0.10131836,0.3102417,-0.38824463
1600962186091,264,-0.15600586,-0.25689697,0.11785889
1600962186096,265,0.030517578,-0.038391113,-0.013244629
1600962186097,266,-0.011962891,-1.9998169,0.0119018555
1600962186100,267,-0.011962891,-1.9998169,0.0119018555
1600962186100,268,0.54833984,-1.9998169,0.41644287
1600962186100,269,0.54833984,-1.9998169,0.41644287
1600962186102,270,0.2758789,-1.7532349,0.09222412
1600962186102,271,0.2758789,-1.7532349,0.09222412
1600962186102,272,-0.14941406,0.11053467,-0.2468872
1600962186102,273,-0.24951172,-0.06524658,-0.077697754
1600962186103,274,-0.14941406,0.11053467,-0.2468872
1600962186105,275,0.011230469,-0.09967041,-0.06866455
1600962186105,276,-0.24951172,-0.06524658,-0.077697754
1600962186105,277,0.028808594,-0.117492676,-0.03765869
1600962186106,278,0.011230469,-0.09967041,-0.06866455
1600962186107,279,0.2055664,-1.9998169,-0.028137207
1600962186108,280,0.80615234,-1.9998169,0.4598999
1600962186109,281,0.028808594,-0.117492676,-0.03765869
1600962186110,282,0.2055664,-1.9998169,-0.028137207
1600962186112,283,0.12670898,-1.0903931,-0.1609497
1600962186112,284,0.80615234,-1.9998169,0.4598999
1600962186112,285,-0.12475586,0.2892456,-0.23248291
1600962186114,286,0.12670898,-1.0903931,-0.1609497
1600962186114,287,-0.18823242,-0.10357666,-0.13970947
1600962186114,288,-0.12475586,0.2892456,-0.23248291
1600962186115,289,-0.014160156,-0.18341064,-0.055236816
1600962186116,290,0.2644043,-1.7842407,0.034606934
1600962186116,291,-0.18823242,-0.10357666,-0.13970947
1600962186117,292,-0.014160156,-0.18341064,-0.055236816
1600962186118,293,-0.10595703,-1.9998169,-0.16827393
1600962186118,294,0.2644043,-1.7842407,0.034606934
1600962186119,295,-0.10595703,-1.9998169,-0.16827393
1600962186120,296,-0.053710938,-1.6240845,0.10491943
1600962186123,297,0.30419922,-0.77178955,0.22137451
1600962186124,298,-0.053710938,-1.6240845,0.10491943
1600962186125,299,0.22705078,-0.37799072,-0.11529541
1600962186125,300,0.30419922,-0.77178955,0.22137451
1600962186125,301,0.24291992,-0.8521118,-0.2053833
1600962186125,302,0.22705078,-0.37799072,-0.11529541
1600962186126,303,0.3671875,-0.4993286,-0.13116455
1600962186126,304,0.24291992,-0.8521118,-0.2053833
1600962186126,305,0.2602539,-1.3582153,-0.22442627
1600962186126,306,0.3671875,-0.4993286,-0.13116455
1600962186128,307,-0.17675781,-1.8206177,-0.06524658
1600962186128,308,0.2602539,-1.3582153,-0.22442627
1600962186129,309,0.140625,-1.1731567,-0.29180908
1600962186129,310,-0.17675781,-1.8206177,-0.06524658
1600962186130,311,-0.3310547,-0.8093872,-0.094055176
1600962186131,312,0.140625,-1.1731567,-0.29180908
1600962186131,313,-0.21313477,-0.99713135,0.028015137
1600962186131,314,-0.3310547,-0.8093872,-0.094055176
1600962186132,315,-0.041748047,-0.82818604,0.058776855
1600962186133,316,-0.21313477,-0.99713135,0.028015137
1600962186133,317,-0.12719727,-0.67022705,0.11444092
1600962186135,318,-0.041748047,-0.82818604,0.058776855
1600962186136,319,-0.12719727,-0.67022705,0.11444092
1600962188430,320,0.060058594,-1.0696411,0.2736206
1600962188430,321,0.060058594,-1.0696411,0.2736206
1600962188432,322,0.23046875,-1.2888794,0.541687
1600962188432,323,0.23046875,-1.2888794,0.541687
1600962188434,324,-0.2109375,-0.82232666,0.2020874
1600962188434,325,-0.2109375,-0.82232666,0.2020874
1600962188436,326,-0.0769043,-0.6140747,-0.066223145
1600962188437,327,-0.0769043,-0.6140747,-0.066223145
1600962188439,328,-0.00390625,-1.5864868,0.0289917
1600962188439,329,-0.00390625,-1.5864868,0.0289917
1600962188442,330,0.2163086,-1.0718384,0.15887451
1600962188442,331,0.2163086,-1.0718384,0.15887451
1600962188444,332,0.2368164,-0.9163208,0.05267334
1600962188444,333,0.2368164,-0.9163208,0.05267334
1600962188445,334,0.16577148,-0.78204346,-0.011779785
1600962188449,335,0.011962891,-1.2756958,0.30633545
1600962188449,336,0.16577148,-0.78204346,-0.011779785
1600962188454,337,-0.10180664,-1.232727,0.12591553
1600962188454,338,0.011962891,-1.2756958,0.30633545
1600962188454,339,0.080078125,-1.0264282,0.039001465
1600962188456,340,0.1105957,-0.9199829,0.117370605
1600962188457,341,-0.10180664,-1.232727,0.12591553
1600962188459,342,0.080078125,-1.0264282,0.039001465
1600962188459,343,0.046875,-1.0134888,0.04949951
1600962188461,344,-0.19946289,-0.85601807,-0.06915283
1600962188461,345,0.1105957,-0.9199829,0.117370605
1600962188462,346,-0.23168945,-1.0369263,0.015808105
1600962188465,347,0.046875,-1.0134888,0.04949951
1600962188466,348,-0.04272461,-1.2966919,0.11102295
1600962188467,349,-0.19946289,-0.85601807,-0.06915283
1600962188470,350,-0.23168945,-1.0369263,0.015808105
1600962188470,351,0.10498047,-1.3303833,-0.11016846
1600962188473,352,-0.04272461,-1.2966919,0.11102295
1600962188474,353,-0.055908203,-1.0408325,-0.082336426
1600962188475,354,0.10498047,-1.3303833,-0.11016846
1600962188475,355,-0.12524414,-0.85943604,0.093933105
1600962188475,356,-0.055908203,-1.0408325,-0.082336426
1600962188476,357,-0.08178711,-0.91412354,0.17523193
1600962188480,358,0.015380859,-0.72906494,0.18743896
1600962188480,359,0.16357422,-0.8936157,0.3595581
1600962188481,360,-0.12524414,-0.85943604,0.093933105
1600962188482,361,-0.08178711,-0.91412354,0.17523193
1600962188485,362,0.015380859,-0.72906494,0.18743896
1600962188487,363,-0.043701172,-1.1802368,0.34490967
1600962188487,364,0.16357422,-0.8936157,0.3595581
1600962188489,365,0.11694336,-0.6084595,0.30194092
1600962188490,366,-0.043701172,-1.1802368,0.34490967
1600962188490,367,0.021728516,-1.7046509,0.15545654
1600962188490,368,0.11694336,-0.6084595,0.30194092
1600962188491,369,0.28198242,-0.74005127,0.09246826
1600962188491,370,0.021728516,-1.7046509,0.15545654
1600962188491,371,-0.005859375,-0.6934204,0.15911865
1600962188494,372,0.092285156,-0.99957275,0.21868896
1600962188494,373,0.28198242,-0.74005127,0.09246826
1600962188494,374,-0.34326172,-1.3042603,-0.0791626
1600962188496,375,-0.005859375,-0.6934204,0.15911865
1600962188496,376,-0.080566406,-1.3098755,-0.27789307
1600962188496,377,0.092285156,-0.99957275,0.21868896
1600962188497,378,-0.34326172,-1.3042603,-0.0791626
1600962188497,379,0.030029297,-1.1587524,-0.19342041
1600962188498,380,-0.080566406,-1.3098755,-0.27789307
1600962188498,381,0.16430664,-0.9570923,0.051208496
1600962188499,382,0.030029297,-1.1587524,-0.19342041
1600962188500,383,0.16430664,-0.9570923,0.051208496
1600962190957,384,0.018798828,-1.031311,-0.08331299
1600962190957,385,0.018798828,-1.031311,-0.08331299
1600962190958,386,0.19848633,-1.206604,0.109802246
1600962190959,387,0.19848633,-1.206604,0.109802246
1600962190960,388,0.021240234,-0.91973877,-0.038635254
1600962190960,389,0.021240234,-0.91973877,-0.038635254
1600962190960,390,-0.20092773,-0.80841064,-0.17706299
1600962190962,391,-0.20092773,-0.80841064,-0.17706299
1600962190962,392,0.6218262,-1.1882935,0.5438843
1600962190962,393,0.6218262,-1.1882935,0.5438843
1600962190962,394,0.068115234,-1.3987427,0.23822021
1600962190963,395,0.068115234,-1.3987427,0.23822021
1600962190964,396,0.115234375,-0.65289307,-0.032043457
1600962190964,397,0.115234375,-0.65289307,-0.032043457
1600962190965,398,0.10986328,-0.5088501,-0.05621338
1600962190966,399,0.10986328,-0.5088501,-0.05621338
1600962190966,400,0.1928711,-1.3826294,0.21453857
1600962190968,401,0.1928711,-1.3826294,0.21453857
1600962190968,402,0.12768555,-1.2993774,0.12542725
1600962190968,403,0.12768555,-1.2993774,0.12542725
1600962190968,404,0.30371094,-0.487854,-0.116760254
1600962190970,405,0.30371094,-0.487854,-0.116760254
1600962190970,406,-0.0031738281,-0.67022705,-0.16314697
1600962190971,407,-0.0031738281,-0.67022705,-0.16314697
1600962190971,408,-0.05029297,-1.8428345,0.06903076
1600962190972,409,-0.05029297,-1.8428345,0.06903076
1600962190972,410,0.02319336,-1.1314087,0.37542725
1600962190973,411,0.02319336,-1.1314087,0.37542725
1600962190973,412,0.123046875,-0.44805908,-0.17901611
1600962190973,413,0.123046875,-0.44805908,-0.17901611
1600962190974,414,0.13989258,-1.0281372,-0.04449463
1600962190975,415,0.13989258,-1.0281372,-0.04449463
1600962190975,416,0.057373047,-1.4177856,0.12786865
1600962190976,417,0.057373047,-1.4177856,0.12786865
1600962190976,418,0.5756836,-1.3150024,0.25115967
1600962190976,419,0.5756836,-1.3150024,0.25115967
1600962190977,420,0.075927734,-0.7661743,0.09124756
1600962190977,421,0.075927734,-0.7661743,0.09124756
1600962190977,422,0.19042969,-0.58428955,-0.06842041
1600962190977,423,0.19042969,-0.58428955,-0.06842041
1600962190978,424,0.111572266,-1.265686,-0.010314941
1600962190978,425,0.111572266,-1.265686,-0.010314941
1600962190979,426,-0.29296875,-1.4631958,-0.1975708
1600962190979,427,-0.29296875,-1.4631958,-0.1975708
1600962190980,428,-0.1262207,-1.050354,0.07879639
1600962190980,429,-0.1262207,-1.050354,0.07879639
1600962190980,430,-0.16235352,-0.46343994,-0.40924072
1600962190981,431,0.08276367,-0.9446411,0.17474365
1600962190981,432,-0.16235352,-0.46343994,-0.40924072
1600962190982,433,0.35668945,-1.2632446,0.3475952
1600962190983,434,0.08276367,-0.9446411,0.17474365
1600962190983,435,0.18334961,-0.9536743,0.048034668
1600962190984,436,0.35668945,-1.2632446,0.3475952
1600962190984,437,-0.12402344,-0.68048096,-0.003967285
1600962190984,438,0.18334961,-0.9536743,0.048034668
1600962190984,439,0.107177734,-1.232727,-0.027648926
1600962190985,440,0.42651367,-1.3589478,-0.01739502
1600962190986,441,0.29663086,-0.8677368,-0.13043213
1600962190987,442,-0.12402344,-0.68048096,-0.003967285
1600962190988,443,0.107177734,-1.232727,-0.027648926
1600962190989,444,-0.751709,-0.75860596,-0.066711426
1600962190990,445,0.42651367,-1.3589478,-0.01739502
1600962190990,446,0.29663086,-0.8677368,-0.13043213
1600962190991,447,-0.751709,-0.75860596,-0.066711426
1600962193887,448,0.4111328,-1.5940552,0.2970581
1600962193888,449,0.4111328,-1.5940552,0.2970581
1600962193888,450,-0.115234375,-1.156311,-0.10772705
1600962193891,451,-0.06665039,-0.7678833,-0.14776611
1600962193892,452,0.039794922,-0.32330322,0.05291748
1600962193893,453,-0.115234375,-1.156311,-0.10772705
1600962193897,454,0.24487305,-1.6358032,0.5758667
1600962193899,455,-0.06665039,-0.7678833,-0.14776611
1600962193902,456,-0.022460938,-0.8821411,0.35394287
1600962193902,457,0.039794922,-0.32330322,0.05291748
1600962193905,458,-0.11645508,-0.72247314,-0.05596924
1600962193905,459,0.24487305,-1.6358032,0.5758667
1600962193906,460,0.033691406,-0.27838135,0.22161865
1600962193906,461,-0.022460938,-0.8821411,0.35394287
1600962193911,462,-0.11645508,-0.72247314,-0.05596924
1600962193917,463,0.033691406,-0.27838135,0.22161865
1600962193918,464,0.8466797,-1.9070435,0.62493896
1600962193920,465,0.8466797,-1.9070435,0.62493896
1600962193920,466,-0.17871094,-1.6465454,0.062927246
1600962193921,467,-0.11352539,-0.6721802,0.035339355
1600962193922,468,-0.17871094,-1.6465454,0.062927246
1600962193922,469,-0.26220703,-0.2937622,-0.23687744
1600962193924,470,-0.11352539,-0.6721802,0.035339355
1600962193925,471,0.30322266,-1.473938,0.21234131
1600962193927,472,-0.26220703,-0.2937622,-0.23687744
1600962193927,473,0.3635254,-1.0737915,-0.12579346
1600962193932,474,-0.25439453,-0.83599854,-0.062072754
1600962193932,475,0.30322266,-1.473938,0.21234131
1600962193934,476,0.3635254,-1.0737915,-0.12579346
1600962193934,477,0.10571289,-0.34942627,-0.15777588
1600962193937,478,-0.25439453,-0.83599854,-0.062072754
1600962193939,479,0.2866211,-1.9998169,0.2753296
1600962193939,480,0.10571289,-0.34942627,-0.15777588
1600962193939,481,0.26367188,-1.1506958,-0.17437744
1600962193940,482,-0.06713867,-0.3027954,0.028259277
1600962193941,483,0.2866211,-1.9998169,0.2753296
1600962193942,484,-0.17675781,-0.47198486,-0.10992432
1600962193942,485,0.26367188,-1.1506958,-0.17437744
1600962193943,486,0.08569336,-1.8364868,0.14300537
1600962193944,487,-0.06713867,-0.3027954,0.028259277
1600962193944,488,0.3203125,-1.28302,0.20892334
1600962193946,489,-0.17675781,-0.47198486,-0.10992432
1600962193946,490,-0.0703125,-0.81427,0.08782959
1600962193946,491,0.08569336,-1.8364868,0.14300537
1600962193947,492,0.3203125,-1.28302,0.20892334
1600962193948,493,0.7558594,-0.43829346,0.16131592
1600962193949,494,-0.0703125,-0.81427,0.08782959
1600962193951,495,-0.4987793,-1.0215454,-0.1873169
1600962193951,496,0.7558594,-0.43829346,0.16131592
1600962193951,497,0.01171875,-1.5132446,0.29510498
1600962193951,498,-0.4987793,-1.0215454,-0.1873169
1600962193952,499,-0.18530273,-1.0684204,0.1984253
1600962193953,500,0.01171875,-1.5132446,0.29510498
1600962193954,501,0.079589844,-0.70880127,-0.055725098
1600962193955,502,-0.18530273,-1.0684204,0.1984253
1600962193955,503,-0.10107422,-0.40826416,-0.11651611
1600962193958,504,0.7404785,-1.967102,0.0770874
1600962193958,505,0.079589844,-0.70880127,-0.055725098
1600962193959,506,0.047607422,-1.1672974,0.016540527
1600962193961,507,-0.055664062,-0.5877075,0.006286621
1600962193965,508,-0.10107422,-0.40826416,-0.11651611
1600962193967,509,0.7404785,-1.967102,0.0770874
1600962193970,510,0.047607422,-1.1672974,0.016540527
1600962193971,511,-0.055664062,-0.5877075,0.006286621
1600962196068,512,-0.24853516,-0.7192993,-0.12652588
1600962196069,513,-0.44702148,-1.3738403,0.4376831
1600962196072,514,-0.24853516,-0.7192993,-0.12652588
1600962196073,515,-0.22167969,-1.1126099,0.5079956
1600962196077,516,-0.18383789,-0.5935669,0.15057373
1600962196077,517,-0.14355469,-0.49053955,-0.07891846
1600962196077,518,-0.44702148,-1.3738403,0.4376831
1600962196078,519,0.59106445,-1.6983032,0.11395264
1600962196078,520,-0.05053711,-1.3115845,0.12371826
1600962196079,521,-0.22167969,-1.1126099,0.5079956
1600962196079,522,0.037597656,-0.84747314,0.19598389
1600962196080,523,-0.18383789,-0.5935669,0.15057373
1600962196091,524,-0.0546875,-0.29815674,-0.13726807
1600962196092,525,-0.14355469,-0.49053955,-0.07891846
1600962196092,526,0.59106445,-1.6983032,0.11395264
1600962196092,527,-0.34814453,-1.5950317,0.29730225
1600962196092,528,-0.05053711,-1.3115845,0.12371826
1600962196094,529,-0.19824219,-1.2442017,0.15740967
1600962196099,530,0.037597656,-0.84747314,0.19598389
1600962196100,531,-0.047607422,-1.0183716,0.29974365
1600962196100,532,-0.0546875,-0.29815674,-0.13726807
1600962196100,533,0.09301758,-0.4036255,0.030456543
1600962196101,534,0.20117188,-0.73687744,-0.07550049
1600962196103,535,-0.34814453,-1.5950317,0.29730225
1600962196104,536,0.3137207,-1.2947388,0.32244873
1600962196105,537,-0.19824219,-1.2442017,0.15740967
1600962196107,538,0.6838379,-1.55719,0.215271
1600962196108,539,0.34350586,-0.7522583,-0.074523926
1600962196108,540,-0.047607422,-1.0183716,0.29974365
1600962196108,541,0.09301758,-0.4036255,0.030456543
1600962196108,542,0.20654297,-0.7979126,-0.019836426
1600962196108,543,0.20117188,-0.73687744,-0.07550049
1600962196109,544,-0.050048828,-0.50372314,-0.11260986
1600962196110,545,0.11425781,-1.33844,0.09197998
1600962196111,546,0.1394043,-1.5840454,-0.0071411133
1600962196111,547,0.3137207,-1.2947388,0.32244873
1600962196113,548,0.6838379,-1.55719,0.215271
1600962196113,549,-0.068603516,-0.6790161,0.0026245117
1600962196115,550,0.34350586,-0.7522583,-0.074523926
1600962196116,551,-0.057617188,-0.56256104,-0.105041504
1600962196116,552,0.20654297,-0.7979126,-0.019836426
1600962196118,553,0.5617676,-0.89971924,-0.089660645
1600962196118,554,-0.050048828,-0.50372314,-0.11260986
1600962196120,555,0.11425781,-1.33844,0.09197998
1600962196120,556,0.61621094,-1.8230591,-0.11578369
1600962196121,557,0.1394043,-1.5840454,-0.0071411133
1600962196122,558,0.58862305,-0.8418579,-0.11016846
1600962196122,559,-0.068603516,-0.6790161,0.0026245117
1600962196127,560,-0.2368164,-0.39434814,-0.08111572
1600962196128,561,-0.057617188,-0.56256104,-0.105041504
1600962196129,562,0.5617676,-0.89971924,-0.089660645
1600962196129,563,-0.35473633,-0.9492798,0.050476074
1600962196131,564,0.10961914,-1.2234497,0.60809326
1600962196132,565,0.61621094,-1.8230591,-0.11578369
1600962196133,566,-0.18798828,-1.3845825,0.35784912
1600962196133,567,0.58862305,-0.8418579,-0.11016846
1600962196135,568,-0.2368164,-0.39434814,-0.08111572
1600962196136,569,-0.35473633,-0.9492798,0.050476074
1600962196137,570,-0.66137695,-0.8496704,0.17132568
1600962196137,571,0.10961914,-1.2234497,0.60809326
1600962196138,572,-0.18798828,-1.3845825,0.35784912
1600962196138,573,0.13867188,-0.3977661,0.2062378
1600962196139,574,-0.66137695,-0.8496704,0.17132568
1600962196139,575,0.13867188,-0.3977661,0.2062378
1600962198760,576,0.30004883,-0.91363525,-0.030822754
1600962198761,577,-0.05493164,-1.7070923,0.17523193
1600962198762,578,0.30004883,-0.91363525,-0.030822754
1600962198763,579,0.10498047,-1.3137817,-0.004699707
1600962198764,580,-0.05493164,-1.7070923,0.17523193
1600962198768,581,0.10498047,-1.3137817,-0.004699707
1600962198769,582,-0.034179688,-0.8491821,-0.043762207
1600962198771,583,-0.034179688,-0.8491821,-0.043762207
1600962198772,584,0.05493164,-0.6651001,-0.038635254
1600962198774,585,0.05493164,-0.6651001,-0.038635254
1600962198774,586,-0.14868164,-1.0918579,-0.12823486
1600962198775,587,-0.14868164,-1.0918579,-0.12823486
1600962198776,588,-0.19018555,-1.3140259,0.058044434
1600962198776,589,-0.19018555,-1.3140259,0.058044434
1600962198777,590,-0.14160156,-0.5264282,0.10028076
1600962198777,591,-0.14160156,-0.5264282,0.10028076
1600962198778,592,-0.06713867,-0.53131104,-0.0491333
1600962198779,593,-0.06713867,-0.53131104,-0.0491333
1600962198779,594,-0.19067383,-1.029602,0.117614746
1600962198780,595,-0.19067383,-1.029602,0.117614746
1600962198780,596,0.27807617,-1.8745728,-0.013244629
1600962198782,597,0.27807617,-1.8745728,-0.013244629
1600962198782,598,0.18066406,-1.3955688,-0.034484863
1600962198784,599,0.18066406,-1.3955688,-0.034484863
1600962198784,600,0.039794922,-0.63409424,-0.059631348
1600962198785,601,0.039794922,-0.63409424,-0.059631348
1600962198786,602,-0.068603516,-0.8833618,-0.26031494
1600962198786,603,-0.068603516,-0.8833618,-0.26031494
1600962198788,604,-0.092285156,-1.3103638,-0.3982544
1600962198789,605,-0.092285156,-1.3103638,-0.3982544
1600962198789,606,-0.16723633,-1.0501099,-0.3328247
1600962198789,607,-0.16723633,-1.0501099,-0.3328247
1600962198789,608,-0.056152344,-0.8538208,-0.08843994
1600962198789,609,-0.056152344,-0.8538208,-0.08843994
1600962198790,610,-0.0715332,-0.62677,0.08856201
1600962198791,611,-0.0715332,-0.62677,0.08856201
1600962198791,612,0.38110352,-0.68927,0.27166748
1600962198791,613,0.38110352,-0.68927,0.27166748
1600962198792,614,-0.017822266,-1.5772095,0.40570068
1600962198793,615,0.12719727,-1.2976685,0.2423706
1600962198794,616,-0.017822266,-1.5772095,0.40570068
1600962198794,617,-0.057128906,-0.6397095,0.23529053
1600962198794,618,0.12719727,-1.2976685,0.2423706
1600962198795,619,-0.057128906,-0.6397095,0.23529053
1600962198795,620,0.040283203,-0.21246338,-0.050598145
1600962198796,621,-0.0061035156,-1.6487427,0.0065307617
1600962198796,622,0.040283203,-0.21246338,-0.050598145
1600962198797,623,-0.37524414,-1.4453735,-0.3110962
1600962198798,624,-0.0061035156,-1.6487427,0.0065307617
1600962198798,625,-0.17993164,-0.7407837,-0.18707275
1600962198798,626,-0.37524414,-1.4453735,-0.3110962
1600962198799,627,-0.07104492,-0.4199829,-0.23638916
1600962198799,628,-0.17773438,-1.5720825,-0.06866455
1600962198800,629,-0.17993164,-0.7407837,-0.18707275
1600962198800,630,0.23632812,-1.5169067,-0.20123291
1600962198801,631,-0.11303711,-1.203186,-0.16583252
1600962198802,632,-0.07104492,-0.4199829,-0.23638916
1600962198802,633,-0.011230469,-0.5762329,-0.046691895
1600962198802,634,-0.17773438,-1.5720825,-0.06866455
1600962198803,635,0.14355469,-0.6345825,-0.016662598
1600962198804,636,0.23632812,-1.5169067,-0.20123291
1600962198804,637,-0.11303711,-1.203186,-0.16583252
1600962198805,638,-0.011230469,-0.5762329,-0.046691895
1600962198805,639,0.14355469,-0.6345825,-0.016662598
1600962201296,640,0.19897461,-1.2910767,0.30706787
1600962201296,641,0.19897461,-1.2910767,0.30706787
1600962201297,642,0.055419922,-0.8694458,0.23358154
1600962201298,643,0.055419922,-0.8694458,0.23358154
1600962201299,644,0.06616211,-0.2456665,0.2074585
1600962201300,645,0.06616211,-0.2456665,0.2074585
1600962201301,646,0.41259766,-1.4995728,0.07269287
1600962201302,647,0.41259766,-1.4995728,0.07269287
1600962201303,648,0.1508789,-1.9998169,-0.27178955
1600962201304,649,0.1508789,-1.9998169,-0.27178955
1600962201306,650,0.29882812,-0.94415283,-0.3171997
1600962201307,651,0.29882812,-0.94415283,-0.3171997
1600962201307,652,0.20898438,-0.48028564,-0.3447876
1600962201307,653,0.20898438,-0.48028564,-0.3447876
1600962201309,654,0.048339844,-0.67193604,-0.18585205
1600962201310,655,-0.05078125,-1.4412231,0.02508545
1600962201311,656,0.048339844,-0.67193604,-0.18585205
1600962201312,657,0.043701172,-1.0523071,-0.028137207
1600962201313,658,0.21679688,-0.548645,0.029968262
1600962201314,659,0.2788086,-0.05206299,-0.011779785
1600962201315,660,-0.05078125,-1.4412231,0.02508545
1600962201315,661,-0.17480469,-1.9998169,-0.255188
1600962201316,662,0.043701172,-1.0523071,-0.028137207
1600962201316,663,-0.18261719,-1.3135376,-0.09210205
1600962201316,664,0.21679688,-0.548645,0.029968262
1600962201317,665,0.30639648,-0.49468994,0.13079834
1600962201317,666,0.2788086,-0.05206299,-0.011779785
1600962201318,667,-0.17480469,-1.9998169,-0.255188
1600962201319,668,-0.18115234,-0.7649536,-0.4595337
1600962201319,669,-0.18261719,-1.3135376,-0.09210205
1600962201320,670,0.30639648,-0.49468994,0.13079834
1600962201321,671,-0.12915039,-1.4985962,-0.1843872
1600962201321,672,-0.18115234,-0.7649536,-0.4595337
1600962201321,673,0.23217773,-0.7781372,-0.22686768
1600962201323,674,-0.12915039,-1.4985962,-0.1843872
1600962201324,675,-0.08935547,-0.6404419,-0.46124268
1600962201324,676,0.23217773,-0.7781372,-0.22686768
1600962201325,677,-0.08935547,-0.6404419,-0.46124268
1600962201326,678,-0.25805664,-1.3325806,-0.27471924
1600962201327,679,-0.25805664,-1.3325806,-0.27471924
1600962201327,680,-0.28808594,-1.5447388,-0.11505127
1600962201328,681,-0.28808594,-1.5447388,-0.11505127
1600962201328,682,-0.03466797,-1.2149048,-0.14605713
1600962201329,683,-0.03466797,-1.2149048,-0.14605713
1600962201329,684,-0.2919922,-0.56500244,-0.23614502
1600962201330,685,-0.2919922,-0.56500244,-0.23614502
1600962201330,686,0.5800781,-1.0142212,0.14764404
1600962201330,687,0.5800781,-1.0142212,0.14764404
1600962201331,688,0.095458984,-1.2891235,0.030944824
1600962201331,689,0.095458984,-1.2891235,0.030944824
1600962201331,690,0.13208008,-0.973938,0.08074951
1600962201332,691,0.13208008,-0.973938,0.08074951
1600962201332,692,0.1616211,-0.7078247,0.112976074
1600962201333,693,0.1616211,-0.7078247,0.112976074
1600962201333,694,-0.047851562,-0.45220947,-0.117248535
1600962201334,695,0.14453125,-1.4893188,0.13519287
1600962201335,696,0.11376953,-1.5281372,-0.16998291
1600962201336,697,-0.047851562,-0.45220947,-0.117248535
1600962201336,698,0.2211914,-0.35601807,0.0053100586
1600962201337,699,0.14453125,-1.4893188,0.13519287
1600962201337,700,-0.27905273,-0.960022,-0.03692627
1600962201338,701,0.11376953,-1.5281372,-0.16998291
1600962201339,702,0.2211914,-0.35601807,0.0053100586
1600962201340,703,-0.27905273,-0.960022,-0.03692627
1600962203841,704,0.025390625,-1.1878052,0.45037842
1600962203841,705,0.025390625,-1.1878052,0.45037842
1600962203842,706,-0.022216797,-1.2493286,0.40545654
1600962203846,707,-0.022216797,-1.2493286,0.40545654
1600962203848,708,-0.111572266,-0.46514893,0.105163574
1600962203849,709,-0.111572266,-0.46514893,0.105163574
1600962203850,710,-0.22290039,-0.5413208,-0.101867676
1600962203852,711,-0.22290039,-0.5413208,-0.101867676
1600962203853,712,-0.0026855469,-1.5991821,-0.47613525
1600962203854,713,0.7438965,-1.6316528,-0.002746582
1600962203854,714,-0.0026855469,-1.5991821,-0.47613525
1600962203858,715,0.053955078,-1.0735474,-0.29522705
1600962203858,716,0.7438965,-1.6316528,-0.002746582
1600962203859,717,0.025146484,-0.7119751,-0.23614502
1600962203860,718,0.053955078,-1.0735474,-0.29522705
1600962203861,719,0.29638672,-1.3418579,0.012634277
1600962203863,720,0.025146484,-0.7119751,-0.23614502
1600962203863,721,0.34545898,-1.4297485,0.040222168
1600962203864,722,0.29638672,-1.3418579,0.012634277
1600962203868,723,0.0703125,-0.56427,-0.13433838
1600962203869,724,0.34545898,-1.4297485,0.040222168
1600962203869,725,0.0703125,-0.56427,-0.13433838
1600962203869,726,0.0036621094,-0.32989502,0.101989746
1600962203870,727,0.0036621094,-0.32989502,0.101989746
1600962203871,728,0.033203125,-1.050354,0.35980225
1600962203871,729,0.033203125,-1.050354,0.35980225
1600962203873,730,-0.099853516,-1.576477,0.22064209
1600962203874,731,-0.099853516,-1.576477,0.22064209
1600962203874,732,0.08886719,-0.46173096,0.08001709
1600962203874,733,0.08886719,-0.46173096,0.08001709
1600962203877,734,0.032470703,-0.63775635,0.1762085
1600962203878,735,0.032470703,-0.63775635,0.1762085
1600962203878,736,-0.06201172,-1.755188,0.18988037
1600962203878,737,-0.06201172,-1.755188,0.18988037
1600962203878,738,0.11767578,-1.2144165,0.2694702
1600962203879,739,0.11767578,-1.2144165,0.2694702
1600962203880,740,0.060791016,-0.7173462,0.002380371
1600962203880,741,0.060791016,-0.7173462,0.002380371
1600962203881,742,0.0014648438,-0.6904907,0.06488037
1600962203882,743,-0.40600586,-1.703186,0.25775146
1600962203885,744,-0.27954102,-0.98809814,-0.05230713
1600962203886,745,0.0014648438,-0.6904907,0.06488037
1600962203886,746,-0.40600586,-1.703186,0.25775146
1600962203888,747,-0.27954102,-0.98809814,-0.05230713
1600962203890,748,-0.022460938,-0.83306885,-0.11260986
1600962203892,749,0.38916016,-0.6253052,0.051940918
1600962203892,750,-0.022460938,-0.83306885,-0.11260986
1600962203892,751,0.013183594,-1.428772,-0.031555176
1600962203893,752,0.38916016,-0.6253052,0.051940918
1600962203895,753,0.013183594,-1.428772,-0.031555176
1600962203895,754,0.4104004,-1.0527954,-3.0517578E-4
1600962203896,755,0.4104004,-1.0527954,-3.0517578E-4
1600962203896,756,0.13085938,-0.8682251,0.035583496
1600962203896,757,0.13085938,-0.8682251,0.035583496
1600962203898,758,-0.08544922,-0.81256104,-0.09503174
1600962203898,759,-0.08544922,-0.81256104,-0.09503174
1600962203899,760,0.03466797,-1.0806274,-0.09161377
1600962203899,761,0.03466797,-1.0806274,-0.09161377
1600962203900,762,0.69506836,-1.7781372,0.001159668
1600962203901,763,0.69506836,-1.7781372,0.001159668
1600962203901,764,0.13232422,-0.9697876,-0.027893066
1600962203902,765,0.13232422,-0.9697876,-0.027893066
1600962203903,766,0.016601562,-0.6433716,0.07220459
1600962203903,767,0.016601562,-0.6433716,0.07220459
1600962206756,768,-0.044677734,-0.692688,-0.049865723
1600962206757,769,-0.044677734,-0.692688,-0.049865723
1600962206758,770,0.33544922,-1.2764282,0.20477295
1600962206759,771,-0.055908203,-1.263977,0.12738037
1600962206769,772,0.33544922,-1.2764282,0.20477295
1600962206770,773,-0.02368164,-0.7498169,-0.04449463
1600962206771,774,-0.16772461,-0.8418579,0.024597168
1600962206771,775,-0.055908203,-1.263977,0.12738037
1600962206773,776,-0.2685547,-1.2539673,0.3295288
1600962206773,777,-0.02368164,-0.7498169,-0.04449463
1600962206773,778,-0.07397461,-0.7803345,0.22576904
1600962206775,779,-0.16772461,-0.8418579,0.024597168
1600962206776,780,-0.23999023,-0.72247314,-0.40802002
1600962206776,781,-0.2685547,-1.2539673,0.3295288
1600962206777,782,-0.07397461,-0.7803345,0.22576904
1600962206777,783,-0.0017089844,-1.3103638,-0.22735596
1600962206777,784,-0.23999023,-0.72247314,-0.40802002
1600962206778,785,-0.0017089844,-1.3103638,-0.22735596
1600962206780,786,0.14672852,-1.6428833,-0.039855957
1600962206780,787,0.14672852,-1.6428833,-0.039855957
1600962206781,788,0.17480469,-1.342102,-0.13433838
1600962206782,789,0.17480469,-1.342102,-0.13433838
1600962206782,790,-0.08178711,-0.76934814,0.008483887
1600962206782,791,-0.08178711,-0.76934814,0.008483887
1600962206783,792,-0.29101562,-0.39093018,-0.018127441
1600962206789,793,-0.29101562,-0.39093018,-0.018127441
1600962206789,794,-0.03857422,-0.88604736,0.22869873
1600962206790,795,-0.03857422,-0.88604736,0.22869873
1600962206790,796,-0.08569336,-1.4002075,0.1408081
1600962206790,797,-0.08569336,-1.4002075,0.1408081
1600962206790,798,-0.28271484,-0.6904907,0.16912842
1600962206791,799,0.123535156,-0.24713135,0.07879639
1600962206792,800,-0.28271484,-0.6904907,0.16912842
1600962206793,801,0.12182617,-1.0730591,-0.22930908
1600962206795,802,-0.1105957,-1.3672485,-0.3496704
1600962206795,803,0.123535156,-0.24713135,0.07879639
1600962206796,804,0.21777344,-1.4885864,-0.32452393
1600962206796,805,0.12182617,-1.0730591,-0.22930908
1600962206797,806,0.18945312,-1.0896606,-0.40167236
1600962206797,807,-0.1105957,-1.3672485,-0.3496704
1600962206799,808,-0.06225586,-0.95391846,-0.37408447
1600962206799,809,0.21777344,-1.4885864,-0.32452393
1600962206801,810,-0.52783203,-1.2315063,-0.20953369
1600962206801,811,0.18945312,-1.0896606,-0.40167236
1600962206806,812,-0.49731445,-1.6011353,-0.53448486
1600962206808,813,-0.06225586,-0.95391846,-0.37408447
1600962206808,814,-0.2121582,-1.286438,-0.1585083
1600962206815,815,-0.32666016,-0.8218384,-0.042785645
1600962206816,816,-0.52783203,-1.2315063,-0.20953369
1600962206818,817,-0.21850586,-0.40753174,-0.0095825195
1600962206818,818,-0.49731445,-1.6011353,-0.53448486
1600962206819,819,-0.018066406,-0.64801025,-0.06573486
1600962206820,820,-0.2121582,-1.286438,-0.1585083
1600962206820,821,0.0061035156,-1.0071411,-0.113098145
1600962206821,822,-0.32666016,-0.8218384,-0.042785645
1600962206821,823,-0.044921875,-1.1917114,-0.24786377
1600962206822,824,-0.21850586,-0.40753174,-0.0095825195
1600962206823,825,-0.018066406,-0.64801025,-0.06573486
1600962206823,826,0.0061035156,-1.0071411,-0.113098145
1600962206824,827,0.1965332,-0.89801025,0.29412842
1600962206824,828,-0.044921875,-1.1917114,-0.24786377
1600962206825,829,0.12792969,-0.6663208,0.12371826
1600962206825,830,0.1965332,-0.89801025,0.29412842
1600962206830,831,0.12792969,-0.6663208,0.12371826
1600962208900,832,0.16967773,-0.87506104,0.19793701
1600962208901,833,0.16967773,-0.87506104,0.19793701
1600962208902,834,0.37768555,-1.6072388,0.29412842
1600962208903,835,0.37768555,-1.6072388,0.29412842
1600962208905,836,0.047607422,-1.0435181,0.15301514
1600962208908,837,0.047607422,-1.0435181,0.15301514
1600962208909,838,0.055908203,-0.5730591,-0.020568848
1600962208909,839,0.055908203,-0.5730591,-0.020568848
1600962208909,840,-0.1315918,-0.9812622,-0.05987549
1600962208909,841,-0.1315918,-0.9812622,-0.05987549
1600962208910,842,-0.09643555,-1.1165161,0.10467529
1600962208910,843,0.14990234,-1.1084595,0.03753662
1600962208911,844,-0.09643555,-1.1165161,0.10467529
1600962208911,845,0.14990234,-1.1084595,0.03753662
1600962208912,846,-0.3400879,-1.2734985,0.013366699
1600962208912,847,-0.3400879,-1.2734985,0.013366699
1600962208913,848,-0.072753906,-0.91973877,-0.09088135
1600962208913,849,-0.072753906,-0.91973877,-0.09088135
1600962208914,850,-0.2121582,-0.88360596,0.046813965
1600962208917,851,-0.2121582,-0.88360596,0.046813965
1600962208920,852,-0.19580078,-1.3945923,0.049987793
1600962208921,853,-0.19580078,-1.3945923,0.049987793
1600962208921,854,0.17114258,-1.154602,0.19622803
1600962208923,855,0.020263672,-0.8032837,0.117370605
1600962208924,856,0.17114258,-1.154602,0.19622803
1600962208925,857,0.020263672,-0.8032837,0.117370605
