# Sensor position: Wrist
# Sensor side: Left
# Activity type: Movement
# Activity code: 9
# Subject id: S1707651
timestamp,seq,accel_x,accel_y,accel_z
1601454207848,0,0.19677734,-0.9795532,-0.30645752
1601454207848,1,0.27661133,-1.0088501,-0.26519775
1601454207848,2,0.20019531,-0.96051025,-0.25421143
1601454207848,3,0.1508789,-1.0552368,-0.2720337
1601454207849,4,0.21923828,-0.93829346,-0.29522705
1601454207849,5,0.2692871,-0.9246216,-0.2727661
1601454207850,6,0.18969727,-0.89190674,-0.3279419
1601454207850,7,0.1875,-0.756897,-0.42364502
1601454207851,8,0.13769531,-0.6524048,-0.49053955
1601454207851,9,0.083740234,-0.5276489,-0.4006958
1601454207851,10,-0.24536133,-0.5186157,-0.32965088
1601454207852,11,-0.8959961,-0.5137329,-0.44683838
1601454207852,12,-1.3022461,-0.5393677,-0.43023682
1601454207853,13,-1.5117188,-0.614563,-0.38848877
1601454207853,14,-1.1140137,-0.15460205,-0.46002197
1601454207854,15,-0.876709,-0.34259033,-0.55792236
1601454207854,16,-0.9189453,-0.6096802,-0.7095337
1601454207854,17,-1.2141113,-0.59552,-0.71295166
1601454207855,18,-1.2832031,-0.14898682,-0.6321411
1601454207855,19,-1.251709,-0.28619385,-0.65631104
1601454207856,20,-1.0358887,-0.2510376,-0.5491333
1601454207857,21,-0.7194824,-0.116760254,-0.42608643
1601454207857,22,-0.55078125,-0.043762207,-0.51763916
1601454207857,23,-0.7001953,-0.022033691,-0.5125122
1601454207858,24,-0.73950195,-0.020812988,-0.5852661
1601454207858,25,-0.7751465,-0.047912598,-0.75079346
1601454207861,26,-0.6652832,0.014343262,-1.0203247
1601454207861,27,-0.67626953,-0.18829346,-0.87164307
1601454207861,28,-0.47436523,-0.1651001,-0.91290283
1601454207861,29,-0.5427246,-0.11431885,-0.87750244
1601454207862,30,-0.5600586,0.05657959,-0.7749634
1601454207862,31,-0.609375,-0.042785645,-0.88848877
1601454210624,32,-0.54833984,-0.022033691,-0.942688
1601454210625,33,-0.46679688,-0.18560791,-0.88409424
1601454210626,34,-0.43017578,-0.29156494,-0.85723877
1601454210626,35,-0.46435547,-0.4446411,-0.9351196
1601454210627,36,-0.45458984,-0.4102173,-1.2471313
1601454210628,37,-0.31176758,-0.5042114,-0.98760986
1601454210628,38,-0.1508789,-0.49127197,-1.05719
1601454210629,39,0.037841797,-0.5183716,-0.84698486
1601454210630,40,0.13989258,-0.5947876,-0.6514282
1601454210630,41,0.13500977,-0.67974854,-0.59039307
1601454210631,42,0.07470703,-0.76275635,-0.5852661
1601454210632,43,0.03125,-0.83795166,-0.597229
1601454210633,44,0.040771484,-0.87579346,-0.61187744
1601454210633,45,0.10913086,-0.8491821,-0.59942627
1601454210634,46,0.12158203,-0.8584595,-0.61260986
1601454210635,47,0.03955078,-0.8899536,-0.53619385
1601454210637,48,-0.05517578,-0.89971924,-0.67852783
1601454210638,49,-0.11987305,-0.9199829,-0.5142212
1601454210638,50,-0.19750977,-0.98638916,-0.2539673
1601454210638,51,-0.15405273,-1.0737915,-0.12921143
1601454210639,52,-0.17382812,-1.0374146,-0.24224854
1601454210640,53,-0.18359375,-1.0484009,-0.16290283
1601454210640,54,-0.23510742,-1.029602,-0.09869385
1601454210641,55,-0.29003906,-0.97076416,-0.11798096
1601454210641,56,-0.24658203,-0.8328247,-0.18829346
1601454210642,57,-0.33911133,-0.85406494,-0.10357666
1601454210642,58,-0.56152344,-0.66070557,-0.027648926
1601454210643,59,-0.63916016,-0.7073364,-0.06719971
1601454210644,60,-1.0280762,-0.5964966,0.06121826
1601454210644,61,-1.265625,-0.90753174,-0.33087158
1601454210645,62,-1.0166016,-0.54815674,-0.4776001
1601454210645,63,-1.0722656,-0.47247314,-0.5779419
1601454213067,64,-1.2585449,-0.21832275,-0.42877197
1601454213068,65,-1.1464844,0.020446777,-0.33966064
1601454213070,66,-1.0351562,-0.26690674,-0.22003174
1601454213071,67,-1.0461426,-0.506897,-0.01373291
1601454213072,68,-1.119873,-0.5899048,-0.034729004
1601454213074,69,-1.1503906,-0.72052,-0.022766113
1601454213075,70,-1.135498,-0.9295044,0.0014038086
1601454213076,71,-0.9501953,-0.9368286,-0.011291504
1601454213079,72,-0.6430664,-0.79107666,-0.03765869
1601454213080,73,-0.3955078,-0.66534424,-0.13653564
1601454213080,74,-0.1928711,-0.67559814,-0.27496338
1601454213081,75,-0.030761719,-0.8428345,-0.28961182
1601454213082,76,0.091308594,-0.93707275,-0.30377197
1601454213082,77,0.16503906,-0.9331665,-0.42486572
1601454213083,78,0.18554688,-1.0403442,-0.27423096
1601454213084,79,0.1262207,-1.0293579,-0.24078369
1601454213085,80,0.072753906,-1.0022583,-0.29766846
1601454213085,81,0.026611328,-0.99005127,-0.23565674
1601454213086,82,0.057373047,-0.9553833,-0.30767822
1601454213088,83,0.07128906,-0.94366455,-0.31011963
1601454213088,84,0.15991211,-0.94537354,-0.30548096
1601454213088,85,0.07739258,-0.9546509,-0.36602783
1601454213088,86,0.14990234,-0.9036255,-0.33355713
1601454213089,87,0.15698242,-0.8948364,-0.33013916
1601454213090,88,0.13647461,-1.0374146,-0.24249268
1601454213091,89,0.10668945,-1.0493774,-0.17999268
1601454213091,90,0.09716797,-1.0564575,-0.15802002
1601454213092,91,0.052978516,-1.0933228,-0.13653564
1601454213092,92,0.017822266,-1.0803833,-0.12921143
1601454213093,93,-0.005126953,-1.0386353,-0.13580322
1601454213093,94,-0.044189453,-1.0317993,-0.13165283
1601454213094,95,-0.05078125,-1.0039673,-0.15460205
1601454215685,96,-0.029541016,-1.000061,-0.16851807
1601454215685,97,-0.024658203,-1.0335083,-0.17974854
1601454215686,98,-0.030273438,-1.0430298,-0.19317627
1601454215687,99,-0.040283203,-1.0169067,-0.19708252
1601454215687,100,-0.055664062,-1.0127563,-0.206604
1601454215689,101,-0.05102539,-1.0127563,-0.20562744
1601454215690,102,-0.045410156,-1.0278931,-0.20465088
1601454215691,103,-0.048583984,-1.0352173,-0.2029419
1601454215691,104,-0.051757812,-1.0300903,-0.20123291
1601454215692,105,-0.061523438,-1.0200806,-0.2107544
1601454215692,106,-0.06225586,-0.99420166,-0.2210083
1601454215693,107,-0.053955078,-1.0144653,-0.22906494
1601454215693,108,-0.04663086,-1.0244751,-0.23077393
1601454215694,109,-0.048339844,-1.0300903,-0.23150635
1601454215694,110,-0.07836914,-1.060852,-0.2276001
1601454215695,111,-0.14550781,-0.9993286,-0.24420166
1601454215696,112,-0.22729492,-0.8284302,-0.27398682
1601454215697,113,-0.35717773,-0.7637329,-0.23858643
1601454215697,114,-0.50756836,-0.706604,-0.3213501
1601454215698,115,-0.67089844,-0.57281494,-0.4258423
1601454215698,116,-0.88671875,-0.45196533,-0.48565674
1601454215699,117,-1.1567383,-0.27911377,-0.36627197
1601454215699,118,-1.3513184,-0.22076416,-0.37530518
1601454215700,119,-1.1416016,-0.15679932,-0.5083618
1601454215701,120,-0.9250488,-0.08258057,-0.5913696
1601454215701,121,-0.89086914,-0.1272583,-0.56573486
1601454215702,122,-0.85498047,-0.069885254,-0.6187134
1601454215702,123,-0.7722168,0.008728027,-0.6531372
1601454215703,124,-0.67529297,0.08001709,-0.75909424
1601454215704,125,-0.7102051,0.07684326,-0.9590454
1601454215705,126,-0.5180664,0.17156982,-0.9085083
1601454215706,127,-0.40039062,0.05706787,-0.99884033
1601454218125,128,-0.35986328,-0.19366455,-1.1296997
1601454218125,129,-0.40551758,-0.009094238,-0.7776489
1601454218125,130,-0.6894531,0.2296753,-0.8362427
1601454218127,131,-0.46923828,0.3085327,-0.6345825
1601454218127,132,-0.5620117,0.29315186,-0.6585083
1601454218128,133,-0.56884766,0.39178467,-0.69122314
1601454218129,134,-0.5180664,0.49578857,-0.8569946
1601454218130,135,-0.44335938,0.55682373,-0.93096924
1601454218131,136,-0.38720703,0.5922241,-0.6553345
1601454218132,137,-0.4033203,0.463562,-0.8640747
1601454218133,138,-0.42358398,0.43548584,-0.92852783
1601454218133,139,-0.44384766,0.49749756,-0.88897705
1601454218135,140,-0.54711914,0.32147217,-0.7271118
1601454218135,141,-0.6574707,0.2218628,-0.44586182
1601454218136,142,-0.89404297,0.0045776367,-0.43902588
1601454218137,143,-1.0598145,0.10394287,-0.5706177
1601454218138,144,-1.0786133,-0.13482666,-0.6296997
1601454218139,145,-1.1477051,-0.26641846,-0.76104736
1601454218140,146,-0.9946289,-0.39434814,-0.66656494
1601454218140,147,-1.0583496,-0.5137329,-0.46466064
1601454218141,148,-1.0439453,-0.41363525,-0.2617798
1601454218142,149,-0.91015625,-0.43170166,-0.08917236
1601454218143,150,-0.6838379,-0.6067505,0.023376465
1601454218144,151,-0.65722656,-0.5420532,-0.049621582
1601454218144,152,-0.79833984,-0.59161377,-0.13848877
1601454218145,153,-0.8310547,-0.64434814,-0.24737549
1601454218146,154,-0.94433594,-0.75445557,-0.11480713
1601454218147,155,-0.94799805,-0.6370239,-0.21051025
1601454218148,156,-1.0456543,-0.36090088,-0.014709473
1601454218149,157,-1.0153809,-0.44366455,0.054138184
1601454218149,158,-0.7595215,-0.58258057,0.07977295
1601454218150,159,-0.72558594,-0.62213135,-0.06304932
1601454221121,160,-0.76171875,-0.6140747,0.03363037
1601454221121,161,-0.8522949,-0.7620239,0.105895996
1601454221123,162,-0.82128906,-0.73565674,0.13470459
1601454221123,163,-0.7595215,-0.37945557,0.055603027
1601454221125,164,-0.84814453,-0.15216064,0.0072631836
1601454221125,165,-1.1901855,-0.49249268,0.19818115
1601454221126,166,-0.83813477,-0.7024536,0.1437378
1601454221127,167,-0.7668457,-0.37750244,0.14447021
1601454221127,168,-0.9499512,-0.34942627,0.035583496
1601454221128,169,-0.8532715,-0.62286377,-0.008850098
1601454221128,170,-0.8051758,-0.986145,0.010681152
1601454221129,171,-0.94506836,-1.0073853,-0.105285645
1601454221130,172,-1.4143066,-0.9402466,-0.18048096
1601454221131,173,-1.6276855,-0.77593994,-0.30499268
1601454221132,174,-1.3027344,-0.6140747,-0.3821411
1601454221132,175,-0.79541016,-0.409729,-0.26031494
1601454221133,176,-0.50512695,-0.3508911,-0.37139893
1601454221133,177,-0.24023438,-0.23687744,-0.37042236
1601454221134,178,-0.30249023,-0.394104,-0.42315674
1601454221135,179,0.057128906,-0.39337158,-1.0935669
1601454221136,180,-0.059570312,-0.35211182,-1.1047974
1601454221137,181,-0.05053711,-0.2793579,-1.1782837
1601454221137,182,0.037597656,-0.08477783,-1.0354614
1601454221138,183,0.064208984,0.034118652,-1.0806274
1601454221138,184,0.23144531,0.02923584,-1.0579224
1601454221138,185,0.33496094,0.081726074,-0.97662354
1601454221139,186,0.01171875,-0.68341064,-0.77423096
1601454221139,187,0.0146484375,-0.9812622,-0.4290161
1601454221139,188,0.04248047,-0.9463501,-0.4085083
1601454221140,189,-0.03125,-1.0083618,-0.5523071
1601454221141,190,-0.1237793,-0.9841919,-0.70025635
1601454221142,191,0.053955078,-0.9590454,-0.66778564
1601454223186,192,0.014892578,-0.755188,-0.54034424
1601454223186,193,-0.16918945,-0.9192505,-0.565979
1601454223187,194,-0.48608398,-0.21612549,-0.7661743
1601454223187,195,-0.22167969,-0.22711182,-0.7163696
1601454223188,196,-0.28100586,-0.55718994,-0.6831665
1601454223189,197,-0.54589844,-0.6235962,-0.6362915
1601454223189,198,-0.8874512,-0.7202759,-0.63604736
1601454223190,199,-1.1013184,-0.6079712,-0.40826416
1601454223190,200,-1.2341309,-0.78131104,-0.21002197
1601454223192,201,-1.2028809,-0.7024536,-0.1741333
1601454223193,202,-0.8515625,-0.8423462,-0.113098145
1601454223195,203,-0.4753418,-0.8843384,-0.20147705
1601454223195,204,-0.31713867,-0.78326416,-0.18707275
1601454223196,205,-0.3635254,-0.8164673,-0.105285645
1601454223197,206,-0.4958496,-0.85943604,-0.05621338
1601454223197,207,-0.62060547,-0.91900635,0.21038818
1601454223198,208,-0.69091797,-0.92315674,0.21234131
1601454223199,209,-0.6237793,-0.8731079,0.25946045
1601454223200,210,-0.63183594,-0.72247314,0.17913818
1601454223200,211,-0.5883789,-0.9697876,0.260437
1601454223201,212,-0.49902344,-0.9258423,0.23480225
1601454223201,213,-0.3959961,-0.9397583,0.15325928
1601454223201,214,-0.38256836,-0.9373169,0.13128662
1601454223202,215,-0.42041016,-0.9319458,0.12030029
1601454223202,216,-0.52075195,-0.9036255,0.15765381
1601454223203,217,-0.46655273,-0.84259033,0.023864746
1601454223203,218,-0.57958984,-0.8999634,0.08538818
1601454223204,219,-0.59033203,-0.866272,0.0758667
1601454223205,220,-0.62524414,-0.82110596,0.023864746
1601454223205,221,-0.7182617,-0.82818604,-0.039855957
1601454223205,222,-0.751709,-0.76885986,-0.051330566
1601454223205,223,-0.7739258,-0.8928833,0.08319092
1601454225812,224,-0.7758789,-0.8982544,0.3727417
1601454225813,225,-0.50439453,-0.86431885,0.23236084
1601454225814,226,-0.36132812,-0.8526001,-0.24053955
1601454225815,227,-0.32788086,-0.5979614,-0.6824341
1601454225817,228,-0.39575195,0.018005371,-0.80718994
1601454225818,229,-0.53564453,0.12786865,-0.8533325
1601454225819,230,-0.63012695,0.035339355,-0.82696533
1601454225820,231,-0.6376953,-0.042785645,-0.89190674
1601454225821,232,-0.67407227,-0.06964111,-0.9546509
1601454225822,233,-0.61083984,-0.06427002,-0.86602783
1601454225823,234,-0.5344238,0.015075684,-0.86553955
1601454225824,235,-0.71606445,-0.08721924,-0.90045166
1601454225825,236,-0.7770996,-0.16070557,-1.0772095
1601454225826,237,-0.5744629,-0.18145752,-1.0569458
1601454225827,238,-0.3869629,-0.40533447,-0.9890747
1601454225828,239,-0.21386719,-0.40093994,-0.93927
1601454225829,240,-0.09326172,-0.33795166,-0.90753174
1601454225829,241,-0.008300781,-0.26055908,-0.8855591
1601454225831,242,0.042236328,-0.2859497,-0.89190674
1601454225832,243,0.08276367,-0.3093872,-0.87872314
1601454225833,244,0.12768555,-0.34210205,-0.9116821
1601454225834,245,0.21972656,-0.32305908,-0.9221802
1601454225834,246,0.31811523,-0.36480713,-0.9077759
1601454225835,247,0.39794922,-0.36749268,-0.91412354
1601454225836,248,0.47583008,-0.4229126,-0.9053345
1601454225837,249,0.5432129,-0.44244385,-0.9385376
1601454225837,250,0.5239258,-0.36724854,-0.8152466
1601454225838,251,0.4440918,-0.43341064,-0.5286255
1601454225838,252,0.5209961,-0.3892212,-0.5540161
1601454225839,253,0.5024414,-0.35601807,-0.67803955
1601454225839,254,0.5090332,-0.27227783,-0.68292236
1601454225840,255,0.46875,-0.3789673,-0.7764282
1601454228439,256,0.2055664,-0.6668091,-0.6133423
1601454228440,257,0.104003906,-0.9624634,-0.5303345
1601454228441,258,-0.026123047,-1.0125122,-0.51226807
1601454228442,259,-0.21704102,-0.94317627,-0.581604
1601454228443,260,-0.2763672,-0.8731079,-0.67022705
1601454228445,261,-0.2409668,-0.7815552,-0.770813
1601454228447,262,-0.2529297,-0.6777954,-0.88726807
1601454228449,263,-0.28759766,-0.51446533,-0.97857666
1601454228450,264,-0.23632812,-0.4788208,-0.8765259
1601454228451,265,-0.23950195,-0.48883057,-0.9019165
1601454228452,266,-0.2824707,-0.45343018,-0.96710205
1601454228454,267,-0.3305664,-0.49346924,-1.067688
1601454228455,268,-0.27685547,-0.50787354,-0.8115845
1601454228456,269,-0.07519531,-0.4890747,-0.739563
1601454228457,270,-0.07080078,-0.9011841,-0.84625244
1601454228458,271,-0.23144531,-0.8311157,-0.4553833
1601454228459,272,-0.7001953,-0.33111572,-0.90753174
1601454228459,273,-0.83325195,-0.08721924,-0.8377075
1601454228460,274,-0.8190918,0.109802246,-0.6807251
1601454228461,275,-0.85180664,0.0038452148,-0.82159424
1601454228462,276,-0.63964844,0.12738037,-0.55181885
1601454228462,277,-0.5683594,0.18426514,-1.0022583
1601454228463,278,-0.5373535,0.26409912,-0.8718872
1601454228463,279,-0.52734375,0.27386475,-0.9246216
1601454228465,280,-0.47705078,0.21014404,-0.8887329
1601454228465,281,-0.51904297,0.17645264,-0.8674927
1601454228466,282,-0.46411133,0.2111206,-0.88165283
1601454228467,283,-0.48486328,0.15618896,-0.9138794
1601454228468,284,-0.5444336,0.15179443,-0.911438
1601454228468,285,-0.56591797,0.0836792,-0.86846924
1601454228470,286,-0.45214844,0.10369873,-1.0361938
1601454228471,287,-0.44799805,0.120788574,-0.97784424
1601454231053,288,-0.43725586,0.04559326,-0.86187744
1601454231053,289,-0.37329102,0.06097412,-0.8858032
1601454231054,290,-0.40771484,0.09564209,-1.0886841
1601454231054,291,-0.5415039,0.04119873,-0.9829712
1601454231055,292,-0.6455078,-0.36187744,-0.81695557
1601454231055,293,-0.7062988,-0.32769775,-0.6477661
1601454231056,294,-0.82666016,-0.45733643,-0.7349243
1601454231057,295,-0.38256836,-0.44830322,-0.77056885
1601454231057,296,-0.1394043,-0.59503174,-0.3640747
1601454231058,297,-0.21801758,-1.2456665,0.013122559
1601454231059,298,-0.28686523,-1.3025513,0.05609131
1601454231059,299,-0.31054688,-1.0969849,0.2411499
1601454231060,300,-0.36010742,-0.91290283,0.37347412
1601454231060,301,-0.27392578,-0.88165283,0.37371826
1601454231061,302,-0.27416992,-0.9299927,0.22283936
1601454231068,303,-0.4099121,-0.909729,-0.039123535
1601454231068,304,-0.5251465,-0.85601807,-0.32940674
1601454231068,305,-0.56152344,-0.7107544,-0.58306885
1601454231069,306,-0.57177734,-0.5010376,-0.7214966
1601454231069,307,-0.6213379,-0.32476807,-0.74420166
1601454231069,308,-0.65234375,-0.16436768,-0.7896118
1601454231069,309,-0.6616211,-0.050842285,-0.84259033
1601454231069,310,-0.6706543,0.059753418,-0.87091064
1601454231069,311,-0.64575195,0.10809326,-0.8596802
1601454231070,312,-0.64624023,0.012634277,-0.8623657
1601454231070,313,-0.63793945,-0.175354,-0.86602783
1601454231070,314,-0.5983887,-0.3670044,-0.48345947
1601454231071,315,-0.6503906,-0.8569946,0.043151855
1601454231071,316,-0.5930176,-0.9397583,0.3937378
1601454231072,317,-0.5366211,-0.89849854,0.1852417
1601454231073,318,-0.5263672,-0.9312134,0.22601318
1601454231073,319,-0.49536133,-0.8880005,0.20233154
1601454233496,320,-0.4658203,-0.8064575,0.2526245
1601454233497,321,-0.49609375,-0.6897583,0.25872803
1601454233498,322,-0.5024414,-0.7053833,0.33416748
1601454233498,323,-0.48120117,-0.7739868,0.36175537
1601454233499,324,-0.46166992,-0.85772705,0.44232178
1601454233500,325,-0.50390625,-0.9092407,0.5153198
1601454233501,326,-0.4819336,-0.89556885,0.57562256
1601454233501,327,-0.46850586,-0.90045166,0.5783081
1601454233502,328,-0.3786621,-0.87042236,0.5585327
1601454233503,329,-0.30615234,-0.88604736,0.49432373
1601454233504,330,-0.2697754,-0.897522,0.44036865
1601454233504,331,-0.18896484,-0.8987427,0.35516357
1601454233505,332,-0.15136719,-0.9336548,0.2723999
1601454233506,333,-0.09838867,-0.9758911,0.2411499
1601454233507,334,-0.068359375,-1.0120239,0.24627686
1601454233508,335,-0.096191406,-1.0723267,0.24261475
1601454233509,336,-0.16796875,-1.0545044,0.2921753
1601454233509,337,-0.3400879,-0.89312744,0.25531006
1601454233510,338,-0.40673828,-0.8648071,0.35638428
1601454233511,339,-0.26391602,-0.8076782,0.26654053
1601454233512,340,-0.1616211,-0.8623657,0.23846436
1601454233513,341,-0.16113281,-0.95147705,0.34906006
1601454233513,342,-0.19018555,-0.9607544,0.34906006
1601454233514,343,-0.18896484,-1.0237427,0.3961792
1601454233515,344,-0.16821289,-1.0230103,0.39642334
1601454233516,345,-0.13110352,-1.067688,0.5006714
1601454233517,346,-0.3149414,-0.9937134,0.5038452
1601454233517,347,-0.3330078,-0.88360596,0.47479248
1601454233518,348,-0.36547852,-0.848938,0.50653076
1601454233518,349,-0.33618164,-0.79034424,0.41693115
1601454233518,350,-0.24389648,-0.8267212,0.41107178
1601454233519,351,-0.14819336,-0.88531494,0.44036865
1601454236125,352,-0.115478516,-0.90411377,0.4303589
1601454236126,353,-0.09423828,-0.8936157,0.45306396
1601454236127,354,-0.08666992,-0.91363525,0.45672607
1601454236128,355,-0.18310547,-0.9356079,0.41156006
1601454236128,356,-0.2536621,-0.9534302,0.3685913
1601454236129,357,-0.3425293,-0.90460205,0.33441162
1601454236130,358,-0.40966797,-0.9031372,0.401062
1601454236131,359,-0.41918945,-0.87994385,0.38909912
1601454236132,360,-0.43017578,-0.88165283,0.3624878
1601454236134,361,-0.39257812,-0.86968994,0.3283081
1601454236135,362,-0.37451172,-0.87335205,0.33514404
1601454236136,363,-0.36523438,-0.87628174,0.32562256
1601454236138,364,-0.33740234,-0.9085083,0.32196045
1601454236138,365,-0.3083496,-0.91534424,0.29803467
1601454236138,366,-0.28881836,-0.9326782,0.32537842
1601454236139,367,-0.26513672,-0.9224243,0.37054443
1601454236139,368,-0.21850586,-0.9517212,0.4743042
1601454236140,369,-0.20996094,-0.96759033,0.574646
1601454236140,370,-0.17163086,-0.93927,0.49676514
1601454236141,371,-0.09423828,-0.9229126,0.4569702
1601454236142,372,-0.048583984,-0.96051025,0.31488037
1601454236142,373,-0.014404297,-0.96661377,0.2374878
1601454236144,374,0.064208984,-0.87872314,0.24749756
1601454236144,375,0.1105957,-0.8970337,0.27313232
1601454236145,376,0.09692383,-0.97491455,0.32000732
1601454236145,377,0.0034179688,-0.9524536,0.3463745
1601454236146,378,-0.035888672,-1.0584106,0.5258179
1601454236147,379,-0.09008789,-0.9624634,0.50946045
1601454236147,380,-0.12890625,-0.94537354,0.45477295
1601454236148,381,-0.05810547,-0.92266846,0.3607788
1601454236150,382,-0.0087890625,-0.9324341,0.21282959
1601454236150,383,-0.023925781,-0.96099854,0.23382568
1601454238562,384,-0.03515625,-0.9302368,0.2423706
1601454238564,385,-0.09741211,-0.99884033,0.36053467
1601454238564,386,-0.14257812,-0.9378052,0.47772217
1601454238565,387,-0.2824707,-1.0730591,0.24969482
1601454238566,388,-0.32299805,-1.0645142,-0.010803223
1601454238568,389,-0.40234375,-0.90167236,-0.3123169
1601454238568,390,-0.44677734,-0.6331177,-0.6309204
1601454238570,391,-0.48486328,-0.40118408,-0.861145
1601454238570,392,-0.43164062,-0.21173096,-0.93341064
1601454238572,393,-0.40576172,-0.0960083,-0.9656372
1601454238573,394,-0.3869629,-0.06427002,-0.9885864
1601454238576,395,-0.3864746,-0.07720947,-1.0181274
1601454238578,396,-0.38085938,-0.05621338,-1.0108032
1601454238579,397,-0.43041992,-0.07745361,-1.0237427
1601454238580,398,-0.5341797,-0.1519165,-0.9729614
1601454238580,399,-0.54785156,-0.31549072,-0.8335571
1601454238580,400,-0.5419922,-0.62823486,-0.6343384
1601454238582,401,-0.5187988,-0.8479614,-0.025939941
1601454238582,402,-0.44458008,-1.0357056,0.25604248
1601454238584,403,-0.38891602,-0.97735596,0.2633667
1601454238584,404,-0.36157227,-0.9089966,0.27264404
1601454238584,405,-0.34692383,-0.89630127,0.24676514
1601454238585,406,-0.33911133,-0.8887329,0.26263428
1601454238585,407,-0.33276367,-0.86505127,0.2909546
1601454238586,408,-0.34106445,-0.8723755,0.33148193
1601454238587,409,-0.30859375,-0.85479736,0.41156006
1601454238587,410,-0.29101562,-0.8389282,0.4196167
1601454238588,411,-0.21069336,-0.89556885,0.49261475
1601454238588,412,-0.1303711,-0.8899536,0.57440186
1601454238589,413,-0.115234375,-0.8557739,0.63446045
1601454238590,414,-0.10644531,-0.847229,0.60980225
1601454238590,415,-0.09790039,-0.786438,0.57244873
1601454241188,416,-0.1015625,-0.78863525,0.5866089
1601454241189,417,-0.11450195,-0.8357544,0.5614624
1601454241190,418,-0.06323242,-0.9187622,0.4664917
1601454241192,419,-0.08203125,-0.9209595,0.4850464
1601454241192,420,-0.103027344,-1.0117798,0.5409546
1601454241194,421,-0.1574707,-0.97857666,0.43988037
1601454241195,422,-0.23486328,-0.9873657,0.54681396
1601454241195,423,-0.3293457,-0.8123169,0.49725342
1601454241196,424,-0.234375,-0.8213501,0.4701538
1601454241196,425,-0.16088867,-0.83843994,0.26727295
1601454241197,426,-0.091796875,-0.89141846,0.24920654
1601454241198,427,-0.13232422,-0.9216919,0.3397827
1601454241199,428,-0.16235352,-0.940979,0.35028076
1601454241200,429,-0.23510742,-0.97076416,0.5282593
1601454241201,430,-0.34375,-0.94976807,0.49920654
1601454241202,431,-0.4963379,-0.8374634,0.38079834
1601454241202,432,-0.6088867,-0.79278564,0.46136475
1601454241203,433,-0.56884766,-0.7883911,0.45672607
1601454241203,434,-0.45898438,-0.7727661,0.4022827
1601454241205,435,-0.44384766,-0.786438,0.4772339
1601454241205,436,-0.43798828,-0.82598877,0.53778076
1601454241206,437,-0.5197754,-0.99102783,0.45599365
1601454241206,438,-0.49804688,-0.8418579,0.22503662
1601454241207,439,-0.3479004,-1.2388306,0.093688965
1601454241207,440,-0.005859375,-1.3745728,-0.3381958
1601454241208,441,-0.071777344,-0.8936157,-0.59039307
1601454241209,442,-0.23217773,-0.52130127,-0.60723877
1601454241209,443,-0.42407227,-0.44195557,-0.48809814
1601454241209,444,-0.8347168,-0.2276001,-0.7571411
1601454241210,445,-0.8935547,-0.1716919,-0.80181885
1601454241211,446,-0.8095703,0.013366699,-0.7764282
1601454241211,447,-0.6411133,-0.021057129,-0.94732666
1601454243812,448,-0.60546875,-0.027404785,-0.911438
1601454243813,449,-0.6176758,-0.004211426,-0.89556885
1601454243815,450,-0.59643555,-0.015197754,-0.8394165
1601454243816,451,-0.43237305,-0.109191895,-0.93218994
1601454243817,452,-0.4362793,-0.18121338,-0.753479
1601454243819,453,-0.71655273,-0.67022705,-0.63238525
1601454243819,454,-0.6359863,-0.48980713,-0.8220825
1601454243820,455,-0.5661621,-0.5286255,-0.67437744
1601454243821,456,-0.60058594,-0.57598877,-0.74884033
1601454243821,457,-0.62060547,-0.5076294,-0.9458618
1601454243822,458,-0.64746094,-0.6519165,-0.909729
1601454243823,459,-0.4140625,-0.6404419,-0.8179321
1601454243824,460,-0.18334961,-0.38482666,-0.5244751
1601454243824,461,-0.26904297,-0.40997314,-0.58966064
1601454243826,462,-0.4975586,-0.34405518,-1.2007446
1601454243826,463,-0.31835938,-0.7022095,-0.72735596
1601454243829,464,-0.13720703,-0.72979736,-0.5484009
1601454243830,465,-0.26416016,-1.005188,-0.5029907
1601454243831,466,-0.52490234,-0.9973755,-0.59552
1601454243831,467,-0.56884766,-0.63287354,-0.80914307
1601454243832,468,-0.5095215,-0.10357666,-0.7190552
1601454243833,469,-0.6376953,-0.18487549,-0.9351196
1601454243833,470,-0.5126953,-0.17877197,-0.9492798
1601454243836,471,-0.46606445,-0.35772705,-0.83135986
1601454243836,472,-0.43774414,-0.49493408,-0.83795166
1601454243837,473,-0.44628906,-0.57769775,-0.70977783
1601454243838,474,-0.49072266,-0.71661377,-0.6253052
1601454243838,475,-0.45776367,-0.9248657,-0.42633057
1601454243838,476,-0.48486328,-0.831604,-0.45025635
1601454243839,477,-0.4807129,-0.7280884,-0.62701416
1601454243842,478,-0.47607422,-0.6851196,-0.68707275
1601454243842,479,-0.5251465,-0.65826416,-0.6404419
1601454246252,480,-0.48413086,-0.60528564,-0.6694946
1601454246253,481,-0.47265625,-0.6240845,-0.6802368
1601454246255,482,-0.4885254,-0.77130127,-0.68536377
1601454246255,483,-0.5124512,-0.6604614,-0.7822876
1601454246255,484,-0.5185547,-0.6460571,-0.75079346
1601454246256,485,-0.42211914,-0.75250244,-0.46514893
1601454246257,486,-0.1965332,-1.145813,0.112976074
1601454246259,487,-0.011230469,-1.1763306,0.3817749
1601454246260,488,0.11669922,-1.1599731,0.5387573
1601454246260,489,0.20605469,-0.98394775,0.44769287
1601454246261,490,0.23999023,-0.7642212,0.22406006
1601454246261,491,0.30810547,-0.63482666,0.051940918
1601454246263,492,0.46435547,-0.64727783,-0.023986816
1601454246263,493,0.62890625,-0.6851196,0.074645996
1601454246264,494,0.5415039,-0.6621704,0.023132324
1601454246264,495,0.37939453,-0.63238525,0.013366699
1601454246266,496,0.19604492,-0.53741455,-0.008850098
1601454246266,497,0.1628418,-0.6987915,0.26531982
1601454246266,498,0.1574707,-1.0357056,0.38885498
1601454246268,499,-0.30566406,-1.3762817,0.15814209
1601454246268,500,-0.51831055,-1.2781372,-0.0635376
1601454246269,501,-0.59521484,-0.9727173,-0.13018799
1601454246270,502,-0.5944824,-0.8591919,-0.039855957
1601454246270,503,-0.6381836,-0.9302368,-0.006652832
1601454246271,504,-0.6516113,-0.90411377,0.031921387
1601454246272,505,-0.6455078,-0.86016846,0.1984253
1601454246273,506,-0.6328125,-0.86016846,0.34954834
1601454246273,507,-0.5917969,-0.87872314,0.33172607
1601454246276,508,-0.6520996,-0.8635864,0.20184326
1601454246276,509,-0.55908203,-0.9265747,0.10296631
1601454246276,510,-0.47680664,-0.95391846,0.06829834
1601454246276,511,-0.42114258,-0.95977783,0.03314209
1601454248875,512,-0.39575195,-0.93414307,0.05267334
1601454248876,513,-0.35668945,-0.91973877,-0.03643799
1601454248878,514,-0.29052734,-0.99176025,-0.101379395
1601454248883,515,-0.14575195,-1.003479,-0.02935791
1601454248883,516,-0.029052734,-1.024231,-0.09112549
1601454248883,517,0.072509766,-1.0667114,-0.0635376
1601454248886,518,0.1694336,-1.0606079,0.009216309
1601454248886,519,0.20703125,-1.0166626,0.028747559
1601454248889,520,0.25317383,-0.9463501,-0.002746582
1601454248889,521,0.3635254,-0.88531494,-0.02154541
1601454248889,522,0.38964844,-0.928772,-0.07183838
1601454248890,523,0.38476562,-0.89434814,-0.10797119
1601454248890,524,0.39746094,-0.8880005,-0.14068604
1601454248891,525,0.43017578,-0.9470825,-0.17755127
1601454248892,526,0.44458008,-0.9932251,-0.2029419
1601454248893,527,0.4177246,-0.97979736,-0.21466064
1601454248894,528,0.35498047,-1.0112915,-0.19488525
1601454248894,529,0.17626953,-0.9663696,-0.16680908
1601454248895,530,0.24389648,-0.9561157,-0.13800049
1601454248897,531,0.24560547,-0.88775635,-0.2131958
1601454248899,532,0.30322266,-0.8533325,-0.30474854
1601454248899,533,0.31201172,-0.8909302,-0.31524658
1601454248899,534,0.32055664,-0.8428345,-0.3045044
1601454248901,535,0.3388672,-0.88897705,-0.31695557
1601454248903,536,0.31054688,-0.95562744,-0.39239502
1601454248903,537,0.34350586,-0.9053345,-0.36236572
1601454248904,538,0.33984375,-1.0481567,-0.24029541
1601454248905,539,0.23925781,-1.0667114,-0.085754395
1601454248906,540,0.20361328,-0.96417236,-0.062072754
1601454248907,541,0.20092773,-1.125061,-0.050109863
1601454248908,542,0.11450195,-1.0674438,-0.06500244
1601454248910,543,0.12548828,-0.93292236,-0.12872314
1601454251502,544,0.17944336,-0.95440674,-0.13897705
1601454251504,545,0.2265625,-1.0071411,-0.12506104
1601454251504,546,0.27563477,-0.9697876,-0.1609497
1601454251505,547,0.3449707,-0.93707275,-0.20245361
1601454251506,548,0.42529297,-1.0198364,-0.24371338
1601454251506,549,0.2434082,-1.1294556,-0.28204346
1601454251508,550,0.079833984,-0.956604,-0.3015747
1601454251509,551,0.0073242188,-0.91973877,-0.33746338
1601454251511,552,-0.021728516,-0.9307251,-0.3110962
1601454251511,553,0.07006836,-0.92974854,-0.23638916
1601454251512,554,0.084472656,-1.0383911,-0.3057251
1601454251513,555,0.1081543,-1.0283813,-0.29205322
1601454251513,556,0.0925293,-1.0198364,-0.31524658
1601454251514,557,0.103027344,-1.0205688,-0.32159424
1601454251514,558,0.11743164,-1.0054321,-0.34088135
1601454251515,559,0.14819336,-0.9624634,-0.3032837
1601454251517,560,0.17578125,-0.9314575,-0.30841064
1601454251517,561,0.20605469,-0.90704346,-0.27886963
1601454251517,562,0.23535156,-0.91851807,-0.28155518
1601454251518,563,0.25732422,-0.9763794,-0.2420044
1601454251518,564,0.30444336,-0.97662354,-0.26275635
1601454251519,565,0.35205078,-0.9873657,-0.16241455
1601454251519,566,0.41210938,-0.956604,-0.109191895
1601454251520,567,0.42919922,-0.92144775,-0.073791504
1601454251521,568,0.4543457,-0.9014282,-0.07550049
1601454251521,569,0.5019531,-0.8574829,-0.08331299
1601454251522,570,0.43823242,-0.87677,-0.15411377
1601454251522,571,0.5004883,-0.8953247,-0.1482544
1601454251524,572,0.45898438,-0.8557739,-0.1873169
1601454251524,573,0.46728516,-0.90167236,-0.18218994
1601454251525,574,0.48828125,-0.90167236,-0.20050049
1601454251526,575,0.5012207,-0.9661255,-0.21905518
1601454253934,576,0.41333008,-1.0037231,-0.22442627
1601454253937,577,0.23828125,-0.94488525,-0.17730713
1601454253942,578,0.23730469,-0.9026489,-0.14508057
1601454253943,579,0.23706055,-0.9607544,-0.1453247
1601454253943,580,0.28027344,-0.8711548,-0.23956299
1601454253944,581,0.32055664,-0.9143677,-0.26837158
1601454253945,582,0.29736328,-0.96417236,-0.20343018
1601454253946,583,0.28955078,-0.96343994,-0.22784424
1601454253947,584,0.29296875,-0.90875244,-0.2883911
1601454253947,585,0.3095703,-1.0061646,-0.36138916
1601454253948,586,0.2631836,-1.022522,-0.51104736
1601454253948,587,0.22070312,-0.41314697,-0.9524536
1601454253950,588,0.09399414,-0.27374268,-1.041565
1601454253952,589,0.118896484,-0.1807251,-1.0606079
1601454253953,590,0.08325195,-0.10992432,-1.0596313
1601454253953,591,0.041992188,0.008239746,-1.0003052
1601454253954,592,0.05517578,0.14813232,-0.8386841
1601454253955,593,0.07446289,0.16497803,-0.8364868
1601454253955,594,0.10595703,0.18548584,-0.67974854
1601454253956,595,0.0063476562,-0.11114502,-0.51763916
1601454253957,596,-0.30297852,-0.5459595,-0.6277466
1601454253959,597,-0.73706055,-0.7102661,-0.5352173
1601454253959,598,-1.1765137,-0.54351807,-0.37091064
1601454253959,599,-1.4985352,-0.66900635,-0.44586182
1601454253960,600,-1.3881836,-0.3748169,-0.34747314
1601454253960,601,-1.0617676,-0.17852783,-0.30523682
1601454253961,602,-0.76293945,-0.4837036,-0.25201416
1601454253961,603,-0.7348633,-0.42852783,-0.32281494
1601454253962,604,-0.90722656,-0.35577393,-0.40997314
1601454253962,605,-1.1206055,-0.31402588,-0.45587158
1601454253963,606,-1.1315918,-0.22149658,-0.42266846
1601454253963,607,-1.2028809,-0.1765747,-0.4258423
1601454256560,608,-1.1455078,-0.053527832,-0.40899658
1601454256560,609,-1.1877441,-0.41778564,-0.23175049
1601454256561,610,-1.1889648,-0.5581665,-0.24102783
1601454256562,611,-0.9316406,-0.6609497,-0.25250244
1601454256563,612,-0.60424805,-0.70025635,-0.2456665
1601454256564,613,-0.22460938,-0.7424927,-0.18804932
1601454256565,614,0.080566406,-0.8115845,-0.109680176
1601454256565,615,0.20019531,-0.86383057,-0.0803833
1601454256566,616,0.23461914,-0.975647,-0.05230713
1601454256567,617,0.26416016,-0.97906494,-0.18267822
1601454256568,618,0.3293457,-0.9475708,-0.24835205
1601454256569,619,0.22607422,-0.91729736,-0.24102783
1601454256570,620,0.13720703,-0.9356079,-0.18585205
1601454256573,621,0.08984375,-1.0396118,-0.008850098
1601454256573,622,0.024902344,-0.9258423,-0.02520752
1601454256573,623,-0.036621094,-1.109436,0.030700684
1601454256575,624,0.061523438,-1.0383911,0.33294678
1601454256577,625,0.09375,-0.9800415,0.37371826
1601454256577,626,0.08300781,-0.954895,0.29364014
1601454256578,627,0.09790039,-0.9417114,0.28070068
1601454256578,628,0.07836914,-0.9595337,0.29510498
1601454256580,629,0.04711914,-0.9512329,0.30413818
1601454256581,630,0.05859375,-0.8809204,0.36029053
1601454256581,631,0.0949707,-0.9116821,0.39813232
1601454256581,632,0.16308594,-0.9397583,0.4569702
1601454256581,633,0.19335938,-0.93292236,0.524353
1601454256584,634,0.18847656,-0.91778564,0.5404663
1601454256585,635,0.18676758,-0.83551025,0.47601318
1601454256585,636,0.21557617,-0.8184204,0.4755249
1601454256585,637,0.19433594,-0.8804321,0.5133667
1601454256585,638,0.1772461,-0.9116821,0.5477905
1601454256585,639,0.15527344,-0.9265747,0.5470581
1601454259188,640,0.1381836,-0.89068604,0.5421753
1601454259188,641,0.14208984,-0.9170532,0.55511475
1601454259189,642,0.08178711,-0.95318604,0.5997925
1601454259189,643,0.03857422,-0.79937744,0.47479248
1601454259191,644,0.01977539,-0.7503052,0.51116943
1601454259191,645,0.03930664,-0.76226807,0.4857788
1601454259193,646,0.09863281,-0.82110596,0.44500732
1601454259193,647,0.109375,-0.87384033,0.45648193
1601454259193,648,0.104003906,-0.91485596,0.48406982
1601454259193,649,0.09838867,-0.9404907,0.5336304
1601454259194,650,0.10107422,-0.93218994,0.53118896
1601454259195,651,0.09790039,-0.98223877,0.62176514
1601454259196,652,-0.024414062,-0.88653564,0.6473999
1601454259197,653,-0.014892578,-0.67974854,0.5368042
1601454259197,654,-0.0021972656,-0.71539307,0.65545654
1601454259199,655,-0.044677734,-0.74102783,0.69451904
1601454259199,656,-0.0017089844,-0.7476196,0.65545654
1601454259199,657,0.034179688,-0.7805786,0.6522827
1601454259200,658,0.01977539,-0.8435669,0.69329834
1601454259200,659,-0.009765625,-0.8257446,0.65374756
1601454259204,660,0.033447266,-0.8201294,0.6100464
1601454259204,661,0.08251953,-0.7883911,0.5717163
1601454259204,662,0.12719727,-0.78375244,0.57562256
1601454259204,663,0.16088867,-0.80426025,0.59588623
1601454259204,664,0.13964844,-0.8689575,0.6173706
1601454259204,665,0.07446289,-0.89556885,0.56414795
1601454259205,666,0.030517578,-0.8880005,0.4718628
1601454259206,667,-0.013671875,-0.9170532,0.49041748
1601454259206,668,-0.03564453,-0.8882446,0.44281006
1601454259207,669,-0.018798828,-0.91119385,0.43841553
1601454259207,670,-0.02368164,-0.9299927,0.43255615
1601454259208,671,-0.041015625,-0.9282837,0.41400146
1601454261624,672,-0.0041503906,-0.8948364,0.40545654
1601454261625,673,0.026611328,-0.8633423,0.41326904
1601454261625,674,0.028564453,-0.88726807,0.44232178
1601454261627,675,0.030517578,-0.9155884,0.47821045
1601454261628,676,0.015625,-0.93048096,0.4923706
1601454261629,677,0.013916016,-0.9241333,0.4923706
1601454261631,678,0.011962891,-0.9282837,0.4911499
1601454261632,679,-0.0029296875,-0.90875244,0.5043335
1601454261633,680,-0.007080078,-0.8953247,0.508728
1601454261634,681,-0.029541016,-0.8694458,0.49847412
1601454261636,682,-0.03857422,-0.87823486,0.4940796
1601454261636,683,-0.04711914,-0.8858032,0.48065186
1601454261637,684,-0.048828125,-0.9116821,0.47772217
1601454261638,685,-0.04345703,-0.8892212,0.46453857
1601454261638,686,-0.014892578,-0.89727783,0.4640503
1601454261639,687,-0.03173828,-0.88897705,0.48651123
1601454261639,688,-0.032714844,-0.8521118,0.48602295
1601454261640,689,-0.01171875,-0.8779907,0.50823975
1601454261641,690,0.011230469,-0.89630127,0.53460693
1601454261641,691,0.022216797,-0.9356079,0.5516968
1601454261642,692,0.025878906,-0.895813,0.5348511
1601454261643,693,0.04272461,-0.84332275,0.5043335
1601454261643,694,0.06201172,-0.87335205,0.49261475
1601454261644,695,0.06347656,-0.881897,0.48968506
1601454261648,696,0.095703125,-0.8699341,0.4960327
1601454261649,697,0.107421875,-0.86065674,0.5075073
1601454261649,698,0.10131836,-0.86309814,0.52508545
1601454261649,699,0.11401367,-0.85235596,0.524353
1601454261649,700,0.10668945,-0.881897,0.5265503
1601454261649,701,0.06982422,-0.90289307,0.53338623
1601454261649,702,0.047851562,-0.8796997,0.5194702
1601454261650,703,0.044677734,-0.85821533,0.5126343
1601454264254,704,0.04711914,-0.8574829,0.51116943
1601454264263,705,0.079589844,-0.8587036,0.51556396
1601454264263,706,0.07836914,-0.8845825,0.5265503
1601454264263,707,0.053710938,-0.88848877,0.52874756
1601454264264,708,0.060058594,-0.8748169,0.5001831
1601454264264,709,0.06713867,-0.866272,0.49627686
1601454264264,710,0.067871094,-0.8777466,0.5199585
1601454264266,711,0.06201172,-0.88116455,0.5206909
1601454264268,712,0.072021484,-0.8687134,0.51483154
1601454264268,713,0.08154297,-0.8616333,0.5175171
1601454264275,714,0.07470703,-0.8753052,0.53533936
1601454264275,715,0.064941406,-0.86798096,0.52948
1601454264275,716,0.080078125,-0.8484497,0.5326538
1601454264276,717,0.100097656,-0.8518677,0.54486084
1601454264277,718,0.09350586,-0.85040283,0.5541382
1601454264277,719,0.08203125,-0.85357666,0.5529175
1601454264278,720,0.08325195,-0.85113525,0.53900146
1601454264278,721,0.08154297,-0.84869385,0.5397339
1601454264279,722,0.078125,-0.8533325,0.54193115
1601454264279,723,0.083496094,-0.84552,0.55096436
1601454264280,724,0.087646484,-0.84625244,0.5553589
1601454264280,725,0.08618164,-0.862854,0.5499878
1601454264281,726,0.09082031,-0.85601807,0.5380249
1601454264282,727,0.10449219,-0.8428345,0.5282593
1601454264283,728,0.1105957,-0.85113525,0.54022217
1601454264283,729,0.10424805,-0.8526001,0.5336304
1601454264284,730,0.092041016,-0.86602783,0.53240967
1601454264284,731,0.079589844,-0.8447876,0.5216675
1601454264285,732,0.09790039,-0.831604,0.5194702
1601454264285,733,0.099365234,-0.8440552,0.54071045
1601454264286,734,0.072021484,-0.8838501,0.559021
1601454264286,735,0.050048828,-0.88409424,0.54852295
1601454266871,736,0.041015625,-0.8753052,0.5319214
1601454266871,737,0.026367188,-0.85162354,0.52557373
1601454266872,738,0.02709961,-0.84991455,0.5343628
1601454266873,739,0.024414062,-0.86431885,0.5387573
1601454266874,740,-0.00390625,-0.9026489,0.5492554
1601454266875,741,-0.032470703,-0.91851807,0.52630615
1601454266876,742,-0.009277344,-0.90045166,0.4796753
1601454266877,743,0.020263672,-0.8587036,0.42816162
1601454266878,744,0.044189453,-0.8833618,0.42962646
1601454266879,745,0.037109375,-0.93341064,0.43841553
1601454266879,746,0.028564453,-0.92315674,0.434021
1601454266880,747,0.032470703,-0.9360962,0.42132568
1601454266882,748,0.0390625,-0.9121704,0.41448975
1601454266886,749,0.037353516,-0.93218994,0.42718506
1601454266886,750,0.02319336,-0.93536377,0.43304443
1601454266887,751,0.02734375,-0.9338989,0.42010498
1601454266888,752,0.032226562,-0.9229126,0.40740967
1601454266889,753,0.038330078,-0.92926025,0.40716553
1601454266890,754,0.03881836,-0.93414307,0.4171753
1601454266890,755,0.03491211,-0.93829346,0.4093628
1601454266892,756,0.03125,-0.93463135,0.39886475
1601454266892,757,0.030273438,-0.9373169,0.39813232
1601454266893,758,0.040039062,-0.9373169,0.39959717
1601454266893,759,0.041259766,-0.93634033,0.40325928
1601454266894,760,0.041015625,-0.93463135,0.40740967
1601454266894,761,0.03466797,-0.9356079,0.4015503
1601454266895,762,0.024658203,-0.9312134,0.4015503
1601454266896,763,0.0073242188,-0.9495239,0.4052124
1601454266896,764,0.031982422,-0.9194946,0.39935303
1601454266897,765,0.026367188,-0.9365845,0.39935303
1601454266901,766,0.016113281,-0.9480591,0.41497803
1601454266901,767,0.006591797,-0.94366455,0.41497803
1601454269314,768,0.0024414062,-0.93707275,0.40496826
1601454269315,769,0.0029296875,-0.92510986,0.41986084
1601454269316,770,-7.324219E-4,-0.9265747,0.44207764
1601454269318,771,0.009277344,-0.90338135,0.44085693
1601454269319,772,0.024414062,-0.90045166,0.4442749
1601454269321,773,0.018310547,-0.92388916,0.43914795
1601454269322,774,0.0034179688,-0.93878174,0.43841553
1601454269329,775,-0.004638672,-0.9373169,0.42669678
1601454269336,776,-0.0087890625,-0.93585205,0.4249878
1601454269337,777,-0.010986328,-0.9246216,0.4315796
1601454269337,778,-0.001953125,-0.92022705,0.4389038
1601454269337,779,0.0043945312,-0.9260864,0.43597412
1601454269337,780,-4.8828125E-4,-0.92144775,0.43572998
1601454269337,781,0.0012207031,-0.9265747,0.42596436
1601454269338,782,0.006591797,-0.9343872,0.42181396
1601454269338,783,0.0048828125,-0.9307251,0.41741943
1601454269338,784,0.010498047,-0.9338989,0.41644287
1601454269340,785,0.009521484,-0.93292236,0.4154663
1601454269341,786,0.011230469,-0.9302368,0.4130249
1601454269343,787,0.0146484375,-0.9282837,0.41448975
1601454269343,788,0.013427734,-0.9338989,0.41693115
1601454269344,789,0.0073242188,-0.9319458,0.41229248
1601454269345,790,0.016113281,-0.9282837,0.41253662
1601454269346,791,0.013671875,-0.9356079,0.42181396
1601454269347,792,0.012939453,-0.9336548,0.42303467
1601454269348,793,0.017578125,-0.92144775,0.41229248
1601454269349,794,0.021240234,-0.9282837,0.42718506
1601454269349,795,0.009033203,-0.92755127,0.42230225
1601454269350,796,0.021728516,-0.9187622,0.42718506
1601454269351,797,0.016601562,-0.9229126,0.44110107
1601454269351,798,-0.0061035156,-0.95318604,0.45404053
1601454269352,799,-0.009277344,-0.94000244,0.4303589
1601454271938,800,9.765625E-4,-0.91534424,0.41693115
1601454271940,801,0.0056152344,-0.8838501,0.41815186
1601454271941,802,0.037353516,-0.87579346,0.4406128
1601454271942,803,0.06201172,-0.8953247,0.46038818
1601454271943,804,0.043701172,-0.95098877,0.496521
1601454271944,805,0.014404297,-0.94000244,0.49066162
1601454271945,806,0.017578125,-0.9175415,0.46575928
1601454271951,807,-0.016357422,-0.9199829,0.46624756
1601454271951,808,-0.010986328,-0.8887329,0.44744873
1601454271952,809,-0.0107421875,-0.89923096,0.45257568
1601454271953,810,-0.033203125,-0.9314575,0.46429443
1601454271954,811,-0.025146484,-0.9151001,0.44769287
1601454271954,812,0.0107421875,-0.897522,0.43304443
1601454271956,813,0.017822266,-0.93096924,0.45404053
1601454271957,814,-0.022216797,-0.95269775,0.47406006
1601454271958,815,-0.0075683594,-0.93341064,0.4249878
1601454271958,816,0.0056152344,-0.94610596,0.369812
1601454271959,817,0.006591797,-0.9561157,0.3192749
1601454271960,818,0.018310547,-0.9673462,0.30169678
1601454271961,819,0.02368164,-0.9585571,0.28607178
1601454271961,820,0.008544922,-0.9846802,0.2855835
1601454271962,821,-0.018066406,-1.0088501,0.28338623
1601454271962,822,-0.064208984,-1.0303345,0.2645874
1601454271963,823,-0.107177734,-1.00177,0.22357178
1601454271964,824,-0.12939453,-0.98638916,0.19158936
1601454271964,825,-0.0925293,-0.96661377,0.19696045
1601454271965,826,-0.092041016,-0.97320557,0.18377686
1601454271966,827,-0.13745117,-1.0239868,0.21063232
1601454271966,828,-0.1652832,-1.0144653,0.20306396
1601454271967,829,-0.14697266,-0.97491455,0.20916748
1601454271967,830,-0.1274414,-0.94610596,0.2218628
1601454271969,831,-0.092285156,-0.9439087,0.307312
1601454274564,832,-0.091552734,-0.9692993,0.3932495
1601454274564,833,-0.068603516,-1.0210571,0.5223999
1601454274565,834,-0.03491211,-0.96588135,0.5717163
1601454274567,835,0.0029296875,-0.8484497,0.49822998
1601454274568,836,0.08300781,-0.8303833,0.47235107
1601454274569,837,0.08203125,-0.91119385,0.5429077
1601454274570,838,0.08496094,-0.9529419,0.50946045
1601454274571,839,0.13330078,-0.92559814,0.35614014
1601454274573,840,0.17773438,-0.93927,0.22796631
1601454274573,841,0.20458984,-0.99664307,0.23602295
1601454274575,842,0.19458008,-1.008606,0.18792725
1601454274585,843,0.10498047,-1.1047974,0.29974365
1601454274585,844,-0.04638672,-1.0283813,0.32806396
1601454274585,845,-0.11010742,-1.0125122,0.3463745
1601454274585,846,0.014160156,-0.9348755,0.14520264
1601454274585,847,0.15234375,-0.88775635,0.09295654
1601454274585,848,0.18969727,-0.8858032,0.051696777
1601454274585,849,0.1850586,-0.9602661,0.03363037
1601454274585,850,0.17822266,-1.0530396,0.07635498
1601454274585,851,0.2019043,-1.0894165,0.15960693
1601454274586,852,0.13745117,-1.2620239,0.15423584
1601454274586,853,0.087646484,-1.2219849,0.04144287
1601454274586,854,0.07421875,-0.78009033,-0.35699463
1601454274586,855,0.17236328,-0.64556885,-0.46636963
1601454274586,856,0.1574707,-0.8389282,-0.27471924
1601454274587,857,0.042236328,-1.0203247,-0.12799072
1601454274587,858,-0.045410156,-1.15802,0.0680542
1601454274588,859,-0.21020508,-1.00177,-0.012268066
1601454274591,860,-0.42089844,-0.93048096,0.022155762
1601454274591,861,-0.64208984,-0.9846802,-0.0032348633
1601454274591,862,-0.548584,-1.0095825,-0.12506104
1601454274591,863,-0.43554688,-1.0779419,-0.113342285
1601454277000,864,-0.50878906,-0.9168091,-0.25836182
1601454277001,865,-0.3894043,-0.98272705,-0.19024658
1601454277003,866,-0.087646484,-1.05719,-0.28253174
1601454277003,867,0.01953125,-0.9319458,-0.24273682
1601454277005,868,-0.15185547,-1.1187134,-0.1404419
1601454277005,869,-0.4206543,-1.0947876,-0.24884033
1601454277005,870,-0.50097656,-1.1055298,-0.14459229
1601454277006,871,-0.32788086,-1.0354614,-0.18389893
1601454277009,872,-0.2109375,-0.90631104,-0.23248291
1601454277009,873,-0.09375,-0.7625122,-0.32061768
1601454277009,874,-0.0146484375,-0.8875122,-0.31744385
1601454277009,875,-0.27026367,-1.0288696,-0.26153564
1601454277010,876,-0.19384766,-1.0730591,-0.3711548
1601454277012,877,-0.15698242,-1.0098267,-0.44293213
1601454277012,878,-0.0703125,-0.94415283,-0.39312744
1601454277013,879,-0.014892578,-0.9734497,-0.4331665
1601454277013,880,0.08618164,-0.83306885,-0.51812744
1601454277017,881,0.004638672,-1.0784302,-0.5022583
1601454277018,882,0.0625,-0.9783325,-0.57403564
1601454277018,883,0.1977539,-0.9920044,-0.42877197
1601454277018,884,0.17749023,-0.8833618,-0.56134033
1601454277018,885,0.24682617,-0.6543579,-0.5889282
1601454277019,886,0.12890625,-0.5418091,-0.5899048
1601454277021,887,0.080566406,-0.5322876,-0.8064575
1601454277022,888,0.07446289,-0.5039673,-0.9180298
1601454277022,889,0.031982422,-0.5210571,-0.975647
1601454277023,890,-0.064697266,-0.5640259,-0.9998169
1601454277024,891,-0.13793945,-0.3945923,-0.92071533
1601454277024,892,-0.25927734,-0.24542236,-0.9692993
1601454277025,893,-0.4116211,-0.17218018,-0.9819946
1601454277025,894,-0.41967773,-0.07183838,-0.9990845
1601454277027,895,-0.47387695,-0.0335083,-0.9961548
1601454279815,896,-0.44702148,-0.0115356445,-0.9697876
1601454279817,897,-0.40795898,-0.019836426,-0.9360962
1601454279818,898,-0.40771484,-0.008850098,-0.9451294
1601454279818,899,-0.41748047,-0.015686035,-0.9522095
1601454279819,900,-0.45458984,0.038757324,-0.9932251
1601454279820,901,-0.5349121,0.081726074,-0.9837036
1601454279821,902,-0.53222656,0.023864746,-0.9649048
1601454279822,903,-0.5144043,-0.3008423,-0.8530884
1601454279824,904,-0.29638672,-0.45758057,-0.784729
1601454279824,905,-0.13671875,-0.6314087,-0.6721802
1601454279826,906,-0.0017089844,-0.95635986,-0.2732544
1601454279826,907,0.107666016,-1.0825806,-0.23590088
1601454279828,908,0.1003418,-1.1296997,-0.090148926
1601454279832,909,0.19091797,-1.0479126,0.023132324
1601454279832,910,0.171875,-0.95758057,0.20135498
1601454279833,911,0.10961914,-1.0127563,0.043395996
1601454279833,912,0.024414062,-1.0066528,0.21795654
1601454279834,913,-0.040283203,-0.9873657,-0.21368408
1601454279834,914,0.19897461,-0.8521118,-0.40167236
1601454279835,915,0.18823242,-1.0220337,-0.33966064
1601454279836,916,-0.04711914,-1.2774048,0.02947998
1601454279837,917,-0.3190918,-1.0891724,-0.2798462
1601454279837,918,-0.4880371,-0.7822876,-0.5977173
1601454279838,919,-0.5270996,-0.3237915,-0.86505127
1601454279839,920,-0.57836914,-0.040100098,-0.8916626
1601454279839,921,-0.62158203,-0.0015258789,-0.80133057
1601454279840,922,-0.67041016,-0.035461426,-0.7554321
1601454279841,923,-0.8261719,-0.31549072,-0.77227783
1601454279842,924,-0.7307129,-0.30743408,-0.87384033
1601454279842,925,-0.63842773,-0.10479736,-0.9175415
1601454279843,926,-0.43481445,-0.31695557,-0.9368286
1601454279843,927,-0.4650879,-0.20880127,-1.0488892
1601454282436,928,-0.19042969,-0.07965088,-0.9985962
1601454282438,929,-0.26367188,0.050231934,-1.0112915
1601454282441,930,-0.4333496,0.1149292,-0.81866455
1601454282449,931,-0.5234375,0.35784912,-0.7493286
1601454282449,932,-0.46801758,0.4874878,-0.7373657
1601454282450,933,-0.45776367,0.5368042,-0.67144775
1601454282450,934,-0.60180664,0.5560913,-0.6321411
1601454282451,935,-0.5895996,0.4911499,-0.74468994
1601454282452,936,-0.59765625,0.4779663,-0.80963135
1601454282456,937,-0.47998047,0.4298706,-0.8164673
1601454282456,938,-0.35424805,-0.042785645,-0.94415283
1601454282457,939,-0.38232422,-0.20684814,-0.9077759
1601454282457,940,-0.51660156,-0.30914307,-0.7835083
1601454282457,941,-0.5966797,-0.5420532,-0.7485962
1601454282457,942,-0.48754883,-0.4883423,-0.9204712
1601454282457,943,-0.47680664,-0.40679932,-0.8701782
1601454282458,944,-0.46655273,-0.5120239,-0.7852173
1601454282460,945,-0.45092773,-0.53790283,-0.85601807
1601454282460,946,-0.43969727,-0.55718994,-0.8533325
1601454282460,947,-0.39624023,-0.11895752,-0.92437744
1601454282460,948,-0.6032715,-0.09503174,-0.80133057
1601454282461,949,-0.48608398,0.006286621,-0.93048096
1601454282463,950,-0.5263672,0.06365967,-0.91070557
1601454282465,951,-0.5217285,-0.09698486,-0.92755127
1601454282465,952,-0.5637207,-0.0335083,-0.94366455
1601454282465,953,-0.5280762,-0.0869751,-0.8057251
1601454282466,954,-0.50756836,-0.08721924,-0.9480591
1601454282466,955,-0.48486328,-0.18878174,-1.0210571
1601454282467,956,-0.4736328,-0.17340088,-0.8677368
1601454282468,957,-0.49169922,-0.1795044,-0.89556885
1601454282468,958,-0.49194336,-0.17388916,-0.90704346
1601454282469,959,-0.5114746,-0.17779541,-0.93878174
1601454284877,960,-0.4963379,-0.20513916,-0.8970337
1601454284878,961,-0.47729492,-0.22979736,-0.90582275
1601454284879,962,-0.48901367,-0.24664307,-0.91412354
1601454284881,963,-0.48510742,-0.23516846,-0.8933716
1601454284883,964,-0.4885254,-0.253479,-0.90167236
1601454284884,965,-0.5148926,-0.25079346,-0.9102173
1601454284885,966,-0.4958496,-0.21514893,-0.87506104
1601454284887,967,-0.45141602,-0.22198486,-0.9768677
1601454284889,968,-0.51293945,-0.2312622,-0.90093994
1601454284891,969,-0.49438477,-0.16729736,-0.85357666
1601454284892,970,-0.49291992,-0.16607666,-0.9312134
1601454284894,971,-0.4987793,-0.1831665,-0.9343872
1601454284896,972,-0.49731445,-0.16925049,-0.89849854
1601454284898,973,-0.50683594,-0.17730713,-0.892395
1601454284902,974,-0.49682617,-0.17706299,-0.92803955
1601454284902,975,-0.50219727,-0.17730713,-0.90997314
1601454284903,976,-0.50390625,-0.17193604,-0.9031372
1601454284903,977,-0.49951172,-0.18389893,-0.90997314
1601454284904,978,-0.49951172,-0.17315674,-0.9043579
1601454284904,979,-0.5046387,-0.1716919,-0.9019165
1601454284905,980,-0.49243164,-0.20098877,-0.923645
1601454284909,981,-0.5031738,-0.18780518,-0.9109497
1601454284909,982,-0.51220703,-0.18243408,-0.89556885
1601454284909,983,-0.5004883,-0.18634033,-0.8862915
1601454284909,984,-0.50805664,-0.17193604,-0.9312134
1601454284910,985,-0.50878906,-0.14605713,-0.9199829
1601454284910,986,-0.5229492,-0.1506958,-0.8933716
1601454284910,987,-0.49926758,-0.18780518,-0.911438
1601454284910,988,-0.5070801,-0.17584229,-0.9024048
1601454284910,989,-0.50878906,-0.1795044,-0.9053345
1601454284912,990,-0.5046387,-0.1585083,-0.90509033
1601454284913,991,-0.5097656,-0.16680908,-0.9187622
1601454287314,992,-0.5029297,-0.1951294,-0.89971924
1601454287314,993,-0.5041504,-0.19781494,-0.8999634
1601454287316,994,-0.5036621,-0.1897583,-0.90093994
1601454287316,995,-0.50512695,-0.18218994,-0.9104614
1601454287317,996,-0.5046387,-0.18585205,-0.91119385
1601454287318,997,-0.50512695,-0.19342041,-0.90216064
1601454287319,998,-0.5036621,-0.18951416,-0.9055786
1601454287319,999,-0.50512695,-0.19439697,-0.90411377
1601454287320,1000,-0.50439453,-0.1921997,-0.9077759
1601454287322,1001,-0.5036621,-0.1921997,-0.90460205
1601454287322,1002,-0.49829102,-0.21270752,-0.89556885
1601454287323,1003,-0.50146484,-0.21026611,-0.9024048
1601454287323,1004,-0.5058594,-0.19415283,-0.913147
1601454287324,1005,-0.49780273,-0.20880127,-0.9067993
1601454287325,1006,-0.49414062,-0.2131958,-0.9065552
1601454287325,1007,-0.5041504,-0.21490479,-0.90460205
1601454287326,1008,-0.49902344,-0.21881104,-0.89678955
1601454287327,1009,-0.4951172,-0.24713135,-0.9002075
1601454287327,1010,-0.48828125,-0.21270752,-0.9109497
1601454287327,1011,-0.50024414,-0.20953369,-0.89263916
1601454287328,1012,-0.49267578,-0.23248291,-0.90753174
1601454287328,1013,-0.48950195,-0.24005127,-0.9060669
1601454287329,1014,-0.48901367,-0.23883057,-0.9024048
1601454287329,1015,-0.49047852,-0.23272705,-0.9102173
1601454287330,1016,-0.49609375,-0.24420166,-0.90093994
1601454287332,1017,-0.4921875,-0.24908447,-0.89556885
1601454287333,1018,-0.48828125,-0.24517822,-0.9031372
1601454287333,1019,-0.49047852,-0.24346924,-0.9038696
1601454287334,1020,-0.4892578,-0.24493408,-0.895813
1601454287334,1021,-0.48950195,-0.24468994,-0.9011841
1601454287335,1022,-0.4885254,-0.2456665,-0.89971924
1601454287336,1023,-0.48901367,-0.2456665,-0.90093994
1601454289939,1024,-0.49145508,-0.24615479,-0.9043579
1601454289939,1025,-0.48828125,-0.2522583,-0.9031372
1601454289941,1026,-0.48754883,-0.2444458,-0.8999634
1601454289942,1027,-0.4885254,-0.24932861,-0.8953247
1601454289943,1028,-0.49047852,-0.25201416,-0.90093994
1601454289945,1029,-0.49145508,-0.24493408,-0.9026489
1601454289946,1030,-0.48657227,-0.24810791,-0.9055786
1601454289947,1031,-0.49072266,-0.24615479,-0.90045166
1601454289949,1032,-0.4892578,-0.24835205,-0.8982544
1601454289950,1033,-0.48876953,-0.2666626,-0.8904419
1601454289951,1034,-0.47509766,-0.2781372,-0.8677368
1601454289955,1035,-0.46899414,-0.222229,-0.94854736
1601454289956,1036,-0.46191406,-0.26617432,-0.99176025
1601454289956,1037,-0.4868164,-0.237854,-0.89971924
1601454289956,1038,-0.53222656,-0.28424072,-0.90704346
1601454289957,1039,-0.5041504,-0.22076416,-0.82769775
1601454289960,1040,-0.5073242,-0.144104,-0.861145
1601454289960,1041,-0.53515625,-0.15216064,-0.9072876
1601454289961,1042,-0.5383301,-0.11383057,-0.8115845
1601454289961,1043,-0.55493164,-0.20269775,-0.9168091
1601454289961,1044,-0.57666016,-0.14752197,-0.9343872
1601454289961,1045,-0.6706543,-0.005432129,-0.8262329
1601454289962,1046,-0.63305664,-0.14483643,-0.84088135
1601454289963,1047,-0.62402344,-0.057922363,-0.71954346
1601454289964,1048,-0.782959,0.15814209,-0.8735962
1601454289965,1049,-0.6623535,-0.10748291,-0.8760376
1601454289965,1050,-0.28198242,0.2736206,-0.95513916
1601454289966,1051,-0.15698242,-0.1296997,-1.2317505
1601454289966,1052,-0.29638672,-0.39996338,-0.86065674
1601454289967,1053,-0.46533203,-0.34259033,-0.91900635
1601454289968,1054,-0.63500977,-0.29400635,-0.8130493
1601454289969,1055,-0.5070801,-0.12164307,-0.8555298
1601454292375,1056,-0.6982422,-0.2810669,-0.7251587
1601454292377,1057,-0.7175293,-0.22491455,-0.83428955
1601454292381,1058,-0.8625488,0.030700684,-0.913147
1601454292382,1059,-0.7524414,-0.22589111,-0.7996216
1601454292383,1060,-0.55444336,-0.40093994,-0.83599854
1601454292384,1061,-0.3515625,-0.5154419,-0.960022
1601454292385,1062,-0.2475586,-0.831604,-0.81451416
1601454292387,1063,0.068359375,-0.9221802,-0.49517822
1601454292388,1064,0.18847656,-0.81036377,-0.49713135
1601454292390,1065,0.0715332,-0.4109497,-0.77471924
1601454292391,1066,0.064697266,-0.49468994,-0.5628052
1601454292393,1067,-0.029296875,-1.1033325,-0.52789307
1601454292397,1068,-0.43286133,-0.9788208,-0.48931885
1601454292397,1069,-0.7468262,-0.52423096,-0.7803345
1601454292397,1070,-0.87841797,-0.1663208,-0.8596802
1601454292404,1071,-0.9785156,-0.11871338,-0.79400635
1601454292404,1072,-0.795166,-0.010559082,-0.61260986
1601454292404,1073,-0.80615234,0.097351074,-0.60943604
1601454292404,1074,-0.8432617,-0.034240723,-0.7620239
1601454292404,1075,-0.7910156,0.019470215,-0.68829346
1601454292404,1076,-0.79541016,-0.034484863,-0.6848755
1601454292404,1077,-0.8112793,-0.044006348,-0.67681885
1601454292405,1078,-0.78686523,0.047058105,-0.56134033
1601454292405,1079,-0.85913086,-0.035705566,-0.6084595
1601454292405,1080,-0.8708496,0.023376465,-0.6616821
1601454292406,1081,-1.0339355,0.058044434,-0.6104126
1601454292407,1082,-1.1796875,0.043884277,-0.7554321
1601454292408,1083,-1.1035156,-0.04156494,-0.8640747
1601454292410,1084,-0.6911621,-0.14605713,-0.6370239
1601454292410,1085,-0.23535156,-0.030822754,-0.54815674
1601454292412,1086,-0.13305664,-0.22174072,-0.7444458
1601454292412,1087,-0.29638672,-0.27496338,-0.97320557
1601454295001,1088,-0.54833984,-0.2954712,-1.1902466
1601454295002,1089,-0.52319336,-0.40582275,-1.1035767
1601454295010,1090,-0.15942383,-0.37945557,-0.82598877
1601454295010,1091,-0.059326172,-0.58673096,-0.4973755
1601454295010,1092,-0.064941406,-0.73638916,-0.63726807
1601454295013,1093,-0.064453125,-0.96539307,-0.46099854
1601454295013,1094,-0.123291016,-1.0239868,-0.5322876
1601454295013,1095,-0.017333984,-0.99346924,-0.42144775
1601454295013,1096,-0.04321289,-1.0525513,-0.35040283
1601454295013,1097,-0.04711914,-0.97052,-0.2263794
1601454295013,1098,-0.039794922,-0.9673462,-0.17462158
1601454295013,1099,0.032470703,-1.0349731,-0.20587158
1601454295013,1100,0.016357422,-1.034729,-0.21807861
1601454295014,1101,0.01977539,-1.0261841,-0.18829346
1601454295015,1102,0.04638672,-1.0254517,-0.17120361
1601454295016,1103,0.017333984,-1.0459595,-0.15411377
1601454295017,1104,0.018798828,-1.0266724,-0.11578369
1601454295017,1105,0.046142578,-1.0213013,-0.105773926
1601454295020,1106,0.056640625,-1.0188599,-0.06964111
1601454295020,1107,0.048095703,-1.0254517,-0.086242676
1601454295020,1108,0.055908203,-1.0391235,-0.109436035
1601454295021,1109,0.047607422,-1.041565,-0.0869751
1601454295021,1110,0.041503906,-0.991272,-0.11529541
1601454295021,1111,0.02758789,-1.0193481,-0.13848877
1601454295021,1112,0.040283203,-1.0149536,-0.15362549
1601454295022,1113,0.03857422,-1.0515747,-0.124816895
1601454295024,1114,0.01953125,-1.039856,-0.13873291
1601454295025,1115,-0.015625,-1.0112915,-0.21173096
1601454295025,1116,-0.036865234,-1.048645,-0.23199463
1601454295025,1117,-0.009277344,-1.0681763,-0.2185669
1601454295025,1118,0.021484375,-1.0310669,-0.24151611
1601454295026,1119,0.034179688,-0.9680786,-0.38458252
1601454297630,1120,0.020263672,-0.9373169,-0.5437622
1601454297638,1121,0.03540039,-0.9036255,-0.59698486
1601454297638,1122,0.09667969,-0.8274536,-0.6050415
1601454297639,1123,0.078125,-0.7346802,-0.6604614
1601454297639,1124,0.110839844,-0.7788696,-0.6416626
1601454297640,1125,0.09716797,-0.7739868,-0.6506958
1601454297641,1126,0.013671875,-0.7144165,-0.7234497
1601454297642,1127,-0.07714844,-0.67559814,-0.82281494
1601454297643,1128,-0.18359375,-0.6567993,-0.7781372
1601454297644,1129,-0.21899414,-0.6465454,-0.79156494
1601454297645,1130,-0.28198242,-0.64263916,-0.8804321
1601454297645,1131,-0.2536621,-0.67681885,-0.76397705
1601454297648,1132,-0.27270508,-0.6482544,-0.7451782
1601454297650,1133,-0.23925781,-0.60235596,-0.81915283
1601454297650,1134,-0.23046875,-0.55474854,-0.8809204
1601454297650,1135,-0.3491211,-0.6021118,-0.91412354
1601454297650,1136,-0.28955078,-0.6026001,-0.7737427
1601454297651,1137,-0.36035156,-0.66607666,-0.88238525
1601454297651,1138,-0.3791504,-0.6148071,-0.79107666
1601454297652,1139,-0.30029297,-0.60113525,-0.79400635
1601454297653,1140,-0.3671875,-0.5918579,-0.8452759
1601454297653,1141,-0.47460938,-0.58795166,-0.7732544
1601454297654,1142,-0.6269531,-0.52301025,-0.72369385
1601454297655,1143,-0.6879883,-0.2888794,-0.72442627
1601454297656,1144,-0.748291,-0.47198486,-0.6502075
1601454297660,1145,-0.74560547,-0.6531372,-0.519104
1601454297660,1146,-0.69091797,-0.7529907,-0.3616333
1601454297660,1147,-0.7128906,-0.7444458,-0.18487549
1601454297660,1148,-0.88720703,-0.6748657,-0.2041626
1601454297661,1149,-1.0263672,-0.647522,-0.20880127
1601454297661,1150,-0.8725586,-0.9273071,-0.037902832
1601454297661,1151,-0.80566406,-0.83917236,-0.2000122
1601454300064,1152,-0.75439453,-0.5552368,0.11785889
1601454300065,1153,-0.7285156,-0.5886841,0.36224365
1601454300066,1154,-0.6203613,-0.67852783,0.3131714
1601454300067,1155,-0.6542969,-0.61676025,0.01727295
1601454300068,1156,-0.8391113,-0.8569946,0.11785889
1601454300069,1157,-0.8391113,-0.8423462,0.19720459
1601454300070,1158,-0.6945801,-0.8320923,0.1864624
1601454300073,1159,-0.7302246,-0.76348877,0.2399292
1601454300075,1160,-0.75683594,-0.77471924,0.2555542
1601454300075,1161,-0.76586914,-0.8225708,0.15325928
1601454300076,1162,-0.8540039,-0.68927,0.039245605
1601454300077,1163,-0.8833008,-0.48223877,-0.06573486
1601454300078,1164,-0.611084,-0.45147705,0.09320068
1601454300078,1165,-0.67456055,-0.42315674,0.07196045
1601454300079,1166,-1.0227051,-0.35821533,0.10321045
1601454300079,1167,-1.0905762,-0.53619385,0.1593628
1601454300080,1168,-0.9707031,-0.45318604,0.24847412
1601454300080,1169,-0.81152344,-0.64068604,0.15618896
1601454300081,1170,-0.79663086,-0.7190552,0.10614014
1601454300082,1171,-0.76953125,-0.6553345,0.051696777
1601454300082,1172,-0.90185547,-0.8616333,-0.008850098
1601454300083,1173,-1.0227051,-0.85601807,-0.19146729
1601454300083,1174,-0.91186523,-0.9168091,-0.27178955
1601454300084,1175,-0.84521484,-0.92926025,-0.34576416
1601454300085,1176,-0.7116699,-0.87579346,-0.3904419
1601454300085,1177,-0.5097656,-0.7024536,-0.49395752
1601454300086,1178,-0.5957031,-0.46929932,-0.53448486
1601454300087,1179,-0.9272461,-0.31158447,-0.6519165
1601454300087,1180,-1.0583496,-0.16802979,-0.7695923
1601454300088,1181,-0.5895996,0.02947998,-0.7905884
1601454300089,1182,-0.3149414,-0.1729126,-0.925354
1601454300090,1183,-0.36572266,-0.24224854,-1.0476685
1601454302684,1184,-0.5361328,-0.13677979,-1.1062622
1601454302687,1185,-0.32885742,-0.20928955,-0.88726807
1601454302688,1186,0.11303711,-0.49664307,-0.7210083
1601454302689,1187,0.4267578,-0.60357666,-0.5689087
1601454302690,1188,0.087890625,-0.25372314,-0.8267212
1601454302691,1189,-0.12207031,-0.77423096,-0.92633057
1601454302695,1190,0.119384766,-0.87750244,-0.87628174
1601454302695,1191,0.064453125,-0.6760864,-0.7407837
1601454302695,1192,-0.021484375,-0.7727661,-0.70318604
1601454302695,1193,0.036132812,-0.8633423,-0.61505127
1601454302695,1194,0.06762695,-0.798645,-0.6013794
1601454302696,1195,0.03100586,-0.87701416,-0.59698486
1601454302700,1196,0.07006836,-0.8464966,-0.6370239
1601454302700,1197,0.024658203,-0.8850708,-0.6651001
1601454302701,1198,0.030029297,-0.8196411,-0.6292114
1601454302701,1199,0.030029297,-0.8362427,-0.58966064
1601454302701,1200,-0.0014648438,-0.8687134,-0.5835571
1601454302701,1201,0.033203125,-0.87872314,-0.553772
1601454302701,1202,0.033447266,-0.89556885,-0.54522705
1601454302702,1203,0.024902344,-0.91070557,-0.5237427
1601454302702,1204,0.04638672,-0.94488525,-0.48809814
1601454302702,1205,0.032470703,-0.9378052,-0.47540283
1601454302702,1206,0.031982422,-0.944397,-0.4668579
1601454302703,1207,0.032714844,-0.94195557,-0.4607544
1601454302703,1208,0.01928711,-0.9402466,-0.458313
1601454302704,1209,0.009033203,-0.93414307,-0.44830322
1601454302705,1210,0.0029296875,-0.94659424,-0.45367432
1601454302706,1211,0.00390625,-0.94854736,-0.45074463
1601454302707,1212,0.0073242188,-0.95318604,-0.4360962
1601454302707,1213,0.0036621094,-0.9558716,-0.42462158
1601454302708,1214,-0.014892578,-0.9522095,-0.42242432
1601454302709,1215,-0.00390625,-0.96539307,-0.42852783
1601454305313,1216,-4.8828125E-4,-0.9602661,-0.42340088
1601454305313,1217,-0.008300781,-0.95098877,-0.41485596
1601454305314,1218,-0.0107421875,-0.96539307,-0.4192505
1601454305315,1219,-0.0014648438,-0.95928955,-0.409729
1601454305317,1220,0.0014648438,-0.96661377,-0.41192627
1601454305318,1221,0.0073242188,-0.9631958,-0.411438
1601454305319,1222,0.00390625,-0.96710205,-0.40704346
1601454305320,1223,0.001953125,-0.96539307,-0.40753174
1601454305321,1224,0.006591797,-0.9649048,-0.40460205
1601454305321,1225,0.0075683594,-0.96710205,-0.40045166
1601454305322,1226,0.0031738281,-0.96295166,-0.40338135
1601454305323,1227,0.0014648438,-0.97003174,-0.39678955
1601454305323,1228,0.0029296875,-0.9692993,-0.40167236
1601454305324,1229,0.0021972656,-0.96099854,-0.39752197
1601454305325,1230,0.0026855469,-0.9619751,-0.40948486
1601454305326,1231,-7.324219E-4,-0.960022,-0.40460205
1601454305326,1232,0.0024414062,-0.96417236,-0.39630127
1601454305326,1233,0.001953125,-0.96881104,-0.38897705
1601454305327,1234,-0.005126953,-0.9673462,-0.3862915
1601454305328,1235,-4.8828125E-4,-0.9746704,-0.3821411
1601454305328,1236,0.004638672,-0.9751587,-0.3862915
1601454305329,1237,0.005126953,-0.9734497,-0.37945557
1601454305329,1238,0.005126953,-0.97735596,-0.38165283
1601454305330,1239,0.004638672,-0.97613525,-0.37530518
1601454305331,1240,9.765625E-4,-0.9783325,-0.3743286
1601454305331,1241,0.010986328,-0.96588135,-0.38116455
1601454305332,1242,0.012207031,-0.97540283,-0.3814087
1601454305332,1243,0.008056641,-0.97540283,-0.378479
1601454305333,1244,0.014404297,-0.9727173,-0.37994385
1601454305333,1245,0.016845703,-0.97320557,-0.37554932
1601454305334,1246,0.013671875,-0.9678345,-0.38360596
1601454305334,1247,0.0053710938,-0.97076416,-0.3904419
1601454307751,1248,0.0031738281,-0.9678345,-0.39263916
1601454307752,1249,0.0014648438,-0.96832275,-0.3928833
1601454307753,1250,-0.0034179688,-0.9685669,-0.38946533
1601454307754,1251,-0.006591797,-0.9685669,-0.39093018
1601454307755,1252,-0.0041503906,-0.9710083,-0.3953247
1601454307756,1253,-0.005859375,-0.9690552,-0.39678955
1601454307757,1254,-0.0075683594,-0.9651489,-0.39630127
1601454307758,1255,-0.008300781,-0.9678345,-0.39849854
1601454307758,1256,-0.0073242188,-0.9690552,-0.39898682
1601454307759,1257,0.0,-0.9627075,-0.39849854
1601454307760,1258,0.0014648438,-0.96759033,-0.39727783
1601454307760,1259,-0.0017089844,-0.9690552,-0.38946533
1601454307761,1260,-0.004638672,-0.9656372,-0.3928833
1601454307761,1261,-0.004638672,-0.97125244,-0.39117432
1601454307762,1262,-0.0031738281,-0.9710083,-0.3892212
1601454307762,1263,-0.009521484,-0.97003174,-0.3892212
1601454307763,1264,-0.0073242188,-0.97125244,-0.3887329
1601454307764,1265,-0.0056152344,-0.9673462,-0.3875122
1601454307764,1266,-0.005859375,-0.96832275,-0.3904419
1601454307765,1267,-0.0029296875,-0.9729614,-0.3892212
1601454307765,1268,-0.001953125,-0.97198486,-0.38482666
1601454307768,1269,0.0034179688,-0.96832275,-0.3916626
1601454307768,1270,0.0021972656,-0.9729614,-0.3862915
1601454307772,1271,0.008056641,-0.9690552,-0.3821411
1601454307772,1272,0.0107421875,-0.9685669,-0.39117432
1601454307772,1273,0.009765625,-0.96954346,-0.3838501
1601454307772,1274,0.009765625,-0.9690552,-0.38336182
1601454307772,1275,0.010986328,-0.97247314,-0.38726807
1601454307773,1276,0.009033203,-0.9714966,-0.3809204
1601454307773,1277,0.010498047,-0.97613525,-0.37384033
1601454307773,1278,0.012207031,-0.972229,-0.37921143
1601454307773,1279,0.018798828,-0.9746704,-0.380188
1601454310375,1280,0.010009766,-0.97442627,-0.3867798
1601454310375,1281,0.010986328,-0.97052,-0.38848877
1601454310375,1282,0.015136719,-0.97125244,-0.38433838
1601454310376,1283,0.011962891,-0.97076416,-0.3899536
1601454310376,1284,0.010009766,-0.9697876,-0.38726807
1601454310376,1285,0.0107421875,-0.97076416,-0.3867798
1601454310377,1286,0.0087890625,-0.9702759,-0.38775635
1601454310379,1287,0.011474609,-0.9680786,-0.38311768
1601454310380,1288,0.011962891,-0.96954346,-0.38897705
1601454310380,1289,0.0061035156,-0.97491455,-0.3850708
1601454310380,1290,0.008544922,-0.9690552,-0.38360596
1601454310380,1291,0.010986328,-0.9685669,-0.38287354
1601454310381,1292,0.0107421875,-0.9727173,-0.3821411
1601454310382,1293,0.009521484,-0.9714966,-0.38531494
1601454310382,1294,0.0107421875,-0.973938,-0.3867798
1601454310383,1295,0.010253906,-0.972229,-0.38043213
1601454310383,1296,0.010498047,-0.9741821,-0.3838501
1601454310385,1297,0.010009766,-0.9690552,-0.38409424
1601454310385,1298,0.013916016,-0.973938,-0.38458252
1601454310385,1299,0.010253906,-0.97442627,-0.38311768
1601454310386,1300,0.011962891,-0.9692993,-0.38482666
1601454310386,1301,0.009765625,-0.96881104,-0.3838501
1601454310387,1302,0.009765625,-0.9729614,-0.38238525
1601454310387,1303,0.0068359375,-0.96954346,-0.38458252
1601454310389,1304,0.0087890625,-0.97247314,-0.38580322
1601454310389,1305,0.012451172,-0.9685669,-0.3838501
1601454310390,1306,0.008056641,-0.97369385,-0.3838501
1601454310391,1307,0.008056641,-0.9710083,-0.38482666
1601454310391,1308,0.009765625,-0.973938,-0.3887329
1601454310392,1309,0.008056641,-0.9729614,-0.38580322
1601454310392,1310,0.0087890625,-0.9697876,-0.38238525
1601454310393,1311,0.009033203,-0.9697876,-0.3809204
1601454312998,1312,0.008056641,-0.9717407,-0.3809204
1601454312998,1313,0.009765625,-0.9690552,-0.37799072
1601454312999,1314,0.006591797,-0.972229,-0.37994385
1601454313000,1315,0.009277344,-0.97198486,-0.38165283
1601454313001,1316,0.008544922,-0.97052,-0.3789673
1601454313002,1317,0.006591797,-0.97540283,-0.37872314
1601454313004,1318,0.009765625,-0.97125244,-0.3850708
1601454313005,1319,0.008056641,-0.9729614,-0.38238525
1601454313007,1320,0.0056152344,-0.96881104,-0.37994385
1601454313007,1321,0.011230469,-0.9697876,-0.38067627
1601454313008,1322,0.0078125,-0.97003174,-0.38287354
1601454313009,1323,0.0073242188,-0.9690552,-0.3850708
1601454313010,1324,0.007080078,-0.97125244,-0.38482666
1601454313011,1325,0.009521484,-0.97052,-0.3850708
1601454313012,1326,0.008544922,-0.96954346,-0.38458252
1601454313013,1327,0.0056152344,-0.9734497,-0.38067627
1601454313013,1328,0.008056641,-0.96954346,-0.38433838
1601454313014,1329,0.005859375,-0.9746704,-0.38067627
1601454313015,1330,0.009033203,-0.97442627,-0.38189697
1601454313018,1331,0.008544922,-0.973938,-0.38336182
1601454313018,1332,0.008056641,-0.9717407,-0.37872314
1601454313018,1333,0.009033203,-0.97198486,-0.38165283
1601454313018,1334,0.005126953,-0.9734497,-0.3821411
1601454313018,1335,0.0053710938,-0.96954346,-0.38458252
1601454313020,1336,0.008300781,-0.97125244,-0.38311768
1601454313020,1337,0.010009766,-0.97320557,-0.38482666
1601454313021,1338,0.006591797,-0.9710083,-0.38189697
1601454313023,1339,0.0061035156,-0.9751587,-0.3867798
1601454313023,1340,0.009521484,-0.9751587,-0.3850708
1601454313023,1341,0.0068359375,-0.9685669,-0.3821411
1601454313024,1342,0.009277344,-0.9702759,-0.3838501
1601454313024,1343,0.008056641,-0.97198486,-0.38067627
1601454315438,1344,0.0073242188,-0.9697876,-0.38433838
1601454315438,1345,0.008300781,-0.96881104,-0.3838501
1601454315439,1346,0.0056152344,-0.9710083,-0.38433838
1601454315439,1347,0.0068359375,-0.9746704,-0.38409424
1601454315441,1348,0.005859375,-0.97125244,-0.37994385
1601454315441,1349,0.0063476562,-0.9727173,-0.38360596
1601454315442,1350,0.004638672,-0.96539307,-0.38287354
1601454315443,1351,0.009033203,-0.9768677,-0.3838501
1601454315445,1352,0.008300781,-0.972229,-0.38409424
1601454315447,1353,0.007080078,-0.97125244,-0.3880005
1601454315447,1354,0.010498047,-0.9714966,-0.38409424
1601454315448,1355,0.0075683594,-0.9710083,-0.39019775
1601454315454,1356,0.005859375,-0.97052,-0.39263916
1601454315456,1357,0.0075683594,-0.97125244,-0.39215088
1601454315456,1358,0.008056641,-0.9702759,-0.39215088
1601454315457,1359,0.0063476562,-0.9661255,-0.3880005
1601454315458,1360,0.009765625,-0.9663696,-0.38775635
1601454315459,1361,0.010498047,-0.9734497,-0.3875122
1601454315459,1362,0.008056641,-0.9673462,-0.38116455
1601454315460,1363,0.007080078,-0.9729614,-0.3862915
1601454315461,1364,0.009765625,-0.9717407,-0.38653564
1601454315462,1365,0.008544922,-0.96759033,-0.3875122
1601454315469,1366,0.011230469,-0.97052,-0.39483643
1601454315469,1367,0.012451172,-0.9673462,-0.3904419
1601454315470,1368,0.014404297,-0.97052,-0.39385986
1601454315470,1369,0.009033203,-0.9690552,-0.39361572
1601454315471,1370,-0.001953125,-0.96295166,-0.395813
1601454315472,1371,0.008544922,-0.9800415,-0.39434814
1601454315472,1372,0.027832031,-0.973938,-0.36920166
1601454315473,1373,0.026367188,-0.96881104,-0.3772583
1601454315473,1374,0.024169922,-0.97662354,-0.38116455
1601454315474,1375,0.024169922,-0.97052,-0.38653564
1601454318061,1376,0.0146484375,-0.9763794,-0.3916626
1601454318061,1377,0.013916016,-0.9714966,-0.39630127
1601454318062,1378,0.016357422,-0.9673462,-0.378479
1601454318063,1379,0.016357422,-0.96588135,-0.38043213
1601454318064,1380,0.009521484,-0.9758911,-0.38116455
1601454318065,1381,0.009277344,-0.97052,-0.3867798
1601454318066,1382,0.015136719,-0.97320557,-0.380188
1601454318066,1383,0.017578125,-0.9714966,-0.3731079
1601454318067,1384,0.024658203,-0.9805298,-0.37701416
1601454318068,1385,0.022949219,-0.98687744,-0.38897705
1601454318069,1386,0.017822266,-0.9783325,-0.3789673
1601454318070,1387,0.018798828,-0.9741821,-0.378479
1601454318072,1388,0.01977539,-0.96954346,-0.3814087
1601454318074,1389,0.014404297,-0.9673462,-0.38433838
1601454318074,1390,0.013183594,-0.9690552,-0.3862915
1601454318075,1391,0.007080078,-0.9678345,-0.3899536
1601454318075,1392,0.0053710938,-0.9661255,-0.38824463
1601454318076,1393,0.0036621094,-0.96221924,-0.38653564
1601454318080,1394,0.0034179688,-0.9678345,-0.3862915
1601454318080,1395,0.0024414062,-0.9673462,-0.3953247
1601454318080,1396,0.001953125,-0.9734497,-0.3904419
1601454318080,1397,0.001953125,-0.9741821,-0.39019775
1601454318080,1398,0.0021972656,-0.96832275,-0.38653564
1601454318080,1399,-4.8828125E-4,-0.96881104,-0.38287354
1601454318081,1400,0.0034179688,-0.96954346,-0.38482666
1601454318081,1401,0.0017089844,-0.97247314,-0.3796997
1601454318082,1402,0.001953125,-0.972229,-0.38287354
1601454318083,1403,9.765625E-4,-0.9771118,-0.3789673
1601454318083,1404,0.0024414062,-0.973938,-0.38116455
1601454318084,1405,0.0034179688,-0.9795532,-0.37652588
1601454318085,1406,0.0053710938,-0.9729614,-0.3760376
1601454318085,1407,0.004638672,-0.97369385,-0.37408447
1601454320688,1408,0.005859375,-0.97662354,-0.37091064
1601454320689,1409,0.006591797,-0.97540283,-0.37261963
1601454320689,1410,0.0031738281,-0.98394775,-0.37677002
1601454320690,1411,0.006591797,-0.9746704,-0.3731079
1601454320691,1412,0.009033203,-0.9751587,-0.3723755
1601454320693,1413,0.0056152344,-0.9734497,-0.37628174
1601454320693,1414,0.005859375,-0.973938,-0.37652588
1601454320693,1415,0.007080078,-0.97735596,-0.37994385
1601454320694,1416,0.010253906,-0.9793091,-0.37823486
1601454320695,1417,0.007080078,-0.9768677,-0.37677002
1601454320696,1418,0.011230469,-0.97125244,-0.3789673
1601454320697,1419,0.0087890625,-0.97076416,-0.37774658
1601454320698,1420,0.008056641,-0.97369385,-0.37994385
1601454320698,1421,0.001953125,-0.9697876,-0.38555908
1601454320698,1422,0.0043945312,-0.9692993,-0.38482666
1601454320699,1423,0.0043945312,-0.9763794,-0.38848877
1601454320699,1424,0.0041503906,-0.9663696,-0.3887329
1601454320700,1425,0.0012207031,-0.97442627,-0.3892212
1601454320700,1426,4.8828125E-4,-0.9649048,-0.39068604
1601454320701,1427,-0.0024414062,-0.9651489,-0.38409424
1601454320701,1428,-0.005859375,-0.973938,-0.39019775
1601454320702,1429,0.001953125,-0.9639282,-0.395813
1601454320702,1430,-4.8828125E-4,-0.9714966,-0.38311768
1601454320703,1431,-4.8828125E-4,-0.97125244,-0.38531494
1601454320703,1432,2.4414062E-4,-0.97247314,-0.38458252
1601454320704,1433,0.0048828125,-0.9710083,-0.378479
1601454320705,1434,0.0031738281,-0.9776001,-0.3772583
1601454320705,1435,0.004638672,-0.9805298,-0.37652588
1601454320705,1436,0.0014648438,-0.9768677,-0.37213135
1601454320706,1437,0.0043945312,-0.97491455,-0.37335205
1601454320706,1438,0.0053710938,-0.9812622,-0.3731079
1601454320707,1439,0.0031738281,-0.9793091,-0.3711548
1601454323126,1440,0.0012207031,-0.97540283,-0.36798096
1601454323126,1441,0.0053710938,-0.9795532,-0.3711548
1601454323128,1442,0.0061035156,-0.9795532,-0.3633423
1601454323130,1443,0.0031738281,-0.97735596,-0.36480713
1601454323130,1444,0.0053710938,-0.98150635,-0.36993408
1601454323131,1445,0.0036621094,-0.98028564,-0.3682251
1601454323132,1446,0.0029296875,-0.9776001,-0.3652954
1601454323132,1447,0.007080078,-0.9807739,-0.36602783
1601454323134,1448,0.0068359375,-0.9788208,-0.36602783
1601454323134,1449,0.008056641,-0.9776001,-0.36505127
1601454323135,1450,0.0073242188,-0.97906494,-0.36676025
1601454323136,1451,0.0053710938,-0.975647,-0.36968994
1601454323139,1452,0.008056641,-0.97979736,-0.3657837
1601454323139,1453,0.0053710938,-0.9819946,-0.36602783
1601454323139,1454,0.0056152344,-0.9776001,-0.36505127
1601454323140,1455,0.0063476562,-0.9819946,-0.3682251
1601454323140,1456,0.0056152344,-0.9800415,-0.3665161
1601454323141,1457,0.0056152344,-0.9800415,-0.36798096
1601454323141,1458,0.005859375,-0.9788208,-0.3670044
1601454323142,1459,0.0061035156,-0.9812622,-0.36871338
1601454323143,1460,0.0034179688,-0.9817505,-0.3731079
1601454323143,1461,0.0031738281,-0.9807739,-0.37091064
1601454323147,1462,0.0063476562,-0.9780884,-0.3706665
1601454323148,1463,0.0048828125,-0.97784424,-0.36968994
1601454323148,1464,0.0034179688,-0.98028564,-0.37335205
1601454323148,1465,0.0034179688,-0.9717407,-0.37799072
1601454323148,1466,-0.0014648438,-0.97906494,-0.37506104
1601454323148,1467,0.0,-0.9729614,-0.378479
1601454323148,1468,0.001953125,-0.97320557,-0.37823486
1601454323148,1469,-4.8828125E-4,-0.97003174,-0.37872314
1601454323148,1470,-7.324219E-4,-0.97052,-0.37799072
1601454323149,1471,-0.0031738281,-0.97125244,-0.37701416
1601454325748,1472,-0.0034179688,-0.97247314,-0.37579346
1601454325752,1473,-0.0034179688,-0.97662354,-0.37677002
1601454325753,1474,-0.0041503906,-0.98028564,-0.37213135
1601454325757,1475,-0.0063476562,-0.9734497,-0.37530518
1601454325757,1476,-0.0043945312,-0.98321533,-0.37530518
1601454325757,1477,-0.0021972656,-0.9751587,-0.36724854
1601454325757,1478,-0.0029296875,-0.9768677,-0.36749268
1601454325758,1479,-0.001953125,-0.9817505,-0.36602783
1601454325759,1480,-0.0012207031,-0.9805298,-0.36602783
1601454325759,1481,-0.0036621094,-0.9795532,-0.3657837
1601454325760,1482,-0.0034179688,-0.9824829,-0.3657837
1601454325761,1483,-0.0031738281,-0.98101807,-0.362854
1601454325761,1484,2.4414062E-4,-0.9800415,-0.36236572
1601454325762,1485,0.001953125,-0.98638916,-0.36871338
1601454325765,1486,0.0012207031,-0.98321533,-0.3694458
1601454325765,1487,7.324219E-4,-0.9817505,-0.36065674
1601454325765,1488,4.8828125E-4,-0.9780884,-0.36480713
1601454325767,1489,-4.8828125E-4,-0.9800415,-0.36236572
1601454325767,1490,-0.0029296875,-0.98028564,-0.3640747
1601454325767,1491,-0.0024414062,-0.98150635,-0.36602783
1601454325768,1492,0.0,-0.9812622,-0.36260986
1601454325768,1493,0.0012207031,-0.98272705,-0.36090088
1601454325770,1494,-0.0021972656,-0.9788208,-0.36358643
1601454325770,1495,-0.001953125,-0.9817505,-0.36627197
1601454325770,1496,-0.0029296875,-0.9824829,-0.36431885
1601454325771,1497,-0.0012207031,-0.97735596,-0.36602783
1601454325772,1498,-0.0029296875,-0.98223877,-0.36358643
1601454325772,1499,-0.0021972656,-0.98321533,-0.36358643
1601454325773,1500,-0.0029296875,-0.9812622,-0.3670044
1601454325774,1501,-0.0021972656,-0.9812622,-0.36480713
1601454325774,1502,2.4414062E-4,-0.9824829,-0.36138916
1601454325775,1503,-2.4414062E-4,-0.9859009,-0.36749268
1601454328375,1504,0.0,-0.98028564,-0.36773682
1601454328376,1505,4.8828125E-4,-0.9783325,-0.36309814
1601454328377,1506,-7.324219E-4,-0.9763794,-0.3706665
1601454328378,1507,0.0,-0.97662354,-0.37750244
1601454328379,1508,-7.324219E-4,-0.9697876,-0.3772583
1601454328380,1509,-0.0061035156,-0.97076416,-0.37872314
1601454328381,1510,-0.0031738281,-0.9668579,-0.3796997
1601454328381,1511,-0.0063476562,-0.9678345,-0.37530518
1601454328382,1512,-0.012207031,-0.96954346,-0.37261963
1601454328383,1513,-0.0087890625,-0.9734497,-0.3814087
1601454328384,1514,-0.0107421875,-0.9771118,-0.37554932
1601454328385,1515,-0.0073242188,-0.9800415,-0.3731079
1601454328385,1516,-0.007080078,-0.97784424,-0.3706665
1601454328386,1517,-0.010253906,-0.97540283,-0.37091064
1601454328387,1518,-0.0063476562,-0.9837036,-0.3665161
1601454328390,1519,-0.008056641,-0.98028564,-0.362854
1601454328392,1520,-0.0075683594,-0.9846802,-0.36602783
1601454328392,1521,-0.0034179688,-0.9837036,-0.3604126
1601454328392,1522,-0.0029296875,-0.9824829,-0.3616333
1601454328393,1523,-0.0014648438,-0.98394775,-0.3579712
1601454328394,1524,-0.0036621094,-0.9817505,-0.35845947
1601454328394,1525,-2.4414062E-4,-0.9819946,-0.3591919
1601454328395,1526,-4.8828125E-4,-0.9829712,-0.35968018
1601454328396,1527,-0.0034179688,-0.9819946,-0.3567505
1601454328398,1528,0.0,-0.9834595,-0.35943604
1601454328399,1529,-0.0021972656,-0.98101807,-0.36090088
1601454328399,1530,-0.0029296875,-0.9807739,-0.3591919
1601454328400,1531,-0.0012207031,-0.9837036,-0.35894775
1601454328400,1532,-0.0036621094,-0.9788208,-0.35455322
1601454328401,1533,-0.0012207031,-0.98394775,-0.35723877
1601454328401,1534,-0.0021972656,-0.9841919,-0.35772705
1601454328402,1535,-0.0021972656,-0.9873657,-0.3538208
1601454330811,1536,-2.4414062E-4,-0.9829712,-0.3567505
1601454330812,1537,-0.0029296875,-0.987854,-0.35333252
1601454330815,1538,-0.0014648438,-0.9834595,-0.35430908
1601454330816,1539,-9.765625E-4,-0.98321533,-0.35235596
1601454330817,1540,-0.0012207031,-0.9859009,-0.35528564
1601454330817,1541,-0.00390625,-0.9829712,-0.3591919
1601454330820,1542,-0.0012207031,-0.986145,-0.35992432
1601454330820,1543,-0.004638672,-0.98394775,-0.36187744
1601454330821,1544,-9.765625E-4,-0.9846802,-0.3616333
1601454330823,1545,-0.004638672,-0.97540283,-0.36724854
1601454330825,1546,-0.0048828125,-0.98223877,-0.3657837
1601454330826,1547,-0.009033203,-0.9771118,-0.37164307
1601454330828,1548,-0.0061035156,-0.9717407,-0.3711548
1601454330829,1549,-0.0075683594,-0.97247314,-0.36602783
1601454330831,1550,-0.004638672,-0.9727173,-0.36968994
1601454330833,1551,-0.010009766,-0.9758911,-0.3718872
1601454330834,1552,-0.0075683594,-0.9812622,-0.3743286
1601454330835,1553,-0.0073242188,-0.97906494,-0.36920166
1601454330838,1554,-0.0041503906,-0.98101807,-0.36358643
1601454330838,1555,-0.005126953,-0.9837036,-0.36383057
1601454330838,1556,-0.005126953,-0.9841919,-0.36090088
1601454330838,1557,-0.0063476562,-0.9829712,-0.36138916
1601454330838,1558,-0.0034179688,-0.9834595,-0.35845947
1601454330839,1559,-0.0031738281,-0.98394775,-0.3555298
1601454330839,1560,-0.0061035156,-0.9834595,-0.35699463
1601454330840,1561,-0.006591797,-0.98443604,-0.35992432
1601454330841,1562,-0.005859375,-0.9846802,-0.36090088
1601454330841,1563,-0.005126953,-0.9859009,-0.3567505
1601454330842,1564,-0.0053710938,-0.98101807,-0.36090088
1601454330843,1565,-0.005126953,-0.98443604,-0.3562622
1601454330843,1566,-0.0034179688,-0.98443604,-0.35772705
1601454330844,1567,-0.0036621094,-0.9800415,-0.35992432
1601454333431,1568,-0.0036621094,-0.9824829,-0.3550415
1601454333431,1569,-0.0041503906,-0.9834595,-0.3567505
1601454333431,1570,-0.004638672,-0.98516846,-0.35845947
1601454333432,1571,-0.0036621094,-0.9854126,-0.3574829
1601454333432,1572,-0.00390625,-0.98150635,-0.35113525
1601454333433,1573,-0.0043945312,-0.987854,-0.34991455
1601454333434,1574,-0.0029296875,-0.98101807,-0.3513794
1601454333434,1575,-0.0031738281,-0.9859009,-0.35772705
1601454333435,1576,-0.005859375,-0.98638916,-0.34942627
1601454333435,1577,-0.0048828125,-0.9854126,-0.35162354
1601454333436,1578,-0.0021972656,-0.9866333,-0.34796143
1601454333436,1579,-0.0024414062,-0.9866333,-0.34918213
1601454333437,1580,-0.0053710938,-0.986145,-0.35406494
1601454333438,1581,-0.004638672,-0.9859009,-0.3526001
1601454333439,1582,-0.0056152344,-0.9846802,-0.34918213
1601454333440,1583,-0.0063476562,-0.987854,-0.348938
1601454333442,1584,-0.0034179688,-0.98687744,-0.3538208
1601454333442,1585,-0.0041503906,-0.99005127,-0.3484497
1601454333446,1586,-0.0063476562,-0.9873657,-0.3501587
1601454333446,1587,-0.0026855469,-0.9873657,-0.34918213
1601454333446,1588,-0.0043945312,-0.9849243,-0.34942627
1601454333447,1589,-0.0021972656,-0.98638916,-0.34796143
1601454333448,1590,-0.0061035156,-0.98931885,-0.3526001
1601454333449,1591,-0.004638672,-0.9866333,-0.35308838
1601454333449,1592,-0.0021972656,-0.9890747,-0.35333252
1601454333449,1593,-0.0056152344,-0.9883423,-0.3501587
1601454333450,1594,-0.0031738281,-0.9824829,-0.35723877
1601454333450,1595,-0.0073242188,-0.9849243,-0.35845947
1601454333451,1596,-0.008300781,-0.9837036,-0.35772705
1601454333452,1597,-0.008544922,-0.9829712,-0.35894775
1601454333452,1598,-0.008544922,-0.98223877,-0.35772705
1601454333453,1599,-0.009277344,-0.97857666,-0.35992432
1601454336057,1600,-0.0087890625,-0.9807739,-0.3555298
1601454336057,1601,-0.009521484,-0.97857666,-0.3587036
1601454336058,1602,-0.008300781,-0.98028564,-0.35968018
1601454336058,1603,-0.010009766,-0.98272705,-0.35357666
1601454336059,1604,-0.009277344,-0.9890747,-0.3513794
1601454336059,1605,-0.008056641,-0.98809814,-0.35284424
1601454336060,1606,-0.0043945312,-0.9871216,-0.34820557
1601454336060,1607,-0.0078125,-0.98809814,-0.34014893
1601454336061,1608,-0.0075683594,-0.98809814,-0.3423462
1601454336061,1609,-0.005126953,-0.99005127,-0.34552002
1601454336062,1610,-0.006591797,-0.9890747,-0.34454346
1601454336062,1611,-0.0087890625,-0.989563,-0.33868408
1601454336063,1612,-0.005859375,-0.98809814,-0.33673096
1601454336063,1613,-0.0043945312,-0.98883057,-0.3418579
1601454336064,1614,-0.0021972656,-0.9915161,-0.34283447
1601454336065,1615,-0.005126953,-0.98883057,-0.3423462
1601454336065,1616,-0.0034179688,-0.9890747,-0.33892822
1601454336067,1617,-0.0017089844,-0.986145,-0.33746338
1601454336067,1618,-0.0063476562,-0.99005127,-0.34039307
1601454336067,1619,-0.0056152344,-0.99053955,-0.34014893
1601454336068,1620,-0.0036621094,-0.9927368,-0.33917236
1601454336068,1621,-0.0036621094,-0.986145,-0.33868408
1601454336069,1622,-0.0031738281,-0.99102783,-0.33624268
1601454336069,1623,-0.0029296875,-0.9902954,-0.33721924
1601454336070,1624,-0.0036621094,-0.9866333,-0.34039307
1601454336070,1625,-0.0053710938,-0.98687744,-0.3369751
1601454336071,1626,-0.0036621094,-0.989563,-0.34088135
1601454336071,1627,-0.006591797,-0.9890747,-0.33770752
1601454336072,1628,-0.0048828125,-0.9898071,-0.34014893
1601454336073,1629,-0.0043945312,-0.9898071,-0.33746338
1601454336073,1630,-0.004638672,-0.986145,-0.34014893
1601454336074,1631,-0.0029296875,-0.9898071,-0.34161377
1601454338497,1632,-0.0053710938,-0.99176025,-0.33966064
1601454338498,1633,-0.005859375,-0.987854,-0.33868408
1601454338503,1634,-0.0056152344,-0.9902954,-0.33843994
1601454338504,1635,-0.0061035156,-0.991272,-0.3381958
1601454338504,1636,-0.005126953,-0.9866333,-0.3394165
1601454338504,1637,-0.004638672,-0.99224854,-0.3406372
1601454338509,1638,-0.005126953,-0.98931885,-0.33648682
1601454338509,1639,-0.0061035156,-0.99224854,-0.34088135
1601454338509,1640,-0.0026855469,-0.9898071,-0.34136963
1601454338509,1641,-0.0031738281,-0.9932251,-0.33624268
1601454338509,1642,-0.0034179688,-0.99298096,-0.33624268
1601454338513,1643,-0.0036621094,-0.9885864,-0.33917236
1601454338514,1644,-0.00390625,-0.98931885,-0.33917236
1601454338514,1645,-0.0036621094,-0.99005127,-0.33966064
1601454338515,1646,-0.0012207031,-0.987854,-0.34259033
1601454338515,1647,-0.0034179688,-0.9920044,-0.3406372
1601454338515,1648,-0.0048828125,-0.99176025,-0.34429932
1601454338516,1649,-2.4414062E-4,-0.9890747,-0.33843994
1601454338517,1650,-0.013183594,-0.9741821,-0.33892822
1601454338517,1651,-0.0063476562,-0.99713135,-0.36187744
1601454338518,1652,0.011230469,-1.0010376,-0.3279419
1601454338519,1653,0.0029296875,-0.98638916,-0.31573486
1601454338519,1654,0.0036621094,-0.9951782,-0.31500244
1601454338520,1655,-0.0061035156,-0.9915161,-0.3291626
1601454338522,1656,-0.0053710938,-0.99468994,-0.33184814
1601454338522,1657,-0.0078125,-0.9866333,-0.3196411
1601454338522,1658,4.8828125E-4,-0.98809814,-0.33502197
1601454338523,1659,0.0043945312,-0.9927368,-0.3320923
1601454338523,1660,0.007080078,-0.98687744,-0.3340454
1601454338523,1661,0.009765625,-0.98516846,-0.33673096
1601454338524,1662,0.010009766,-0.99542236,-0.33868408
1601454338529,1663,0.010986328,-0.9871216,-0.3447876
1601454341122,1664,0.018554688,-0.98760986,-0.348938
1601454341123,1665,0.017822266,-0.9837036,-0.3460083
1601454341124,1666,0.022216797,-0.98321533,-0.34503174
1601454341125,1667,0.021240234,-0.987854,-0.34869385
1601454341126,1668,0.01586914,-0.9846802,-0.34405518
1601454341127,1669,0.018066406,-0.986145,-0.34991455
1601454341129,1670,0.016601562,-0.9890747,-0.34136963
1601454341133,1671,0.017089844,-0.9866333,-0.3399048
1601454341133,1672,0.016113281,-0.9890747,-0.33770752
1601454341133,1673,0.016845703,-0.98931885,-0.33599854
1601454341133,1674,0.013427734,-0.9885864,-0.34014893
1601454341133,1675,0.016601562,-0.9944458,-0.33721924
1601454341136,1676,0.009033203,-0.989563,-0.33770752
1601454341137,1677,0.009277344,-0.987854,-0.33843994
1601454341137,1678,0.011962891,-0.98931885,-0.34136963
1601454341138,1679,0.011474609,-0.9859009,-0.3418579
1601454341139,1680,0.014892578,-0.98516846,-0.34405518
1601454341139,1681,0.013671875,-0.98883057,-0.3430786
1601454341140,1682,0.017333984,-0.9849243,-0.34527588
1601454341140,1683,0.02368164,-0.987854,-0.34698486
1601454341140,1684,0.020263672,-0.99713135,-0.3460083
1601454341141,1685,0.0048828125,-0.9793091,-0.34088135
1601454341142,1686,0.0048828125,-0.97540283,-0.3550415
1601454341142,1687,0.017822266,-0.9873657,-0.35479736
1601454341143,1688,0.013427734,-0.97613525,-0.35333252
1601454341144,1689,0.018798828,-0.9898071,-0.3406372
1601454341145,1690,0.012451172,-0.98638916,-0.34332275
1601454341146,1691,0.010498047,-0.99102783,-0.33746338
1601454341150,1692,0.013671875,-0.9924927,-0.32940674
1601454341150,1693,0.0073242188,-0.99176025,-0.33233643
1601454341150,1694,0.0041503906,-0.99298096,-0.331604
1601454341150,1695,0.008056641,-0.9907837,-0.3303833
1601454343751,1696,0.0078125,-0.99420166,-0.32891846
1601454343751,1697,0.004638672,-0.9890747,-0.3320923
1601454343752,1698,0.0056152344,-0.99346924,-0.33428955
1601454343752,1699,2.4414062E-4,-0.9883423,-0.3320923
1601454343753,1700,0.0026855469,-0.9924927,-0.3250122
1601454343753,1701,-0.0021972656,-0.9915161,-0.33306885
1601454343754,1702,-0.0061035156,-0.9932251,-0.32403564
1601454343757,1703,-0.0056152344,-0.99468994,-0.32891846
1601454343757,1704,-0.008056641,-0.9907837,-0.33087158
1601454343758,1705,-0.008056641,-0.9915161,-0.33087158
1601454343758,1706,-0.008056641,-0.987854,-0.32574463
1601454343758,1707,-0.0073242188,-0.98883057,-0.3279419
1601454343759,1708,-0.0068359375,-0.99005127,-0.32476807
1601454343759,1709,-0.0061035156,-0.99420166,-0.3291626
1601454343759,1710,-0.0053710938,-0.9932251,-0.3267212
1601454343760,1711,-0.0041503906,-0.9968872,-0.3262329
1601454343761,1712,-0.0029296875,-0.9944458,-0.31988525
1601454343761,1713,-0.0031738281,-0.99468994,-0.3250122
1601454343762,1714,-0.0043945312,-0.99420166,-0.3262329
1601454343763,1715,-0.03881836,-1.0320435,-0.36968994
1601454343763,1716,-0.21899414,-1.0899048,-0.53619385
1601454343764,1717,-0.22949219,-1.034729,-0.6663208
1601454343765,1718,0.11376953,-1.1419067,-0.5960083
1601454343766,1719,0.33691406,-1.0166626,-0.29400635
1601454343767,1720,0.5644531,-0.6055298,-0.046203613
1601454343767,1721,0.55688477,-0.40777588,-0.10333252
1601454343768,1722,0.6254883,-0.4036255,-0.1951294
1601454343768,1723,0.6640625,-0.6643677,-0.28204346
1601454343769,1724,0.6784668,-0.8418579,-0.2078247
1601454343769,1725,0.66845703,-0.8286743,-0.13946533
1601454343770,1726,0.65478516,-0.8760376,-0.17047119
1601454343770,1727,0.6574707,-0.81329346,-0.24053955
1601454346180,1728,0.6286621,-0.70318604,-0.2786255
1601454346181,1729,0.5986328,-0.6460571,-0.3225708
1601454346181,1730,0.6315918,-0.54937744,-0.3772583
1601454346181,1731,0.67333984,-0.5120239,-0.40142822
1601454346182,1732,0.6508789,-0.50250244,-0.39678955
1601454346182,1733,0.69262695,-0.5010376,-0.4121704
1601454346182,1734,0.76831055,-0.5015259,-0.41436768
1601454346183,1735,0.7717285,-0.5342407,-0.44244385
1601454346183,1736,0.8286133,-0.59820557,-0.36553955
1601454346183,1737,0.8552246,-0.6506958,-0.27838135
1601454346184,1738,0.7084961,-0.5737915,-0.24932861
1601454346184,1739,0.7277832,-0.5039673,-0.1638794
1601454346184,1740,0.7524414,-0.5796509,-0.12628174
1601454346185,1741,0.6862793,-0.6099243,-0.26397705
1601454346185,1742,0.7290039,-0.59381104,-0.29278564
1601454346185,1743,0.73950195,-0.59039307,-0.23175049
1601454346186,1744,0.75561523,-0.5322876,-0.2715454
1601454346186,1745,0.7849121,-0.5725708,-0.2774048
1601454346186,1746,0.7800293,-0.60406494,-0.32354736
1601454346187,1747,0.8469238,-0.6382446,-0.33599854
1601454346187,1748,0.7236328,-0.6946411,-0.31524658
1601454346187,1749,0.5258789,-0.70758057,-0.25958252
1601454346188,1750,0.55249023,-0.7119751,-0.22003174
1601454346188,1751,0.57421875,-0.66778564,-0.41558838
1601454346189,1752,0.48608398,-0.59454346,-0.32598877
1601454346189,1753,0.43188477,-0.59088135,-0.2119751
1601454346190,1754,0.5041504,-0.7774048,-0.14483643
1601454346190,1755,0.5180664,-0.88653564,-0.12701416
1601454346190,1756,0.48242188,-1.076477,-0.082336426
1601454346191,1757,0.49267578,-1.1611938,-0.034240723
1601454346191,1758,0.46166992,-1.173645,-0.0178833
1601454346192,1759,0.24023438,-1.133606,0.020935059
1601454348995,1760,0.14526367,-0.958313,0.0048217773
1601454348995,1761,0.13696289,-0.9939575,0.005065918
1601454348996,1762,0.14233398,-1.0010376,-0.09820557
1601454348997,1763,0.21386719,-0.9126587,-0.17218018
1601454348997,1764,0.27294922,-1.0056763,-0.17218018
1601454348998,1765,0.27319336,-0.9146118,-0.18365479
1601454348999,1766,0.22924805,-0.9976196,-0.17926025
1601454349004,1767,0.2475586,-0.9692993,-0.10479736
1601454349004,1768,0.21069336,-0.9793091,-0.12408447
1601454349005,1769,0.24682617,-1.0081177,-0.022033691
1601454349006,1770,0.17993164,-1.0901489,0.0026245117
1601454349007,1771,0.14526367,-0.9866333,0.031188965
1601454349009,1772,0.16796875,-0.9956665,0.08880615
1601454349009,1773,0.1694336,-0.9976196,0.12908936
1601454349010,1774,0.2055664,-0.9429321,0.16986084
1601454349011,1775,0.20727539,-0.9746704,0.2189331
1601454349011,1776,0.2199707,-0.9656372,0.34881592
1601454349015,1777,0.32885742,-0.99664307,0.40863037
1601454349015,1778,0.44482422,-0.9680786,0.027038574
1601454349015,1779,0.29833984,-0.7918091,-0.39752197
1601454349015,1780,0.17016602,-0.5166626,-0.69854736
1601454349015,1781,0.053466797,-0.44439697,-1.0108032
1601454349016,1782,0.111816406,-0.394104,-1.0176392
1601454349016,1783,0.20288086,-0.37506104,-0.8977661
1601454349017,1784,0.080078125,-0.25689697,-1.0501099
1601454349018,1785,0.24682617,-0.3430786,-0.92266846
1601454349018,1786,0.20263672,-0.34332275,-1.078186
1601454349019,1787,0.10913086,-0.58917236,-0.9846802
1601454349019,1788,0.091308594,-0.6243286,-0.928772
1601454349020,1789,0.004638672,-0.6765747,-0.74468994
1601454349021,1790,0.040527344,-0.7061157,-0.56744385
1601454349021,1791,0.14648438,-0.6958618,-0.519104
1601454351440,1792,0.31103516,-0.72052,-0.12896729
1601454351442,1793,0.1616211,-1.0813599,0.5084839
1601454351443,1794,0.09692383,-0.78448486,0.5621948
1601454351445,1795,0.17651367,-1.003479,0.65057373
1601454351446,1796,0.13330078,-1.1636353,0.6613159
1601454351449,1797,0.13549805,-1.2302856,0.3546753
1601454351451,1798,0.013427734,-1.0498657,-0.28009033
1601454351457,1799,0.028076172,-0.753479,-0.47906494
1601454351457,1800,-0.005859375,-0.7017212,-0.569397
1601454351457,1801,0.03173828,-0.51763916,-0.62579346
1601454351457,1802,0.095703125,-0.56256104,-0.71173096
1601454351459,1803,0.20239258,-0.5220337,-0.8201294
1601454351461,1804,0.24121094,-0.48492432,-0.92681885
1601454351462,1805,0.24902344,-0.48492432,-1.0405884
1601454351463,1806,0.107177734,-0.49298096,-1.085022
1601454351463,1807,-0.040771484,-0.55548096,-0.98028564
1601454351465,1808,-0.041015625,-0.48443604,-0.8796997
1601454351469,1809,0.09692383,-0.34503174,-0.8286743
1601454351469,1810,0.16503906,-0.3274536,-0.88946533
1601454351469,1811,0.16113281,-0.30889893,-0.9570923
1601454351470,1812,0.18432617,-0.28619385,-1.0042114
1601454351470,1813,0.19213867,-0.2234497,-1.0376587
1601454351471,1814,0.1862793,-0.28448486,-1.0540161
1601454351471,1815,0.19897461,-0.42315674,-1.0740356
1601454351472,1816,0.12084961,-0.43267822,-1.0042114
1601454351473,1817,0.11425781,-0.54034424,-0.798645
1601454351473,1818,0.11767578,-0.7805786,-0.51275635
1601454351474,1819,0.111816406,-0.86016846,-0.40582275
1601454351475,1820,0.24511719,-0.9993286,-0.2925415
1601454351475,1821,0.33813477,-0.9710083,-0.23175049
1601454351476,1822,0.38256836,-0.94488525,-0.26446533
1601454351476,1823,0.3088379,-0.9710083,-0.31378174
1601454353877,1824,0.2602539,-0.9260864,-0.31378174
1601454353879,1825,0.16845703,-0.89556885,-0.34625244
1601454353880,1826,0.10131836,-0.7686157,-0.2571411
1601454353882,1827,-0.08862305,-0.6567993,-0.26715088
1601454353883,1828,-0.4855957,-0.67852783,-0.36016846
1601454353883,1829,-0.88134766,-0.71710205,-0.65802
1601454353883,1830,-1.0195312,-0.7319946,-0.7112427
1601454353885,1831,-0.94750977,-0.5462036,-0.91900635
1601454353886,1832,-0.70654297,-0.52838135,-0.7373657
1601454353887,1833,-0.58325195,-0.32598877,-0.51641846
1601454353888,1834,-0.76831055,-0.46466064,-0.4981079
1601454353889,1835,-0.8952637,-0.6428833,-0.34527588
1601454353891,1836,-1.1154785,-0.77227783,-0.62579346
1601454353891,1837,-0.90356445,-0.75079346,-0.3201294
1601454353891,1838,-0.57128906,-0.6777954,0.06585693
1601454353892,1839,-0.4921875,-0.6836548,0.1828003
1601454353893,1840,-0.47998047,-0.7686157,0.27288818
1601454353895,1841,-0.5588379,-0.800354,0.277771
1601454353896,1842,-0.38891602,-0.99420166,0.60614014
1601454353896,1843,-0.28051758,-0.7991333,0.6034546
1601454353897,1844,-0.21533203,-0.7737427,0.63079834
1601454353898,1845,-0.16479492,-0.81256104,0.68573
1601454353898,1846,-0.16186523,-0.7998657,0.65179443
1601454353900,1847,-0.1394043,-0.81427,0.602478
1601454353900,1848,-0.10131836,-0.8792114,0.5206909
1601454353902,1849,-0.060546875,-0.9373169,0.46575928
1601454353902,1850,-0.037841797,-1.0005493,0.36834717
1601454353903,1851,-0.12792969,-1.05719,0.40423584
1601454353903,1852,-0.19506836,-0.9973755,0.39154053
1601454353903,1853,-0.19970703,-0.90460205,0.36444092
1601454353907,1854,-0.17016602,-0.84625244,0.3390503
1601454353907,1855,-0.12817383,-0.89801025,0.385437
1601454356502,1856,-0.15356445,-0.93463135,0.4376831
1601454356506,1857,-0.15429688,-0.93927,0.43475342
1601454356508,1858,-0.20019531,-0.94732666,0.4767456
1601454356509,1859,-0.24243164,-0.8567505,0.4442749
1601454356511,1860,-0.22973633,-0.7930298,0.4706421
1601454356512,1861,-0.2578125,-0.7918091,0.49432373
1601454356514,1862,-0.2631836,-0.8023071,0.5700073
1601454356517,1863,-0.29589844,-0.7954712,0.63446045
1601454356517,1864,-0.26586914,-0.74713135,0.63739014
1601454356518,1865,-0.25561523,-0.7625122,0.6727905
1601454356519,1866,-0.2770996,-0.76812744,0.68426514
1601454356519,1867,-0.30932617,-0.7385864,0.64520264
1601454356520,1868,-0.30615234,-0.7293091,0.64398193
1601454356521,1869,-0.33862305,-0.7522583,0.64642334
1601454356522,1870,-0.34448242,-0.75201416,0.6400757
1601454356523,1871,-0.34765625,-0.7371216,0.6264038
1601454356523,1872,-0.3251953,-0.77008057,0.6234741
1601454356525,1873,-0.33569336,-0.8262329,0.6161499
1601454356525,1874,-0.3347168,-0.8726196,0.60028076
1601454356526,1875,-0.2980957,-0.89971924,0.56707764
1601454356527,1876,-0.2241211,-0.9011841,0.50531006
1601454356528,1877,-0.16870117,-0.8245239,0.53460693
1601454356529,1878,-0.10668945,-0.79400635,0.50408936
1601454356530,1879,-0.052978516,-0.8208618,0.46087646
1601454356530,1880,-0.05908203,-0.8904419,0.52557373
1601454356541,1881,-0.026123047,-0.8911743,0.48895264
1601454356541,1882,0.038330078,-0.878479,0.4472046
1601454356541,1883,0.09667969,-0.92388916,0.44158936
1601454356541,1884,0.08251953,-0.972229,0.45404053
1601454356542,1885,0.0546875,-0.958313,0.42156982
1601454356542,1886,-0.0107421875,-0.9246216,0.4052124
1601454356542,1887,-0.11743164,-0.84625244,0.35443115
1601454359128,1888,-0.19580078,-0.89508057,0.4130249
1601454359131,1889,-0.12915039,-0.8596802,0.32366943
1601454359131,1890,-0.036132812,-0.89556885,0.36566162
1601454359133,1891,-0.033935547,-0.9439087,0.36224365
1601454359139,1892,-0.07495117,-0.95318604,0.39935303
1601454359140,1893,-0.12158203,-0.99346924,0.50946045
1601454359140,1894,-0.123291016,-0.9517212,0.4779663
1601454359142,1895,-0.12768555,-1.0022583,0.62420654
1601454359142,1896,-0.27929688,-0.93585205,0.66864014
1601454359144,1897,-0.2770996,-0.74713135,0.55804443
1601454359145,1898,-0.17993164,-0.76641846,0.51776123
1601454359153,1899,-0.09741211,-0.80133057,0.4706421
1601454359153,1900,-0.016113281,-0.8201294,0.47210693
1601454359156,1901,0.055908203,-0.88726807,0.4713745
1601454359158,1902,0.034179688,-0.92755127,0.49041748
1601454359159,1903,-0.039794922,-0.9846802,0.52874756
1601454359160,1904,-0.0847168,-0.96221924,0.44891357
1601454359160,1905,-0.09838867,-0.9612427,0.4472046
1601454359161,1906,-0.1352539,-0.9092407,0.38641357
1601454359161,1907,-0.22314453,-0.9053345,0.3649292
1601454359162,1908,-0.1730957,-0.8081665,0.30584717
1601454359162,1909,-0.122802734,-0.8936157,0.40081787
1601454359163,1910,-0.14941406,-0.93951416,0.41497803
1601454359164,1911,-0.1730957,-0.91729736,0.45037842
1601454359164,1912,-0.18359375,-0.90216064,0.51776123
1601454359166,1913,-0.1953125,-0.93585205,0.57489014
1601454359166,1914,-0.16992188,-0.95880127,0.60272217
1601454359168,1915,-0.21411133,-0.9795532,0.69866943
1601454359172,1916,-0.19555664,-0.8374634,0.63446045
1601454359172,1917,-0.16455078,-0.72662354,0.60150146
1601454359172,1918,-0.18041992,-0.6499634,0.605896
1601454359173,1919,-0.13867188,-0.7107544,0.6366577
1601454361563,1920,0.04248047,-0.8569946,0.57244873
1601454361563,1921,0.1340332,-0.9360962,0.43988037
1601454361564,1922,0.17016602,-0.9570923,0.36956787
1601454361566,1923,0.140625,-0.97076416,0.2506714
1601454361566,1924,0.12402344,-0.96539307,0.20037842
1601454361566,1925,0.111083984,-0.99298096,0.246521
1601454361567,1926,0.061035156,-0.9417114,0.15985107
1601454361569,1927,7.324219E-4,-1.0278931,0.25091553
1601454361569,1928,-0.0026855469,-0.9573364,0.2230835
1601454361569,1929,0.09033203,-0.95977783,0.21844482
1601454361569,1930,0.10986328,-0.94244385,0.2399292
1601454361570,1931,0.104003906,-0.9385376,0.2243042
1601454361570,1932,0.12768555,-0.97491455,0.2994995
1601454361571,1933,0.12109375,-0.9668579,0.30413818
1601454361572,1934,0.1015625,-0.99542236,0.3973999
1601454361573,1935,0.010986328,-0.98883057,0.49969482
1601454361573,1936,-0.064697266,-0.93048096,0.5211792
1601454361574,1937,-0.061035156,-0.9336548,0.5492554
1601454361574,1938,-0.056640625,-0.9031372,0.5216675
1601454361575,1939,-0.032470703,-0.8882446,0.53118896
1601454361575,1940,-0.008300781,-0.8687134,0.52020264
1601454361576,1941,0.044921875,-0.91119385,0.52020264
1601454361577,1942,0.037109375,-0.9429321,0.4467163
1601454361578,1943,0.034179688,-0.92559814,0.40130615
1601454361578,1944,0.039794922,-0.8755493,0.35784912
1601454361579,1945,0.07080078,-0.91900635,0.29632568
1601454361579,1946,0.05126953,-1.0276489,0.27679443
1601454361580,1947,0.016601562,-1.053772,0.21624756
1601454361581,1948,0.0063476562,-1.0588989,0.18841553
1601454361582,1949,-0.008300781,-1.017395,0.16375732
1601454361582,1950,-0.0012207031,-1.0025024,0.16131592
1601454361582,1951,0.01977539,-0.98272705,0.13104248
1601454364182,1952,0.03955078,-1.0046997,0.09637451
1601454364183,1953,0.057128906,-1.0054321,0.10394287
1601454364184,1954,0.029052734,-1.0288696,0.09075928
1601454364184,1955,-0.030029297,-1.039856,0.06781006
1601454364185,1956,0.018798828,-1.010315,0.03363037
1601454364186,1957,0.072021484,-0.9636841,0.043395996
1601454364186,1958,0.083740234,-1.039856,0.15594482
1601454364187,1959,0.03149414,-1.1482544,0.27215576
1601454364187,1960,0.028076172,-1.0090942,0.24285889
1601454364188,1961,0.0769043,-1.0005493,0.25897217
1601454364188,1962,0.064697266,-0.98150635,0.2477417
1601454364189,1963,0.072753906,-0.9758911,0.15472412
1601454364190,1964,0.08520508,-1.0205688,0.1749878
1601454364198,1965,0.10498047,-1.0510864,0.11932373
1601454364199,1966,0.15161133,-0.9937134,0.08538818
1601454364199,1967,0.17456055,-1.0095825,0.08441162
1601454364199,1968,0.17553711,-0.99468994,0.074645996
1601454364199,1969,0.1940918,-0.98516846,0.04901123
1601454364199,1970,0.16674805,-1.0042114,0.077819824
1601454364199,1971,0.075927734,-1.0193481,0.0602417
1601454364202,1972,0.022705078,-1.0820923,0.055603027
1601454364202,1973,0.049804688,-1.0203247,0.04925537
1601454364203,1974,0.10473633,-0.93707275,0.016296387
1601454364203,1975,0.107421875,-1.0049438,0.05682373
1601454364203,1976,0.095947266,-1.0213013,0.026550293
1601454364203,1977,0.10498047,-1.0686646,0.005554199
1601454364203,1978,0.12939453,-1.0466919,0.005065918
1601454364204,1979,0.107666016,-1.0601196,0.013122559
1601454364205,1980,0.076171875,-1.0862427,0.06707764
1601454364205,1981,0.0017089844,-1.1182251,0.16693115
1601454364205,1982,-0.07373047,-0.99591064,0.19134521
1601454364206,1983,-0.052246094,-0.9536743,0.2321167
1601454366813,1984,-0.09814453,-1.0203247,0.2699585
1601454366814,1985,-0.061035156,-0.9976196,0.21966553
1601454366820,1986,-0.01171875,-0.9907837,0.19622803
1601454366821,1987,7.324219E-4,-1.0332642,0.19525146
1601454366821,1988,-0.0031738281,-1.0383911,0.19036865
1601454366821,1989,0.010253906,-1.022522,0.16815186
1601454366822,1990,0.0234375,-1.0527954,0.15740967
1601454366824,1991,0.006591797,-1.0374146,0.08929443
1601454366825,1992,0.03540039,-0.9663696,0.042175293
1601454366825,1993,-0.011474609,-0.99884033,0.078063965
1601454366826,1994,-0.049072266,-1.048645,0.07244873
1601454366827,1995,-0.01928711,-0.97857666,0.043640137
1601454366828,1996,-0.0021972656,-1.0405884,0.16912842
1601454366829,1997,-0.01586914,-0.98443604,0.23968506
1601454366830,1998,-0.03515625,-0.9644165,0.28338623
1601454366830,1999,-0.026855469,-0.9522095,0.28900146
1601454366831,2000,-0.010498047,-0.98565674,0.31292725
1601454366832,2001,-0.031982422,-0.99884033,0.31854248
1601454366833,2002,-0.08154297,-1.0215454,0.25701904
1601454366834,2003,-0.0859375,-0.9951782,0.2584839
1601454366835,2004,-0.09887695,-1.0449829,0.21380615
1601454366836,2005,-0.09716797,-1.0557251,0.24822998
1601454366837,2006,-0.10864258,-0.9932251,0.21820068
1601454366837,2007,-0.08666992,-0.9487915,0.33343506
1601454366837,2008,-0.048828125,-0.90948486,0.4598999
1601454366838,2009,-0.032226562,-0.9351196,0.53656006
1601454366838,2010,0.013183594,-0.8694458,0.45794678
1601454366839,2011,-0.028076172,-0.87091064,0.36932373
1601454366839,2012,-0.051513672,-1.0564575,0.3817749
1601454366840,2013,-0.0146484375,-1.0093384,0.2987671
1601454366840,2014,0.013916016,-0.9483032,0.29656982
1601454366841,2015,0.0026855469,-1.0603638,0.32635498
1601454369252,2016,0.005859375,-1.0750122,0.30975342
1601454369253,2017,-0.037841797,-1.0484009,0.27996826
1601454369254,2018,-0.103759766,-0.96759033,0.2230835
1601454369256,2019,-0.17749023,-0.95977783,0.2826538
1601454369258,2020,-0.25634766,-0.9417114,0.24017334
1601454369260,2021,-0.21240234,-0.93292236,0.1539917
1601454369262,2022,-0.20385742,-0.98028564,0.16864014
1601454369263,2023,-0.21777344,-1.0078735,0.16864014
1601454369265,2024,-0.18530273,-0.98516846,0.18157959
1601454369267,2025,-0.18969727,-0.9937134,0.21282959
1601454369268,2026,-0.20947266,-1.0144653,0.18255615
1601454369269,2027,-0.21386719,-1.0044556,0.1774292
1601454369270,2028,-0.20532227,-1.0020142,0.16644287
1601454369271,2029,-0.19628906,-1.0090942,0.17840576
1601454369272,2030,-0.20581055,-1.010315,0.18377686
1601454369273,2031,-0.22631836,-0.99591064,0.18035889
1601454369276,2032,-0.23950195,-0.9854126,0.1642456
1601454369277,2033,-0.2529297,-1.0020142,0.15570068
1601454369278,2034,-0.2800293,-1.0134888,0.1473999
1601454369279,2035,-0.3166504,-0.98687744,0.15423584
1601454369279,2036,-0.30908203,-0.9685669,0.15228271
1601454369280,2037,-0.2890625,-0.9663696,0.1515503
1601454369281,2038,-0.26904297,-0.98223877,0.14520264
1601454369282,2039,-0.25634766,-0.98516846,0.15667725
1601454369282,2040,-0.22509766,-0.99224854,0.17718506
1601454369283,2041,-0.20214844,-0.97613525,0.23309326
1601454369285,2042,-0.17602539,-0.9841919,0.26531982
1601454369285,2043,-0.12548828,-0.97198486,0.3463745
1601454369285,2044,-0.10571289,-0.9553833,0.39520264
1601454369286,2045,-0.07055664,-0.9216919,0.48529053
1601454369286,2046,-0.030761719,-0.88360596,0.5363159
1601454369287,2047,0.027832031,-0.82403564,0.52948
