# Sensor position: Chest
# Sensor side: Left
# Activity type: Movement
# Activity code: 9
# Subject id: s1710228
timestamp,seq,accel_x,accel_y,accel_z
1603558681218,0,0.22485352,-0.9439087,0.15716553
1603558681218,1,0.19311523,-0.97979736,0.17645264
1603558681218,2,0.15332031,-0.9480591,0.17352295
1603558681220,3,0.15795898,-0.986145,0.152771
1603558681220,4,0.12036133,-1.019104,0.13616943
1603558681223,5,0.14550781,-0.9512329,0.13494873
1603558681223,6,0.0637207,-1.005188,0.12640381
1603558681223,7,0.009521484,-0.99053955,0.11395264
1603558681224,8,0.001953125,-1.0005493,0.121032715
1603558681224,9,-0.044677734,-1.0264282,0.1083374
1603558681225,10,-0.036865234,-0.9898071,0.086120605
1603558681225,11,-0.04248047,-1.0444946,0.089538574
1603558681226,12,-0.08325195,-1.0337524,0.11859131
1603558681227,13,-0.0847168,-0.99957275,0.10321045
1603558681227,14,-0.076416016,-1.0169067,0.09832764
1603558681228,15,-0.056640625,-1.0044556,0.10784912
1603558681229,16,-0.06274414,-1.0083618,0.10247803
1603558681230,17,-0.055664062,-1.013977,0.11639404
1603558681230,18,-0.060058594,-1.0130005,0.1293335
1603558681234,19,-0.060058594,-1.0066528,0.124694824
1603558681234,20,-0.06762695,-1.0042114,0.12908936
1603558681234,21,-0.06689453,-1.0042114,0.1359253
1603558681238,22,-0.07299805,-1.0012817,0.13421631
1603558681238,23,-0.07739258,-1.0007935,0.1408081
1603558681238,24,-0.08251953,-1.0042114,0.1317749
1603558681238,25,-0.07324219,-1.0093384,0.121032715
1603558681238,26,-0.07470703,-1.0081177,0.124694824
1603558681238,27,-0.08227539,-1.0020142,0.11175537
1603558681238,28,-0.060791016,-1.0234985,0.10247803
1603558681238,29,-0.05883789,-1.0237427,0.09466553
1603558681239,30,-0.08544922,-1.0252075,0.070251465
1603558681239,31,-0.15454102,-1.0003052,0.04827881
1603558683863,32,-0.15698242,-0.9758911,0.025817871
1603558683864,33,-0.14111328,-0.94659424,-0.012512207
1603558683865,34,-0.029296875,-0.8670044,-0.08746338
1603558683865,35,0.18969727,-1.2896118,0.011169434
1603558683865,36,0.38427734,-1.1626587,0.19012451
1603558683866,37,0.18359375,-0.9788208,0.042907715
1603558683868,38,0.30029297,-0.8726196,0.034851074
1603558683868,39,0.2631836,-0.9319458,0.0067749023
1603558683868,40,0.34936523,-0.87335205,-0.093566895
1603558683868,41,0.39672852,-0.92633057,-0.08648682
1603558683869,42,0.38842773,-0.80474854,-0.08380127
1603558683869,43,0.3671875,-0.76348877,-0.18292236
1603558683869,44,0.22558594,-0.79229736,-0.1975708
1603558683870,45,0.3701172,-0.85284424,-0.10772705
1603558683871,46,0.10180664,-0.95928955,-0.120910645
1603558683871,47,0.50561523,-0.8587036,-0.14117432
1603558683872,48,0.32104492,-1.0059204,-0.17559814
1603558683872,49,0.3474121,-0.8057251,-0.24517822
1603558683873,50,0.4140625,-1.0137329,-0.25372314
1603558683873,51,0.3095703,-1.0256958,-0.17999268
1603558683874,52,0.25439453,-1.5879517,-0.12359619
1603558683874,53,-0.052490234,-0.9463501,0.038024902
1603558683876,54,-0.037353516,-0.9746704,0.09295654
1603558683877,55,-0.20239258,-1.2000122,0.10882568
1603558683877,56,-0.32763672,-0.9143677,0.30023193
1603558683877,57,-0.15722656,-0.90753174,0.3060913
1603558683879,58,-0.20898438,-0.93585205,0.3475952
1603558683879,59,-0.15942383,-0.90289307,0.35858154
1603558683879,60,-0.14086914,-0.91290283,0.35076904
1603558683879,61,-0.10888672,-0.91973877,0.3151245
1603558683879,62,-0.14111328,-0.9331665,0.32684326
1603558683879,63,-0.19873047,-0.9299927,0.39105225
1603558686492,64,-0.11206055,-0.9109497,0.3048706
1603558686493,65,-0.096191406,-1.015686,0.22454834
1603558686494,66,0.0041503906,-1.0444946,0.11151123
1603558686495,67,0.06201172,-0.9529419,0.070739746
1603558686496,68,0.044921875,-1.0405884,-0.022521973
1603558686497,69,0.2265625,-1.0603638,-0.13238525
1603558686498,70,0.32128906,-1.0813599,-0.3538208
1603558686499,71,0.45874023,-1.2515259,-0.46881104
1603558686500,72,0.47338867,-1.2212524,-0.51446533
1603558686501,73,0.3635254,-1.0540161,-0.3723755
1603558686502,74,0.32348633,-0.8740845,-0.33624268
1603558686502,75,0.4038086,-0.7346802,-0.30767822
1603558686502,76,0.3972168,-0.5618286,-0.17755127
1603558686503,77,0.13452148,-0.47296143,-0.11602783
1603558686503,78,0.23046875,-0.6692505,-0.0413208
1603558686504,79,0.095703125,-1.0383911,0.1774292
1603558686504,80,0.038330078,-1.0864868,0.24481201
1603558686505,81,0.041748047,-1.2124634,0.15228271
1603558686505,82,0.044921875,-1.0794067,-0.04937744
1603558686506,83,0.039794922,-0.98272705,-0.23883057
1603558686506,84,0.10546875,-1.0215454,-0.07672119
1603558686507,85,0.016113281,-0.9290161,-0.18487549
1603558686508,86,0.24267578,-1.0217896,-0.18048096
1603558686509,87,0.22753906,-0.958313,-0.30108643
1603558686509,88,0.12524414,-1.1150513,-0.17730713
1603558686509,89,0.18823242,-1.0335083,-0.046936035
1603558686510,90,0.064697266,-1.0010376,0.12615967
1603558686510,91,0.1628418,-0.8897095,0.15032959
1603558686511,92,0.23608398,-0.87823486,0.16888428
1603558686512,93,0.36523438,-0.8760376,0.14178467
1603558686513,94,0.3659668,-0.9404907,0.16253662
1603558686513,95,0.32348633,-1.2005005,0.11273193
1603558688929,96,-0.15454102,-1.1980591,-0.061584473
1603558688930,97,-0.15307617,-1.1240845,-0.32110596
1603558688930,98,-0.01928711,-1.0564575,-0.07330322
1603558688931,99,-0.09350586,-0.91729736,-0.045959473
1603558688932,100,-0.02734375,-0.9468384,-0.058166504
1603558688933,101,0.0234375,-0.93536377,-0.10650635
1603558688933,102,0.20043945,-0.88409424,-0.09576416
1603558688934,103,0.31030273,-0.8128052,-0.10821533
1603558688934,104,0.2607422,-0.7481079,-0.07550049
1603558688935,105,0.45825195,-0.909729,-0.101135254
1603558688935,106,0.31640625,-0.5244751,-0.29449463
1603558688936,107,0.6652832,-0.91363525,-0.35992432
1603558688936,108,0.5461426,-0.77667236,-0.333313
1603558688937,109,0.42749023,-0.9873657,-0.4985962
1603558688939,110,0.6105957,-0.7908325,-0.38946533
1603558688940,111,0.45361328,-0.8245239,-0.38238525
1603558688940,112,0.44140625,-0.9038696,-0.33087158
1603558688940,113,0.38964844,-1.2583618,-0.26885986
1603558688940,114,0.26708984,-1.2954712,-0.17047119
1603558688941,115,-0.0871582,-0.6226196,-0.002746582
1603558688942,116,-0.107177734,-1.0696411,0.1696167
1603558688942,117,-0.18286133,-1.0379028,0.2531128
1603558688942,118,-0.3137207,-0.954895,0.42840576
1603558688942,119,-0.26489258,-0.9151001,0.371521
1603558688943,120,-0.2175293,-0.84039307,0.3883667
1603558688943,121,-0.23901367,-0.87506104,0.42108154
1603558688943,122,-0.24975586,-0.86138916,0.42938232
1603558688944,123,-0.25927734,-0.8855591,0.43621826
1603558688944,124,-0.25024414,-0.8723755,0.40203857
1603558688945,125,-0.22851562,-0.89385986,0.39544678
1603558688945,126,-0.21899414,-0.9006958,0.38079834
1603558688945,127,-0.2121582,-0.8753052,0.3685913
1603558691744,128,-0.30810547,-0.9924927,0.40789795
1603558691745,129,-0.21191406,-0.73883057,0.44769287
1603558691746,130,-0.15014648,-0.9204712,0.40081787
1603558691747,131,-0.29638672,-0.881897,0.45404053
1603558691748,132,-0.1640625,-0.9536743,0.35614014
1603558691750,133,-0.05102539,-0.91900635,0.18963623
1603558691751,134,0.18457031,-1.0894165,0.059020996
1603558691752,135,0.07885742,-0.93341064,0.026062012
1603558691752,136,0.18408203,-1.0401001,-0.09649658
1603558691752,137,0.5136719,-1.1531372,-0.34747314
1603558691753,138,0.41552734,-1.3103638,-0.4890747
1603558691753,139,0.4501953,-1.0969849,-0.55474854
1603558691753,140,0.34179688,-0.87823486,-0.44732666
1603558691753,141,0.51464844,-0.75445557,-0.4451294
1603558691754,142,0.4807129,-0.7593384,-0.30303955
1603558691754,143,0.1706543,-0.5786743,-0.19976807
1603558691755,144,0.21533203,-0.5112915,-0.14312744
1603558691755,145,0.1796875,-0.9729614,0.06121826
1603558691756,146,0.13623047,-0.96954346,0.15301514
1603558691756,147,0.057373047,-1.2044067,-0.0869751
1603558691757,148,0.20825195,-1.0271606,-0.051574707
1603558691757,149,-0.09423828,-0.8584595,-0.13726807
1603558691758,150,0.22436523,-1.1184692,-0.0022583008
1603558691758,151,-0.14550781,-0.84625244,-0.030578613
1603558691759,152,0.009521484,-1.0894165,0.028259277
1603558691759,153,-0.01928711,-0.97003174,0.045837402
1603558691759,154,-0.028564453,-1.0029907,0.015319824
1603558691760,155,0.07714844,-1.0957642,0.08074951
1603558691760,156,0.06591797,-0.9026489,-0.03765869
1603558691760,157,0.07910156,-1.2129517,0.20697021
1603558691761,158,0.13842773,-0.8435669,0.028503418
1603558691761,159,0.057861328,-1.0925903,0.047546387
1603558694179,160,0.13452148,-0.986145,0.031433105
1603558694180,161,0.08154297,-1.0198364,0.07562256
1603558694181,162,-0.0014648438,-1.0252075,0.0927124
1603558694183,163,0.10864258,-1.0230103,0.05682373
1603558694183,164,0.2878418,-0.9993286,-0.01373291
1603558694184,165,0.22827148,-1.0374146,-0.031555176
1603558694184,166,0.26049805,-0.9495239,0.0770874
1603558694185,167,0.18066406,-0.9788208,0.121520996
1603558694186,168,0.20166016,-0.9089966,0.12615967
1603558694187,169,0.34301758,-0.8682251,0.12713623
1603558694188,170,0.38623047,-0.7739868,0.121520996
1603558694188,171,0.39672852,-0.78448486,0.09051514
1603558694188,172,0.3725586,-1.0530396,0.06781006
1603558694189,173,0.15771484,-1.3948364,-0.055236816
1603558694191,174,-0.21850586,-1.0523071,-0.28326416
1603558694191,175,0.040771484,-1.1675415,-0.20880127
1603558694191,176,0.01171875,-0.8562622,-0.20709229
1603558694191,177,0.010986328,-0.9338989,-0.25006104
1603558694191,178,0.12231445,-0.87335205,-0.28961182
1603558694192,179,0.3173828,-0.7185669,-0.34454346
1603558694192,180,0.31811523,-0.63360596,-0.23712158
1603558694192,181,0.49023438,-0.8460083,-0.23077393
1603558694192,182,0.37597656,-0.8323364,-0.3045044
1603558694193,183,0.6789551,-0.5869751,-0.4421997
1603558694193,184,0.5842285,-0.8760376,-0.440979
1603558694194,185,0.5720215,-0.7527466,-0.54351807
1603558694195,186,0.62280273,-0.7383423,-0.48077393
1603558694196,187,0.4970703,-0.8130493,-0.3953247
1603558694197,188,0.44921875,-0.895813,-0.37286377
1603558694197,189,0.39770508,-1.2007446,-0.30718994
1603558694197,190,0.31030273,-1.2322388,-0.21636963
1603558694197,191,0.015380859,-0.7461548,-0.061828613
1603558696805,192,0.04736328,-1.0020142,0.04095459
1603558696805,193,-0.114990234,-1.1228638,0.1552124
1603558696807,194,-0.18115234,-0.8977661,0.16326904
1603558696808,195,-0.1171875,-0.93170166,0.27386475
1603558696809,196,-0.18896484,-0.97320557,0.47235107
1603558696809,197,-0.22021484,-0.9570923,0.42694092
1603558696811,198,-0.25756836,-0.8225708,0.36663818
1603558696811,199,-0.2368164,-0.91729736,0.4003296
1603558696811,200,-0.19628906,-0.9011841,0.36834717
1603558696812,201,-0.16845703,-0.9246216,0.3468628
1603558696812,202,-0.21875,-0.9229126,0.33758545
1603558696813,203,-0.2397461,-0.90093994,0.35809326
1603558696813,204,-0.24658203,-0.90753174,0.3764038
1603558696814,205,-0.24536133,-0.89801025,0.37908936
1603558696815,206,-0.24633789,-0.90289307,0.37054443
1603558696815,207,-0.2409668,-0.9121704,0.36688232
1603558696815,208,-0.23486328,-0.9067993,0.36029053
1603558696816,209,-0.23876953,-0.90753174,0.3595581
1603558696817,210,-0.23583984,-0.90338135,0.3600464
1603558696817,211,-0.23730469,-0.90826416,0.3649292
1603558696818,212,-0.22924805,-0.91192627,0.35321045
1603558696818,213,-0.20678711,-0.87701416,0.32366943
1603558696818,214,-0.27954102,-0.9290161,0.46429443
1603558696819,215,-0.27490234,-0.8386841,0.4232788
1603558696820,216,-0.22045898,-0.8989868,0.35906982
1603558696820,217,-0.21191406,-0.9456177,0.36761475
1603558696820,218,-0.125,-1.0183716,0.18670654
1603558696821,219,0.0036621094,-0.9812622,0.074157715
1603558696821,220,0.06225586,-0.9751587,0.034606934
1603558696822,221,0.16601562,-1.0227661,-0.09112549
1603558696822,222,0.33007812,-1.0977173,-0.33306885
1603558696822,223,0.51171875,-1.3171997,-0.5210571
1603558699805,224,0.47460938,-1.0371704,-0.59552
1603558699805,225,0.36938477,-0.8753052,-0.43927002
1603558699807,226,0.5480957,-0.7932739,-0.48712158
1603558699808,227,0.39282227,-0.8584595,-0.442688
1603558699809,228,0.35986328,-0.7617798,-0.2991333
1603558699809,229,0.15625,-0.598938,-0.19171143
1603558699810,230,0.11279297,-0.44000244,-0.12677002
1603558699810,231,0.14086914,-0.9990845,0.02142334
1603558699810,232,-0.01977539,-1.2620239,-0.35699463
1603558699811,233,0.1328125,-0.8904419,-0.31402588
1603558699812,234,-0.17456055,-1.0706177,-0.22564697
1603558699812,235,0.014160156,-0.9446411,-0.2366333
1603558699812,236,4.8828125E-4,-0.97979736,-0.19390869
1603558699813,237,0.15820312,-0.9483032,-0.19854736
1603558699813,238,0.27392578,-1.065979,-0.11627197
1603558699813,239,0.56347656,-0.8821411,-0.23565674
1603558699814,240,0.5305176,-0.71759033,-0.16241455
1603558699815,241,0.7375488,-0.7217407,-0.20855713
1603558699815,242,0.69384766,-0.69781494,-0.21026611
1603558699815,243,0.68603516,-0.68218994,-0.25787354
1603558699816,244,0.6796875,-0.7034302,-0.28302002
1603558699816,245,0.56762695,-0.7732544,-0.30352783
1603558699816,246,0.6184082,-0.788147,-0.29718018
1603558699817,247,0.57666016,-0.8272095,-0.28302002
1603558699818,248,0.64160156,-0.75177,-0.25323486
1603558699818,249,0.6281738,-0.8230591,-0.13165283
1603558699818,250,0.38671875,-0.8838501,-0.18511963
1603558699818,251,0.26416016,-0.9241333,-0.21783447
1603558699819,252,0.12451172,-1.0386353,-0.13531494
1603558699819,253,0.16674805,-1.0105591,-0.09625244
1603558699820,254,0.17089844,-1.0422974,-0.10089111
1603558699820,255,0.0793457,-1.0349731,-0.113586426
1603558701865,256,0.0068359375,-1.010315,-0.22027588
1603558701867,257,0.035888672,-0.95635986,-0.33502197
1603558701867,258,-0.05493164,-0.9417114,-0.32647705
1603558701869,259,-0.021484375,-0.96881104,-0.2625122
1603558701870,260,0.29663086,-1.2874146,-0.054016113
1603558701870,261,0.40356445,-1.1201782,-0.2144165
1603558701870,262,0.29101562,-1.0435181,0.04876709
1603558701871,263,0.10083008,-0.7583618,-0.00592041
1603558701872,264,0.11376953,-0.956604,0.008728027
1603558701872,265,0.13745117,-0.91119385,0.09173584
1603558701873,266,0.083740234,-0.9385376,0.17938232
1603558701874,267,0.071777344,-1.1253052,0.27215576
1603558701874,268,0.19946289,-1.3626099,0.20233154
1603558701875,269,0.24267578,-0.8970337,-0.15411377
1603558701875,270,0.24804688,-1.0523071,-0.10699463
1603558701876,271,0.16577148,-0.93536377,-0.028137207
1603558701876,272,0.0769043,-0.87506104,-0.007873535
1603558701876,273,-0.020996094,-0.91412354,0.018981934
1603558701877,274,0.029052734,-0.9776001,0.0680542
1603558701878,275,-0.10449219,-1.1299438,0.05340576
1603558701879,276,0.43530273,-1.2981567,0.04437256
1603558701879,277,0.27148438,-0.69659424,-0.09185791
1603558701880,278,0.31420898,-1.1428833,0.07098389
1603558701880,279,0.32739258,-0.6543579,0.08807373
1603558701880,280,0.30664062,-0.8362427,0.05731201
1603558701881,281,0.3486328,-0.829895,0.066589355
1603558701882,282,0.3671875,-0.89508057,-0.14483643
1603558701882,283,0.44604492,-0.9505005,-0.3460083
1603558701882,284,0.4506836,-0.76104736,-0.77838135
1603558701883,285,0.088134766,-0.8062134,-0.6902466
1603558701883,286,0.2770996,-0.6309204,-0.7720337
1603558701883,287,0.2541504,-0.5942993,-0.7966919
1603558704677,288,0.21044922,-0.6819458,-0.8550415
1603558704677,289,0.31445312,-0.6694946,-0.90045166
1603558704678,290,0.23901367,-0.70684814,-0.8394165
1603558704678,291,0.18408203,-0.7307739,-0.83673096
1603558704679,292,0.23535156,-0.7703247,-0.7737427
1603558704679,293,0.2409668,-0.76348877,-0.7061157
1603558704680,294,0.27392578,-0.7954712,-0.66241455
1603558704681,295,0.3100586,-0.8255005,-0.5967407
1603558704681,296,0.17138672,-0.9561157,-0.26617432
1603558704683,297,0.29663086,-0.7649536,-0.29815674
1603558704683,298,0.40698242,-0.8994751,-0.066223145
1603558704683,299,0.30004883,-0.98516846,-0.016418457
1603558704683,300,0.22070312,-0.8960571,0.030212402
1603558704684,301,0.20385742,-0.9133911,0.11810303
1603558704684,302,0.21166992,-0.9619751,0.06414795
1603558704686,303,0.25830078,-1.0003052,0.059509277
1603558704686,304,0.24731445,-0.9024048,0.14031982
1603558704687,305,0.17602539,-0.9951782,0.10394287
1603558704689,306,0.09033203,-1.010315,0.074157715
1603558704689,307,0.14282227,-1.0442505,0.05316162
1603558704689,308,0.036376953,-1.0161743,0.13348389
1603558704689,309,-0.22143555,-0.9492798,0.1828003
1603558704690,310,-0.09301758,-1.0093384,0.19573975
1603558704690,311,-0.08325195,-1.0022583,0.1293335
1603558704690,312,-0.07519531,-1.041565,0.10760498
1603558704692,313,-0.043945312,-1.0088501,0.13153076
1603558704692,314,-0.067871094,-0.9846802,0.13543701
1603558704694,315,-0.06567383,-1.017395,0.1293335
1603558704694,316,-0.03125,-1.0042114,0.15130615
1603558704695,317,-0.007080078,-1.0115356,0.14569092
1603558704695,318,-0.032958984,-0.9973755,0.14837646
1603558704695,319,0.00390625,-0.98760986,0.16473389
1603558707116,320,-0.009033203,-1.0012817,0.16790771
1603558707117,321,-0.018310547,-1.0076294,0.17913818
1603558707118,322,-0.0075683594,-0.9976196,0.18450928
1603558707119,323,0.011474609,-0.99713135,0.17327881
1603558707121,324,0.04272461,-0.9793091,0.19012451
1603558707121,325,0.048095703,-0.9939575,0.19036865
1603558707122,326,0.076660156,-0.99224854,0.18304443
1603558707123,327,0.119384766,-0.94854736,0.17718506
1603558707124,328,0.09326172,-0.9985962,0.2518921
1603558707124,329,0.080566406,-1.0181274,0.23797607
1603558707125,330,0.15185547,-0.8870239,0.21185303
1603558707125,331,0.122558594,-0.99224854,0.16546631
1603558707126,332,0.18603516,-0.9495239,0.17596436
1603558707126,333,0.16186523,-0.9404907,0.14788818
1603558707127,334,0.15942383,-0.9702759,0.18572998
1603558707127,335,0.05102539,-1.0864868,0.113220215
1603558707128,336,0.07910156,-1.0176392,0.04071045
1603558707128,337,-0.032958984,-1.0354614,-0.028625488
1603558707128,338,0.06274414,-1.0303345,-0.0881958
1603558707129,339,-0.009765625,-1.0254517,-0.074035645
1603558707130,340,0.00390625,-1.0337524,-0.11212158
1603558707130,341,-0.038085938,-1.00177,-0.09088135
1603558707130,342,-0.079833984,-1.0447388,-0.10430908
1603558707130,343,-0.010253906,-1.008606,-0.07476807
1603558707131,344,0.08984375,-0.9924927,-0.08062744
1603558707131,345,0.076416016,-0.97491455,-0.08453369
1603558707131,346,0.13378906,-0.9710083,-0.12188721
1603558707132,347,0.0859375,-1.083313,-0.14703369
1603558707132,348,0.07836914,-1.0542603,-0.11529541
1603558707133,349,0.123291016,-1.0317993,-0.12310791
1603558707133,350,0.12597656,-1.0391235,-0.14703369
1603558707133,351,0.17333984,-1.0176392,-0.12042236
1603558709740,352,0.114746094,-0.975647,-0.1362915
1603558709740,353,0.08154297,-1.0078735,-0.10723877
1603558709741,354,0.10522461,-1.0020142,-0.07965088
1603558709741,355,0.064208984,-1.0215454,-0.047180176
1603558709743,356,0.049560547,-1.0464478,-0.09918213
1603558709743,357,0.0026855469,-1.0256958,-0.07647705
1603558709744,358,0.06323242,-1.0230103,-0.045715332
1603558709744,359,0.11645508,-1.02594,-0.04058838
1603558709745,360,0.15820312,-0.97540283,-0.031799316
1603558709747,361,0.21484375,-0.9656372,-0.004211426
1603558709747,362,0.21313477,-1.0130005,0.010681152
1603558709748,363,0.2902832,-0.928772,0.0053100586
1603558709749,364,0.2692871,-0.9534302,0.07122803
1603558709750,365,0.34448242,-0.91412354,0.061706543
1603558709750,366,0.32714844,-0.88287354,0.05999756
1603558709750,367,0.23046875,-0.9265747,0.055847168
1603558709751,368,0.24145508,-0.91607666,-0.027404785
1603558709751,369,0.25439453,-0.91241455,-0.12701416
1603558709752,370,0.14916992,-0.8911743,-0.33868408
1603558709753,371,0.23608398,-0.9668579,-0.57281494
1603558709753,372,0.110839844,-0.9631958,-0.5376587
1603558709754,373,0.1237793,-0.9331665,-0.59088135
1603558709754,374,0.040039062,-0.87945557,-0.6331177
1603558709754,375,0.1081543,-0.8635864,-0.645813
1603558709755,376,0.0859375,-0.8381958,-0.6687622
1603558709755,377,0.11035156,-0.8760376,-0.628479
1603558709756,378,0.10595703,-0.90509033,-0.5840454
1603558709756,379,0.095458984,-0.97076416,-0.52838135
1603558709757,380,0.084472656,-0.90753174,-0.47491455
1603558709757,381,0.04248047,-0.94976807,-0.36260986
1603558709757,382,0.060546875,-1.0046997,-0.31671143
1603558709758,383,0.051513672,-0.99102783,-0.17730713
1603558712555,384,0.045410156,-0.986145,-0.073791504
1603558712555,385,0.057861328,-0.9290161,-0.014221191
1603558712557,386,0.055664062,-0.9841919,0.070251465
1603558712557,387,0.14208984,-0.99176025,0.09320068
1603558712558,388,0.14038086,-0.98638916,0.1395874
1603558712559,389,0.07373047,-1.0059204,0.17181396
1603558712560,390,0.14038086,-0.94488525,0.15594482
1603558712560,391,0.15014648,-0.9631958,0.16937256
1603558712561,392,0.14404297,-1.0049438,0.14593506
1603558712561,393,0.19116211,-0.9697876,0.062194824
1603558712562,394,0.1887207,-0.956604,0.12054443
1603558712562,395,0.11279297,-0.9536743,0.11248779
1603558712563,396,0.14794922,-0.98321533,0.06536865
1603558712563,397,0.17700195,-0.99664307,0.013366699
1603558712564,398,0.13354492,-0.98150635,-0.034484863
1603558712565,399,0.0625,-1.0635376,-0.12652588
1603558712565,400,0.09814453,-1.0176392,-0.21759033
1603558712566,401,0.10839844,-0.9859009,-0.26397705
1603558712566,402,0.045898438,-1.0276489,-0.35699463
1603558712567,403,0.001953125,-0.99884033,-0.3274536
1603558712567,404,-0.008056641,-0.9871216,-0.37286377
1603558712568,405,-0.028320312,-0.94781494,-0.39434814
1603558712568,406,0.0041503906,-1.0054321,-0.39849854
1603558712569,407,-0.026123047,-0.9558716,-0.427063
1603558712570,408,-0.068359375,-0.9446411,-0.4397583
1603558712571,409,0.0034179688,-0.92633057,-0.42266846
1603558712571,410,0.07104492,-0.9072876,-0.41314697
1603558712571,411,0.22192383,-0.864563,-0.36993408
1603558712571,412,0.35766602,-0.86187744,-0.28155518
1603558712571,413,0.8823242,-0.7798462,-0.37994385
1603558712573,414,0.5722656,-0.8115845,-0.3406372
1603558712573,415,0.67871094,-0.59991455,-0.40093994
1603558714805,416,0.95874023,-0.5293579,-0.42242432
1603558714805,417,0.70336914,-0.4837036,-0.3796997
1603558714805,418,0.9172363,-0.44317627,-0.40679932
1603558714808,419,0.9213867,-0.4961548,-0.32965088
1603558714808,420,0.7331543,-0.44976807,-0.18829346
1603558714808,421,0.68603516,-0.51568604,-0.09967041
1603558714808,422,0.70092773,-0.52960205,-0.08795166
1603558714810,423,0.77319336,-0.6050415,-0.093811035
1603558714810,424,0.7758789,-0.58428955,-0.13726807
1603558714810,425,0.73291016,-0.69366455,-0.09576416
1603558714812,426,0.6867676,-0.69903564,-0.05303955
1603558714812,427,0.6682129,-0.7317505,-0.07672119
1603558714812,428,0.6171875,-0.75665283,-0.073791504
1603558714812,429,0.6464844,-0.7752075,-0.07696533
1603558714813,430,0.58569336,-0.7744751,-0.04937744
1603558714813,431,0.54052734,-0.8130493,-0.040100098
1603558714813,432,0.43530273,-0.87286377,-0.0064086914
1603558714814,433,0.36938477,-0.8779907,0.01727295
1603558714814,434,0.27246094,-1.0337524,0.011413574
1603558714814,435,0.21679688,-1.0210571,0.053649902
1603558714815,436,0.18408203,-1.0137329,0.08807373
1603558714815,437,-0.021484375,-0.97979736,-0.008850098
1603558714816,438,-0.018554688,-0.9534302,0.010925293
1603558714816,439,-0.041748047,-1.0266724,0.047058105
1603558714816,440,0.02709961,-1.0244751,0.11834717
1603558714817,441,0.17333984,-1.0125122,0.03656006
1603558714817,442,0.09350586,-1.1299438,0.011657715
1603558714818,443,0.10913086,-0.8875122,0.054870605
1603558714818,444,0.10205078,-1.0586548,0.17010498
1603558714818,445,0.05029297,-0.80963135,0.2074585
1603558714818,446,0.092285156,-0.909729,0.24481201
1603558714819,447,0.47387695,-1.0838013,0.22528076
1603558717429,448,0.30273438,-1.2810669,0.06317139
1603558717429,449,-0.05029297,-1.1226196,-0.29888916
1603558717430,450,0.22485352,-0.9961548,-0.23760986
1603558717431,451,-0.19799805,-0.9631958,-0.06695557
1603558717432,452,0.068115234,-0.8640747,-0.07940674
1603558717432,453,0.0925293,-1.0171509,0.008972168
1603558717433,454,-0.025634766,-0.9780884,0.090026855
1603558717433,455,-0.13256836,-1.107727,0.09490967
1603558717434,456,-0.2043457,-1.3775024,0.011169434
1603558717434,457,0.32714844,-0.8452759,-0.08428955
1603558717435,458,-0.118652344,-1.0501099,-0.043273926
1603558717435,459,0.083984375,-0.9360962,0.018981934
1603558717436,460,0.030761719,-0.99713135,0.06072998
1603558717437,461,0.029296875,-0.95977783,0.08319092
1603558717437,462,-0.075683594,-1.0195923,0.12347412
1603558717438,463,-0.114990234,-1.1331177,0.11590576
1603558717438,464,0.13061523,-1.2564087,-0.016418457
1603558717439,465,0.080322266,-0.7498169,-0.16143799
1603558717440,466,0.04248047,-1.1836548,0.020935059
1603558717440,467,-0.030273438,-0.8164673,-0.054992676
1603558717440,468,0.061523438,-1.0591431,-0.038391113
1603558717441,469,-0.020751953,-1.017395,-0.008117676
1603558717441,470,-0.16821289,-0.98223877,-0.06793213
1603558717442,471,0.083740234,-1.1738892,-0.014709473
1603558717442,472,0.3059082,-1.0327759,-6.1035156E-5
1603558717442,473,0.18725586,-1.0025024,0.039733887
1603558717443,474,0.25927734,-0.9602661,0.09320068
1603558717443,475,0.24682617,-0.9365845,0.12982178
1603558717443,476,0.27368164,-0.8880005,0.09613037
1603558717444,477,0.22802734,-1.0466919,0.016784668
1603558717444,478,0.23925781,-1.0061646,0.042907715
1603558717445,479,0.15722656,-0.9602661,0.039489746
1603558720053,480,0.1352539,-1.0274048,0.03314209
1603558720054,481,0.057861328,-1.0049438,0.058532715
1603558720056,482,-0.0043945312,-1.015686,0.06878662
1603558720058,483,-0.0017089844,-1.0205688,0.08782959
1603558720059,484,-0.100097656,-1.0093384,0.058532715
1603558720059,485,-0.06542969,-1.0413208,0.10321045
1603558720059,486,-0.030029297,-0.9990845,0.11663818
1603558720060,487,-0.03491211,-1.0039673,0.10784912
1603558720062,488,-0.03149414,-1.0029907,0.09686279
1603558720062,489,-0.029541016,-1.0120239,0.09564209
1603558720062,490,-0.026855469,-1.0200806,0.082458496
1603558720063,491,-0.011230469,-1.0261841,0.10736084
1603558720064,492,-0.024658203,-0.99835205,0.12371826
1603558720065,493,-0.017578125,-1.006897,0.09222412
1603558720065,494,0.0034179688,-1.0130005,0.11395264
1603558720066,495,-0.02319336,-1.0032349,0.121520996
1603558720067,496,-0.0029296875,-1.0134888,0.10614014
1603558720067,497,0.001953125,-1.0088501,0.10858154
1603558720067,498,0.01928711,-1.0054321,0.09906006
1603558720068,499,0.01953125,-1.0088501,0.101745605
1603558720070,500,0.004638672,-1.0078735,0.098083496
1603558720070,501,0.0056152344,-1.0076294,0.08709717
1603558720070,502,0.013916016,-1.0076294,0.10101318
1603558720070,503,-0.008056641,-1.0022583,0.12884521
1603558720071,504,-0.026855469,-1.0108032,0.1408081
1603558720071,505,-0.06591797,-1.0249634,0.14105225
1603558720071,506,-0.060791016,-0.98809814,0.13153076
1603558720071,507,-0.04736328,-0.9795532,0.1564331
1603558720072,508,-0.049072266,-0.9968872,0.17572021
1603558720072,509,-0.08959961,-1.0151978,0.12982178
1603558720072,510,-0.09399414,-1.0337524,0.117614746
1603558720073,511,-0.09106445,-0.99053955,0.11248779
1603558722678,512,-0.043945312,-1.0149536,0.12786865
1603558722678,513,0.01171875,-1.0025024,0.109558105
1603558722679,514,-0.029541016,-1.0149536,0.11151123
1603558722679,515,-0.013427734,-1.008606,0.11224365
1603558722681,516,-0.021484375,-1.0117798,0.10809326
1603558722681,517,-0.02319336,-1.0029907,0.11639404
1603558722681,518,-0.01171875,-1.0125122,0.11639404
1603558722682,519,0.005859375,-1.0144653,0.11541748
1603558722682,520,-0.016113281,-1.0142212,0.11175537
1603558722684,521,-0.010986328,-1.0042114,0.09564209
1603558722684,522,0.0078125,-1.0142212,0.097839355
1603558722684,523,0.009277344,-1.0142212,0.1317749
1603558722685,524,-0.0048828125,-1.0110474,0.13006592
1603558722687,525,-0.026855469,-1.0061646,0.14910889
1603558722687,526,-0.03930664,-0.9849243,0.19207764
1603558722689,527,-0.031982422,-1.000061,0.1942749
1603558722689,528,-0.017333984,-0.98760986,0.18109131
1603558722690,529,0.010009766,-0.9985962,0.18426514
1603558722690,530,0.0036621094,-1.010315,0.17303467
1603558722691,531,0.09741211,-0.9690552,0.12591553
1603558722691,532,0.08251953,-0.98883057,0.17474365
1603558722691,533,0.06933594,-0.9915161,0.17962646
1603558722692,534,0.06518555,-0.98809814,0.17596436
1603558722692,535,0.0690918,-0.9963989,0.18475342
1603558722693,536,0.06347656,-1.0007935,0.15618896
1603558722693,537,0.053955078,-0.9968872,0.17156982
1603558722694,538,0.06201172,-1.0044556,0.17156982
1603558722695,539,0.07885742,-0.9920044,0.1564331
1603558722695,540,0.10205078,-0.9841919,0.13201904
1603558722695,541,0.09716797,-0.9993286,0.14471436
1603558722696,542,0.10571289,-0.9734497,0.13079834
1603558722697,543,0.11254883,-0.97491455,0.13568115
1603558725491,544,0.099609375,-0.9866333,0.152771
1603558725492,545,0.10546875,-0.9985962,0.1593628
1603558725492,546,0.08911133,-0.96881104,0.12615967
1603558725493,547,0.05810547,-0.9961548,0.13568115
1603558725494,548,0.043701172,-0.9944458,0.14691162
1603558725494,549,0.07397461,-0.9937134,0.121520996
1603558725495,550,0.029541016,-1.0115356,0.10638428
1603558725496,551,-0.03173828,-1.0264282,0.058776855
1603558725497,552,0.0029296875,-1.039856,0.08685303
1603558725497,553,0.0029296875,-1.0061646,0.090026855
1603558725497,554,0.041748047,-1.0325317,0.04559326
1603558725498,555,-0.0068359375,-1.0222778,0.026062012
1603558725498,556,-0.0012207031,-1.0432739,-0.016174316
1603558725502,557,-0.049316406,-1.0195923,-0.028381348
1603558725502,558,0.032226562,-0.99884033,-0.034973145
1603558725502,559,0.111816406,-1.0234985,-0.020812988
1603558725502,560,0.16748047,-1.0523071,0.031433105
1603558725502,561,0.15893555,-0.9944458,0.031188965
1603558725502,562,0.22753906,-1.0027466,0.07171631
1603558725503,563,0.23901367,-0.9585571,0.06121826
1603558725503,564,0.27416992,-0.9768677,0.074645996
1603558725503,565,0.29785156,-0.9338989,0.058532715
1603558725503,566,0.30737305,-0.9077759,0.07293701
1603558725503,567,0.2993164,-0.9092407,0.082214355
1603558725504,568,0.2915039,-0.960022,0.08807373
1603558725505,569,0.30297852,-0.9348755,0.08441162
1603558725508,570,0.33422852,-0.92022705,0.081726074
1603558725508,571,0.37060547,-0.9043579,0.10247803
1603558725508,572,0.3330078,-0.9639282,0.074157715
1603558725508,573,0.34570312,-1.0774536,0.011413574
1603558725509,574,0.32836914,-0.9795532,-0.08917236
1603558725509,575,0.15429688,-0.9819946,-0.17852783
1603558727740,576,0.10888672,-1.0320435,-0.12188721
1603558727740,577,0.12695312,-0.94000244,-0.12042236
1603558727741,578,0.13427734,-1.0249634,-0.11090088
1603558727742,579,0.12231445,-0.9495239,-0.15509033
1603558727742,580,0.08154297,-0.9260864,-0.2954712
1603558727743,581,-0.05517578,-1.0166626,-0.36114502
1603558727744,582,0.23364258,-0.91656494,-0.2588501
1603558727744,583,0.22143555,-0.99591064,-0.18023682
1603558727745,584,0.4013672,-0.9326782,-0.24005127
1603558727746,585,0.3618164,-0.8777466,-0.14483643
1603558727746,586,0.6369629,-0.97320557,-0.057678223
1603558727747,587,0.6635742,-0.8284302,-0.12017822
1603558727748,588,0.6574707,-0.7493286,-0.23883057
1603558727748,589,0.6464844,-0.80596924,-0.24224854
1603558727749,590,0.62597656,-0.75079346,-0.18878174
1603558727749,591,0.5341797,-0.7427368,-0.121154785
1603558727750,592,0.42114258,-0.76446533,-0.17559814
1603558727750,593,0.9321289,-0.7817993,-0.50250244
1603558727750,594,0.3322754,-0.86724854,-0.456604
1603558727751,595,0.5583496,-0.6572876,-0.45220947
1603558727752,596,0.37158203,-0.9187622,-0.48858643
1603558727752,597,0.40161133,-0.9368286,-0.46002197
1603558727752,598,0.26757812,-0.928772,-0.41949463
1603558727752,599,0.16577148,-0.8809204,-0.440979
1603558727753,600,0.076171875,-0.95318604,-0.41314697
1603558727754,601,0.10668945,-0.8882446,-0.4360962
1603558727754,602,0.32080078,-1.0818481,-0.109436035
1603558727754,603,0.48632812,-1.0508423,0.04827881
1603558727754,604,0.23461914,-0.91851807,-0.0044555664
1603558727755,605,0.18554688,-0.8311157,0.10076904
1603558727755,606,0.11425781,-0.96417236,0.09124756
1603558727756,607,0.11645508,-1.0276489,0.18890381
1603558730366,608,0.100097656,-0.9932251,0.11102295
1603558730367,609,0.17944336,-1.3157349,0.03363037
1603558730368,610,0.3095703,-0.69488525,-0.03326416
1603558730369,611,0.110839844,-1.1714478,0.05340576
1603558730369,612,0.064697266,-0.9434204,0.016784668
1603558730370,613,-0.041748047,-0.942688,0.028259277
1603558730371,614,-0.103759766,-0.98150635,0.01776123
1603558730371,615,-0.17651367,-0.95269775,-0.024475098
1603558730372,616,0.07104492,-1.0957642,-3.0517578E-4
1603558730373,617,0.19165039,-1.2297974,0.12884521
1603558730373,618,0.29833984,-0.8711548,0.034606934
1603558730374,619,0.107421875,-0.90167236,0.11883545
1603558730375,620,0.17944336,-0.9241333,0.13616943
1603558730375,621,0.22314453,-0.9495239,0.15570068
1603558730376,622,0.4128418,-1.0542603,0.16790771
1603558730376,623,0.13769531,-1.0430298,0.10736084
1603558730381,624,0.041015625,-0.9644165,0.07293701
1603558730381,625,0.022705078,-1.050354,-0.09869385
1603558730381,626,-0.17114258,-1.1084595,-0.14190674
1603558730381,627,-0.0014648438,-1.1055298,0.09197998
1603558730381,628,-0.21289062,-0.9553833,0.012878418
1603558730382,629,-0.12524414,-0.9902954,0.002380371
1603558730382,630,-0.030517578,-1.0303345,0.031921387
1603558730382,631,-0.060058594,-0.987854,0.061462402
1603558730382,632,0.2241211,-0.82159424,-0.04425049
1603558730382,633,0.44995117,-0.93707275,-0.03326416
1603558730382,634,0.44091797,-0.9414673,0.026062012
1603558730384,635,0.42260742,-1.0545044,0.10662842
1603558730384,636,0.053710938,-0.9295044,0.11102295
1603558730384,637,0.20654297,-1.1426392,0.09173584
1603558730384,638,0.030761719,-1.2200317,0.1359253
1603558730384,639,-0.13647461,-1.1343384,0.21746826
1603558732991,640,-0.13012695,-0.8591919,0.20037842
1603558732991,641,-0.1237793,-0.78912354,-0.27301025
1603558732992,642,0.05419922,-1.1409302,-0.020080566
1603558732993,643,-0.055419922,-0.9338989,-0.015930176
1603558732994,644,-0.022949219,-1.0535278,0.08270264
1603558732995,645,-0.20214844,-0.9976196,0.024108887
1603558732997,646,-0.21679688,-1.0422974,0.097839355
1603558732997,647,-0.18945312,-1.0222778,-0.006652832
1603558732998,648,-0.14916992,-1.0542603,-0.055480957
1603558732999,649,-0.14501953,-1.1045532,-0.15704346
1603558732999,650,0.118652344,-1.1072388,-0.027893066
1603558733000,651,0.19873047,-1.0471802,-0.06793213
1603558733000,652,0.17944336,-0.97784424,-0.2263794
1603558733000,653,0.5698242,-0.9690552,-0.18536377
1603558733001,654,0.48876953,-0.9348755,-0.04058838
1603558733001,655,0.2578125,-1.0491333,0.09588623
1603558733002,656,0.16113281,-0.8948364,0.00970459
1603558733002,657,0.08276367,-0.9439087,-0.105285645
1603558733002,658,0.171875,-0.9072876,-0.09698486
1603558733003,659,0.43554688,-0.98883057,-0.055480957
1603558733003,660,0.38427734,-0.9714966,-0.097961426
1603558733003,661,0.29711914,-1.0928345,-0.047912598
1603558733004,662,0.2944336,-0.89190674,-0.058410645
1603558733005,663,0.16479492,-0.91192627,-0.073791504
1603558733005,664,0.2758789,-1.0151978,-0.08477783
1603558733005,665,0.13427734,-0.9780884,-0.15338135
1603558733005,666,0.08618164,-1.1199341,-0.1260376
1603558733006,667,-0.14428711,-1.1135864,-0.029846191
1603558733006,668,-0.19873047,-1.2036743,0.11541748
1603558733006,669,-0.20117188,-1.0579224,-0.04156494
1603558733007,670,-0.15014648,-0.9512329,-0.05328369
1603558733007,671,0.13208008,-0.7984009,-0.34405518
1603558735618,672,0.025878906,-1.130188,-0.12432861
1603558735618,673,0.020263672,-0.9812622,-0.0032348633
1603558735619,674,-0.05444336,-0.99835205,0.029968262
1603558735619,675,-0.064697266,-1.0459595,0.015563965
1603558735619,676,-0.23120117,-1.0525513,0.12908936
1603558735621,677,-0.2241211,-1.0127563,-0.07330322
1603558735621,678,-0.16699219,-1.1004028,0.07220459
1603558735621,679,-0.14941406,-0.9885864,-0.031555176
1603558735622,680,-0.21411133,-1.0842896,-0.097229004
1603558735622,681,0.23901367,-1.163147,-0.117492676
1603558735623,682,0.07885742,-1.0735474,0.020690918
1603558735623,683,0.3959961,-0.8936157,-0.09161377
1603558735624,684,0.28173828,-0.9644165,-0.021057129
1603558735625,685,0.4025879,-0.89678955,0.0038452148
1603558735625,686,0.07446289,-1.0877075,0.1251831
1603558735626,687,0.0703125,-0.93585205,-0.13775635
1603558735627,688,-0.05444336,-1.0198364,-0.03643799
1603558735627,689,-0.07128906,-0.97247314,-0.010559082
1603558735627,690,0.030761719,-1.013977,-0.14093018
1603558735628,691,-0.05102539,-1.1089478,-0.1716919
1603558735629,692,0.068359375,-1.0178833,-0.17803955
1603558735629,693,0.017822266,-1.1140747,-0.15020752
1603558735629,694,-0.08544922,-0.9819946,-0.11968994
1603558735629,695,-0.011230469,-1.1177368,0.08782959
1603558735630,696,-0.15917969,-1.0881958,0.06097412
1603558735631,697,-0.0871582,-1.0540161,0.16253662
1603558735631,698,0.033203125,-1.069397,0.15106201
1603558735631,699,-0.040527344,-0.97857666,0.13031006
1603558735631,700,-0.07421875,-0.9204712,0.07513428
1603558735632,701,0.045654297,-0.98394775,0.007751465
1603558735632,702,-0.091552734,-0.9697876,0.12908936
1603558735632,703,-0.28808594,-1.0432739,0.04559326
1603558738238,704,-0.1105957,-1.0252075,0.01727295
1603558738239,705,-0.13354492,-1.0652466,0.018249512
1603558738239,706,0.05029297,-1.0322876,0.078308105
1603558738241,707,0.15307617,-0.9846802,0.005554199
1603558738241,708,0.22509766,-1.1152954,0.086120605
1603558738241,709,0.37060547,-0.9636841,0.027282715
1603558738244,710,0.44213867,-0.9053345,0.023864746
1603558738244,711,0.3305664,-0.9390259,-0.05670166
1603558738246,712,0.19726562,-1.0945435,-0.04083252
1603558738246,713,0.18164062,-1.0083618,-0.026672363
1603558738247,714,0.1899414,-1.0003052,0.011169434
1603558738248,715,0.18310547,-0.98394775,0.08660889
1603558738248,716,-0.060546875,-1.0095825,0.101745605
1603558738249,717,-0.15991211,-0.9990845,0.18914795
1603558738249,718,0.010253906,-0.9924927,0.13226318
1603558738249,719,-0.23803711,-0.9680786,0.2477417
1603558738249,720,-0.09838867,-0.975647,0.09710693
1603558738250,721,-0.28808594,-1.0908813,0.1359253
1603558738250,722,-0.28076172,-1.039856,0.082214355
1603558738250,723,-0.07519531,-1.0007935,0.019714355
1603558738251,724,-0.10864258,-0.9859009,0.10760498
1603558738251,725,-0.08666992,-1.0393677,0.10662842
1603558738251,726,-0.0073242188,-1.019104,0.08050537
1603558738252,727,-7.324219E-4,-1.0154419,0.10101318
1603558738252,728,0.033203125,-1.0706177,0.1149292
1603558738253,729,0.08959961,-0.9607544,0.10223389
1603558738253,730,0.28222656,-0.9026489,0.042907715
1603558738253,731,0.47338867,-0.93096924,-0.026672363
1603558738254,732,0.28344727,-1.0703735,-0.046447754
1603558738254,733,0.23901367,-0.97247314,-0.124816895
1603558738254,734,0.123291016,-1.052063,-0.1026001
1603558738255,735,0.16577148,-0.9968872,-0.0025024414
1603558740866,736,-0.12670898,-1.1170044,0.059265137
1603558740868,737,-0.10083008,-0.9871216,0.18695068
1603558740868,738,-0.11791992,-0.9829712,0.24163818
1603558740868,739,-0.0036621094,-1.0872192,0.18475342
1603558740869,740,-0.21557617,-0.9746704,0.18499756
1603558740869,741,-0.21533203,-0.8933716,-0.032287598
1603558740871,742,-0.14135742,-1.0396118,-0.059143066
1603558740872,743,-0.3161621,-1.0933228,0.031433105
1603558740872,744,-0.1340332,-1.1104126,-0.0960083
1603558740872,745,-0.030761719,-0.9668579,-0.027648926
1603558740872,746,-0.055419922,-1.0056763,-0.023010254
1603558740874,747,-0.067871094,-0.9956665,0.015808105
1603558740874,748,-0.032470703,-1.0256958,0.0446167
1603558740874,749,0.18774414,-0.9644165,0.03387451
1603558740875,750,0.1899414,-1.0484009,-0.008361816
1603558740876,751,0.122558594,-1.1777954,-0.049621582
1603558740876,752,0.018798828,-1.0984497,0.010925293
1603558740877,753,0.014404297,-1.0217896,0.062438965
1603558740877,754,0.040283203,-0.9212036,0.120788574
1603558740879,755,0.019042969,-0.97320557,0.13421631
1603558740879,756,-0.0014648438,-1.0454712,0.06365967
1603558740879,757,-0.08276367,-0.9990845,0.08074951
1603558740879,758,-0.037109375,-0.9414673,0.03289795
1603558740879,759,0.0,-1.145813,-0.028625488
1603558740880,760,-0.06298828,-1.1521606,0.059753418
1603558740880,761,-0.009521484,-1.1062622,0.044128418
1603558740881,762,-0.06958008,-0.9212036,-0.015930176
1603558740881,763,-0.080078125,-0.847229,-0.07232666
1603558740881,764,0.032958984,-0.9307251,-0.085998535
1603558740882,765,-0.061279297,-0.93634033,-0.06085205
1603558740882,766,0.16137695,-0.98443604,-0.008850098
1603558740883,767,-0.057861328,-1.1467896,0.08148193
1603558743306,768,0.109375,-1.3342896,0.14202881
1603558743307,769,0.1340332,-1.3230591,0.13006592
1603558743307,770,0.095458984,-0.63067627,-0.0178833
1603558743308,771,0.068359375,-0.6802368,0.07171631
1603558743308,772,0.38793945,-1.3252563,0.050964355
1603558743309,773,-0.09863281,-0.8074341,-0.09307861
1603558743309,774,0.017089844,-0.85406494,-0.057678223
1603558743310,775,-0.030273438,-1.2122192,0.05340576
1603558743310,776,0.02709961,-1.3921509,0.18133545
1603558743311,777,0.008544922,-1.1636353,0.1708374
1603558743311,778,-0.05053711,-0.7288208,0.05218506
1603558743312,779,0.047851562,-0.6526489,-0.06793213
1603558743313,780,0.17016602,-1.3303833,0.039733887
1603558743314,781,0.32421875,-0.71881104,-0.020080566
1603558743314,782,0.0073242188,-0.80914307,-0.02911377
1603558743314,783,-0.076660156,-0.9807739,0.03778076
1603558743314,784,0.12231445,-1.4016724,0.184021
1603558743315,785,0.119140625,-1.3606567,0.13543701
1603558743315,786,0.15307617,-1.1052856,0.101989746
1603558743316,787,0.046142578,-0.71466064,0.04095459
1603558743316,788,0.16552734,-0.81085205,0.046325684
1603558743317,789,0.17480469,-1.1221313,0.11102295
1603558743318,790,0.0625,-0.91119385,0.07342529
1603558743318,791,-0.03125,-0.75738525,0.019470215
1603558743318,792,-0.24389648,-1.3484497,-0.042541504
1603558743319,793,-0.32714844,-1.0647583,0.18695068
1603558743320,794,-0.044433594,-1.0505981,0.050720215
1603558743320,795,-0.17944336,-0.9607544,0.0680542
1603558743320,796,-0.20800781,-1.0071411,0.012145996
1603558743320,797,-0.044921875,-0.9939575,-0.023010254
1603558743320,798,-0.17626953,-1.0357056,-0.027893066
1603558743321,799,0.11425781,-1.0420532,0.090270996
1603558745928,800,-0.0026855469,-0.9812622,0.019714355
1603558745928,801,0.1862793,-1.0178833,0.012390137
1603558745929,802,0.1652832,-1.0369263,0.03778076
1603558745930,803,0.27441406,-1.0105591,-0.026184082
1603558745930,804,0.16918945,-0.9697876,0.014587402
1603558745931,805,0.23510742,-1.0435181,0.04510498
1603558745932,806,0.19604492,-0.8711548,-0.009094238
1603558745933,807,0.31518555,-0.98223877,-0.07354736
1603558745933,808,0.3791504,-0.911438,-0.089416504
1603558745933,809,0.31201172,-0.8279419,-0.14703369
1603558745933,810,0.26831055,-0.8179321,-0.22003174
1603558745934,811,0.4104004,-0.8230591,-0.44195557
1603558745935,812,0.3137207,-1.0325317,-0.28668213
1603558745935,813,0.32910156,-0.725647,-0.38311768
1603558745936,814,0.28930664,-0.8718872,-0.4529419
1603558745936,815,0.072753906,-0.34429932,-0.17730713
1603558745937,816,0.64453125,-0.22833252,-0.4102173
1603558745938,817,0.76782227,-0.96661377,-0.38336182
1603558745939,818,0.4897461,-0.45587158,-0.472229
1603558745939,819,0.8249512,-0.6741333,-0.52178955
1603558745939,820,0.8449707,-0.63848877,-0.59698486
1603558745939,821,0.8847656,-0.52301025,-0.6018677
1603558745941,822,1.0837402,-0.44610596,-0.631897
1603558745941,823,1.0646973,-0.21173096,-0.5630493
1603558745941,824,0.83251953,-0.222229,-0.6099243
1603558745941,825,0.7116699,-0.20465088,-0.6333618
1603558745941,826,0.94750977,-0.031311035,-0.71588135
1603558745942,827,0.38623047,-0.14093018,-0.7764282
1603558745942,828,0.5888672,-0.17779541,-0.7185669
1603558745943,829,0.5041504,-0.19049072,-0.8110962
1603558745943,830,0.46606445,-0.24737549,-0.76104736
1603558745943,831,0.44604492,-0.28082275,-0.7905884
1603558748741,832,0.65283203,-0.18780518,-1.1480103
1603558748741,833,0.14624023,-0.10406494,-0.85284424
1603558748743,834,0.7709961,-0.19317627,-0.94610596
1603558748743,835,0.3713379,-0.33892822,-0.90875244
1603558748744,836,0.61376953,-0.43511963,-0.756897
1603558748745,837,0.47802734,-0.57110596,-0.7041626
1603558748746,838,0.41577148,-0.6555786,-0.7090454
1603558748746,839,0.54052734,-0.51885986,-0.5462036
1603558748749,840,0.5908203,-0.5088501,-0.6157837
1603558748751,841,0.6081543,-0.6030884,-0.6445923
1603558748751,842,0.8898926,-0.611145,-0.6734009
1603558748753,843,0.8249512,-0.4331665,-0.5120239
1603558748757,844,0.73535156,-0.23199463,-0.43389893
1603558748757,845,0.6826172,-0.23443604,-0.4295044
1603558748757,846,0.7324219,-0.2131958,-0.5022583
1603558748758,847,0.8105469,-0.15240479,-0.5071411
1603558748758,848,0.88427734,-0.25787354,-0.52667236
1603558748759,849,0.6621094,-0.32965088,-0.38702393
1603558748759,850,0.69970703,-0.04840088,-0.84625244
1603558748761,851,0.71240234,0.07293701,-0.7749634
1603558748761,852,0.6633301,-0.41119385,-0.69415283
1603558748761,853,0.71069336,-0.08892822,-0.85479736
1603558748761,854,0.6784668,-0.3196411,-0.81866455
1603558748761,855,0.7636719,-0.22125244,-0.73516846
1603558748761,856,0.5500488,-0.13311768,-0.5437622
1603558748762,857,0.842041,-0.33062744,-0.53570557
1603558748762,858,1.0144043,-0.2793579,-0.3665161
1603558748763,859,0.8300781,-0.18756104,-0.43341064
1603558748763,860,0.6687012,-0.18829346,-0.43243408
1603558748763,861,0.6923828,-0.331604,-0.3555298
1603558748763,862,0.84716797,-0.5569458,-0.19390869
1603558748763,863,0.66430664,-0.5532837,-0.21929932
1603558751365,864,0.5632324,-0.58477783,-0.2312622
1603558751366,865,0.70947266,-0.6917114,-0.19195557
1603558751367,866,0.689209,-0.7503052,-0.23565674
1603558751368,867,0.8635254,-0.8743286,-0.3916626
1603558751369,868,0.71362305,-0.8352661,-0.3513794
1603558751369,869,0.49316406,-0.8296509,-0.4866333
1603558751370,870,0.5102539,-0.72125244,-0.5249634
1603558751370,871,0.62402344,-0.66851807,-0.5588989
1603558751371,872,0.9067383,-0.5906372,-0.59161377
1603558751371,873,0.8166504,-0.36187744,-0.4837036
1603558751372,874,0.7819824,-0.34820557,-0.40142822
1603558751372,875,0.7663574,-0.43218994,-0.26348877
1603558751373,876,0.56884766,-0.56134033,-0.105529785
1603558751373,877,0.5578613,-0.16217041,-0.36871338
1603558751373,878,1.067627,-0.13800049,-0.39971924
1603558751374,879,0.6965332,-0.12921143,-0.38116455
1603558751374,880,0.80371094,-0.1572876,-0.4439087
1603558751375,881,0.73779297,-0.3616333,-0.5100708
1603558751375,882,0.8161621,-0.34259033,-0.61676025
1603558751375,883,0.7458496,-0.093811035,-0.66534424
1603558751376,884,0.9272461,-0.19781494,-1.1868286
1603558751377,885,0.27246094,-0.073791504,-0.7124634
1603558751377,886,0.54956055,-0.34381104,-0.81744385
1603558751378,887,0.35253906,-0.2564087,-0.7288208
1603558751378,888,0.4399414,-0.33013916,-0.9331665
1603558751378,889,0.29248047,-0.30181885,-0.99786377
1603558751378,890,0.36816406,-0.3970337,-0.88946533
1603558751379,891,0.46289062,-0.48687744,-0.880188
1603558751379,892,0.4567871,-0.4776001,-0.85284424
1603558751379,893,0.6086426,-0.58135986,-0.8245239
1603558751380,894,0.6904297,-0.5762329,-0.7312622
1603558751380,895,0.6303711,-0.8230591,-0.6321411
1603558753803,896,0.67456055,-0.7659302,-0.53375244
1603558753804,897,0.73535156,-0.70806885,-0.37628174
1603558753805,898,0.5654297,-0.6553345,-0.34332275
1603558753806,899,0.673584,-0.41729736,-0.2901001
1603558753807,900,0.592041,-0.52056885,-0.26080322
1603558753808,901,0.35546875,-0.866272,-0.034973145
1603558753809,902,0.37475586,-0.8189087,-0.10772705
1603558753809,903,0.44262695,-1.0383911,0.08734131
1603558753809,904,0.11303711,-0.95635986,-0.1951294
1603558753810,905,0.39160156,-1.3233032,-0.39190674
1603558753810,906,0.35375977,-1.3115845,-0.18658447
1603558753810,907,0.18896484,-1.2908325,-0.23345947
1603558753811,908,0.12182617,-1.0474243,-0.3579712
1603558753812,909,0.1303711,-0.6983032,-0.2354126
1603558753812,910,0.049316406,-0.58673096,-0.25177002
1603558753813,911,0.1784668,-0.66070557,-0.31427002
1603558753813,912,0.20263672,-0.75445557,-0.42681885
1603558753813,913,0.19897461,-0.7385864,-0.45880127
1603558753813,914,0.44433594,-1.2539673,0.024108887
1603558753814,915,0.24682617,-1.2061157,0.0099487305
1603558753814,916,-0.048095703,-0.55181885,0.0048217773
1603558753814,917,0.18261719,-1.1758423,0.10076904
1603558753815,918,0.22314453,-0.86309814,0.010681152
1603558753815,919,0.22436523,-0.8484497,-0.12042236
1603558753816,920,0.23071289,-0.6555786,-0.30767822
1603558753816,921,0.06665039,-0.5322876,-0.3250122
1603558753817,922,0.24243164,-0.5852661,-0.37408447
1603558753817,923,0.29614258,-0.6712036,-0.35113525
1603558753818,924,0.39282227,-0.6189575,-0.3892212
1603558753818,925,0.6125488,-0.87335205,-0.5393677
1603558753818,926,0.98168945,-0.76934814,-0.70391846
1603558753818,927,0.83032227,-0.7637329,-0.8189087
1603558756427,928,0.76831055,-0.7793579,-0.9639282
1603558756427,929,1.1542969,-0.4981079,-0.5942993
1603558756428,930,0.97998047,0.11834717,-1.2310181
1603558756429,931,0.12866211,0.4154663,-1.1641235
1603558756429,932,0.4416504,0.10614014,-0.64727783
1603558756429,933,0.34423828,0.043640137,-0.52227783
1603558756430,934,0.26098633,0.18572998,-0.59625244
1603558756431,935,0.4921875,0.21307373,-0.77008057
1603558756431,936,0.40014648,0.124938965,-0.79571533
1603558756431,937,0.6152344,-0.070373535,-0.8796997
1603558756432,938,0.7050781,-0.26861572,-0.9065552
1603558756432,939,0.7426758,-0.35821533,-0.9065552
1603558756434,940,0.8210449,-0.16070557,-0.9212036
1603558756434,941,0.7236328,-0.21588135,-0.85040283
1603558756434,942,0.8046875,-0.08721924,-0.8670044
1603558756435,943,0.85839844,-0.1104126,-0.8670044
1603558756435,944,0.79589844,-0.04449463,-0.92266846
1603558756436,945,0.7102051,-0.0068969727,-0.79937744
1603558756436,946,0.8129883,-0.11187744,-0.9260864
1603558756437,947,0.75219727,-0.14239502,-0.9956665
1603558756437,948,0.75561523,-0.09283447,-1.0337524
1603558756438,949,0.18945312,0.7880249,-0.48931885
1603558756438,950,0.0793457,-0.093566895,-0.22930908
1603558756439,951,0.46728516,-0.17852783,-0.43756104
1603558756439,952,0.052490234,0.043151855,-0.41290283
1603558756439,953,0.32348633,0.23626709,-0.76885986
1603558756440,954,0.6166992,-0.13409424,-1.0432739
1603558756440,955,0.6567383,-0.40655518,-1.159729
1603558756440,956,1.1247559,-0.923645,-1.2857056
1603558756441,957,0.88183594,-1.2957153,-0.98101807
1603558756442,958,0.6672363,-1.197815,-0.5796509
1603558756442,959,0.46289062,-1.038147,-0.4421997
1603558758864,960,0.6303711,-1.3030396,-0.31573486
1603558758865,961,0.5517578,-1.2810669,-0.27496338
1603558758867,962,0.27172852,-0.72247314,-0.21759033
1603558758867,963,-0.19726562,0.73553467,-0.25909424
1603558758868,964,0.21435547,-0.33111572,-0.031066895
1603558758869,965,-0.14624023,-0.1987915,0.012390137
1603558758869,966,-4.8828125E-4,0.116882324,-0.05670166
1603558758870,967,0.075927734,0.08074951,-0.16925049
1603558758871,968,0.47143555,-0.8364868,-0.36212158
1603558758871,969,0.51586914,-1.9998169,0.2333374
1603558758871,970,0.46142578,-0.87213135,-0.3821411
1603558758871,971,0.8635254,-1.2149048,-0.20367432
1603558758872,972,0.6081543,-0.894104,-0.54815674
1603558758873,973,0.6262207,-1.0925903,-0.34014893
1603558758873,974,0.42529297,-0.99346924,-0.32891846
1603558758873,975,0.84106445,-0.83184814,-0.48760986
1603558758874,976,0.8161621,-1.0261841,-0.472229
1603558758874,977,0.7849121,-0.862854,-0.395813
1603558758874,978,0.48608398,-0.64971924,-0.43634033
1603558758875,979,0.8977051,-0.25445557,-0.7715454
1603558758875,980,0.9650879,-0.0056762695,-0.7180786
1603558758876,981,0.47558594,0.18939209,-0.9351196
1603558758876,982,0.5029297,0.30194092,-0.8970337
1603558758877,983,-0.035888672,0.2711792,-0.40826416
1603558758877,984,0.13061523,-0.004211426,-0.39093018
1603558758877,985,0.011230469,0.31732178,-0.47027588
1603558758878,986,0.6225586,0.40618896,-0.54766846
1603558758878,987,0.60009766,-0.027404785,-0.8772583
1603558758878,988,0.45629883,-0.26739502,-0.9092407
1603558758879,989,0.7915039,-0.038879395,-0.9644165
1603558758879,990,0.73217773,-0.20196533,-1.010315
1603558758880,991,0.8562012,-0.12261963,-1.0652466
1603558761491,992,0.6862793,-0.12188721,-0.97076416
1603558761493,993,0.8078613,-0.1104126,-0.98150635
1603558761493,994,0.73046875,-0.11480713,-0.9678345
1603558761493,995,0.9123535,0.01361084,-0.90826416
1603558761494,996,0.69921875,-0.041809082,-0.8257446
1603558761494,997,0.6855469,-0.051330566,-0.7781372
1603558761495,998,0.8486328,-0.15533447,-0.9302368
1603558761496,999,0.68774414,-0.33746338,-1.0366821
1603558761496,1000,0.6530762,0.40374756,-0.58477783
1603558761497,1001,-0.8112793,0.38031006,-0.30963135
1603558761498,1002,0.79467773,-0.10308838,-0.3303833
1603558761498,1003,0.3408203,-0.07208252,-0.6399536
1603558761498,1004,0.18359375,0.09466553,-0.5862427
1603558761499,1005,0.64453125,0.3151245,-1.0899048
1603558761500,1006,0.71484375,-0.07354736,-1.1079712
1603558761500,1007,0.8947754,-0.41583252,-1.0078735
1603558761500,1008,0.9333496,-0.6223755,-1.0227661
1603558761501,1009,0.67456055,-0.85528564,-0.7288208
1603558761501,1010,0.97509766,-1.0203247,-0.6338501
1603558761501,1011,0.57958984,-1.0679321,-0.5540161
1603558761501,1012,0.71191406,-1.1091919,-0.50177
1603558761502,1013,0.5637207,-1.3735962,-0.35406494
1603558761502,1014,0.6455078,-1.0913696,-0.27105713
1603558761503,1015,0.048095703,-0.0869751,-0.2119751
1603558761503,1016,-0.16894531,0.17474365,-0.20928955
1603558761504,1017,0.16113281,-0.19268799,-0.0725708
1603558761505,1018,-0.009033203,-0.10430908,0.019470215
1603558761505,1019,-0.02319336,0.039489746,-0.04840088
1603558761505,1020,0.6437988,-1.3804321,-0.25909424
1603558761506,1021,0.3762207,-1.9998169,0.0016479492
1603558761506,1022,1.2116699,-1.0864868,-0.1326294
1603558761506,1023,0.044677734,-1.1968384,-0.050354004
1603558764115,1024,0.3930664,-1.0549927,-0.050354004
1603558764115,1025,0.21606445,-0.7473755,-0.024719238
1603558764116,1026,0.10571289,-0.90753174,-0.34210205
1603558764116,1027,0.0690918,-1.0422974,-0.26593018
1603558764117,1028,-0.0087890625,-0.942688,-0.25689697
1603558764118,1029,-0.029785156,-1.039856,-0.19537354
1603558764118,1030,0.013671875,-1.0869751,-0.07305908
1603558764118,1031,-0.123046875,-0.9133911,-0.066223145
1603558764119,1032,-0.049072266,-0.973938,-0.21051025
1603558764119,1033,-0.040283203,-1.0650024,-0.035705566
1603558764120,1034,-0.103027344,-0.94317627,-0.05718994
1603558764121,1035,0.21557617,-1.1594849,-0.043029785
1603558764121,1036,0.44799805,-0.96221924,-0.08258057
1603558764122,1037,0.35864258,-1.0046997,-0.12823486
1603558764123,1038,0.43408203,-0.8916626,-0.053771973
1603558764123,1039,0.4013672,-0.9512329,-0.13238525
1603558764124,1040,0.44799805,-1.0022583,-0.16973877
1603558764124,1041,0.49853516,-0.7835083,-0.124816895
1603558764125,1042,0.38427734,-0.90411377,-0.09429932
1603558764125,1043,0.39379883,-0.97540283,-0.04425049
1603558764126,1044,0.27124023,-0.8411255,0.001159668
1603558764127,1045,0.13476562,-0.6843872,-0.05230713
1603558764128,1046,-0.11401367,-0.3045044,-0.42681885
1603558764128,1047,0.25927734,-1.3916626,-0.2185669
1603558764129,1048,0.4572754,-1.9998169,-0.3320923
1603558764129,1049,0.6833496,-1.9998169,-0.45489502
1603558764129,1050,0.2265625,-0.7666626,-0.12701416
1603558764130,1051,0.041503906,0.56414795,-0.2000122
1603558764130,1052,-0.099121094,-0.20587158,-0.053527832
1603558764130,1053,0.03125,-0.06427002,-0.012512207
1603558764131,1054,0.10546875,-0.24029541,-0.085510254
1603558764132,1055,0.48217773,-1.9998169,-0.042053223
1603558766721,1056,0.18457031,-1.8145142,-0.053527832
1603558766721,1057,0.11303711,-1.1218872,0.011657715
1603558766722,1058,0.10107422,-0.42999268,-0.0020141602
1603558766722,1059,0.16967773,-1.0964966,0.10369873
1603558766723,1060,0.078125,-1.0601196,0.014343262
1603558766723,1061,0.05493164,-1.0269165,0.038024902
1603558766724,1062,0.096191406,-0.96343994,-0.021057129
1603558766724,1063,0.05102539,-1.0320435,0.014831543
1603558766725,1064,-0.053222656,-0.9663696,0.042907715
1603558766726,1065,-0.0041503906,-1.048645,0.0099487305
1603558766726,1066,0.0048828125,-1.003479,0.028747559
1603558766726,1067,-0.025146484,-0.95758057,0.08319092
1603558766727,1068,0.028076172,-0.9541626,0.13641357
1603558766728,1069,0.08129883,-0.99591064,0.17059326
1603558766728,1070,0.25561523,-1.364563,0.058044434
1603558766730,1071,0.5905762,-1.1738892,-0.124572754
1603558766731,1072,0.31152344,-0.73101807,-0.12579346
1603558766731,1073,0.2685547,-1.0842896,0.18011475
1603558766731,1074,0.28198242,-0.6519165,0.121520996
1603558766731,1075,0.5708008,-0.8184204,0.21746826
1603558766731,1076,0.21484375,-0.7202759,0.32977295
1603558766732,1077,1.1879883,-0.49298096,0.15179443
1603558766732,1078,0.13232422,-0.67633057,0.18914795
1603558766733,1079,0.8503418,-0.9795532,0.26409912
1603558766734,1080,0.45092773,-0.6758423,0.2694702
1603558766734,1081,0.41577148,-0.8296509,0.13665771
1603558766735,1082,0.27319336,-1.0054321,-0.006164551
1603558766735,1083,0.17895508,-1.0408325,-0.050354004
1603558766735,1084,0.23095703,-0.97979736,-0.24957275
1603558766736,1085,0.4794922,-1.0852661,-0.45196533
1603558766736,1086,0.2133789,-0.9558716,-0.19000244
1603558766736,1087,-0.103027344,-1.1819458,-0.14239502
1603558769178,1088,0.26342773,-0.9907837,0.035583496
1603558769178,1089,-0.06591797,-0.90997314,-0.04888916
1603558769179,1090,0.17016602,-1.154602,0.07366943
1603558769180,1091,0.37646484,-0.972229,-0.035461426
1603558769180,1092,0.18017578,-0.93878174,-0.03741455
1603558769182,1093,0.28564453,-0.97076416,0.049987793
1603558769182,1094,0.2692871,-0.87872314,0.06829834
1603558769182,1095,0.2800293,-0.8562622,0.093444824
1603558769183,1096,0.20288086,-0.90997314,0.08343506
1603558769184,1097,0.037841797,-0.97125244,0.16204834
1603558769184,1098,-0.011474609,-1.5081177,0.27923584
1603558769186,1099,0.60375977,-0.7202759,-0.2822876
1603558769186,1100,-0.4140625,-1.492981,-0.06744385
1603558769186,1101,-0.16894531,-0.7444458,-0.18389893
1603558769187,1102,-0.3059082,-1.1055298,-0.026184082
1603558769187,1103,-0.25756836,-0.7905884,0.026306152
1603558769188,1104,-0.23779297,-0.80133057,-0.20367432
1603558769189,1105,-0.45239258,-1.1882935,-0.020812988
1603558769189,1106,-0.16381836,-0.975647,-0.0569458
1603558769190,1107,-0.23144531,-0.97125244,-0.09649658
1603558769190,1108,-0.39233398,-1.0933228,-0.1987915
1603558769190,1109,-0.079833984,-0.93634033,-0.15460205
1603558769190,1110,0.12133789,-0.86553955,-0.21905518
1603558769190,1111,-0.099853516,-1.1990356,0.0099487305
1603558769191,1112,0.17651367,-0.97320557,-0.00982666
1603558769191,1113,0.2512207,-1.1856079,0.17816162
1603558769192,1114,0.19213867,-0.6951294,0.04510498
1603558769193,1115,0.60791016,-0.78302,0.014587402
1603558769193,1116,0.93847656,-0.7761841,-0.074279785
1603558769193,1117,0.861084,-0.84454346,-0.18389893
1603558769194,1118,0.2998047,-0.87945557,-0.58966064
1603558769194,1119,-0.24072266,-0.91485596,-0.5159302
1603558771802,1120,-0.3166504,-1.2896118,-0.18267822
1603558771802,1121,-0.0793457,-1.0049438,-0.032287598
1603558771804,1122,0.05810547,-1.2459106,-0.04156494
1603558771804,1123,-0.26708984,-1.0278931,-0.105285645
1603558771804,1124,-0.26000977,-1.1101685,-0.1375122
1603558771805,1125,-0.15795898,-1.1057739,-0.13653564
1603558771806,1126,-0.15161133,-0.86065674,-0.06500244
1603558771806,1127,-0.19482422,-0.87750244,-0.16778564
1603558771807,1128,-0.032226562,-0.973938,-0.062805176
1603558771808,1129,0.49682617,-1.0523071,-0.29400635
1603558771808,1130,0.75146484,-0.96881104,-0.28741455
1603558771809,1131,0.7006836,-0.767395,-0.2715454
1603558771810,1132,0.5847168,-0.8994751,-0.09161377
1603558771810,1133,0.42749023,-0.9143677,-0.050354004
1603558771810,1134,0.5073242,-0.77471924,-0.04058838
1603558771810,1135,0.3244629,-0.8255005,0.014099121
1603558771811,1136,0.15527344,-0.92926025,0.14056396
1603558771811,1137,0.029052734,-1.052063,0.24725342
1603558771811,1138,0.14453125,-1.0010376,0.37493896
1603558771812,1139,0.21240234,-1.0183716,0.28338623
1603558771813,1140,0.07470703,-0.9859009,0.17425537
1603558771813,1141,-0.024902344,-0.8743286,0.029724121
1603558771814,1142,-0.010986328,-1.0977173,0.08514404
1603558771814,1143,0.0034179688,-1.0042114,0.17889404
1603558771814,1144,-0.010986328,-0.9553833,0.14593506
1603558771816,1145,-0.030029297,-1.017395,0.14691162
1603558771816,1146,0.017578125,-1.0256958,0.1161499
1603558771816,1147,-0.14892578,-1.0003052,0.097839355
1603558771817,1148,0.1628418,-1.1133423,0.19329834
1603558771817,1149,0.099121094,-0.86798096,0.051696777
1603558771818,1150,0.3215332,-1.0405884,0.19866943
1603558771818,1151,0.15795898,-0.9404907,0.2140503
1603558774429,1152,0.11791992,-0.9783325,0.24920654
1603558774429,1153,-0.05859375,-0.9561157,0.23577881
1603558774431,1154,0.107177734,-0.9776001,0.24017334
1603558774431,1155,0.16894531,-0.9368286,0.2086792
1603558774432,1156,0.22387695,-0.9651489,0.21868896
1603558774433,1157,0.17114258,-0.95806885,0.117614746
1603558774434,1158,0.04248047,-1.0962524,0.0836792
1603558774435,1159,-0.020263672,-0.89190674,0.09320068
1603558774435,1160,-0.026611328,-1.1790161,0.19354248
1603558774435,1161,-0.0126953125,-0.9470825,0.14178467
1603558774436,1162,-0.03881836,-0.9819946,0.13543701
1603558774436,1163,-0.015625,-1.0010376,0.15301514
1603558774437,1164,-0.017578125,-0.9937134,0.12762451
1603558774438,1165,-0.013671875,-0.96954346,0.17816162
1603558774439,1166,-0.10668945,-0.9920044,0.18426514
1603558774440,1167,-0.12060547,-1.0093384,0.168396
1603558774440,1168,-0.12817383,-1.0252075,0.18817139
1603558774441,1169,0.031982422,-1.3110962,0.13787842
1603558774441,1170,0.13183594,-0.91656494,-0.097717285
1603558774441,1171,0.25048828,-1.0701294,-0.006164551
1603558774442,1172,0.22021484,-0.85235596,-0.009338379
1603558774442,1173,0.14672852,-0.9614868,-0.065979004
1603558774443,1174,0.36914062,-1.0059204,0.00579834
1603558774443,1175,0.2421875,-0.9138794,-0.085510254
1603558774444,1176,0.3305664,-0.94488525,-0.12652588
1603558774444,1177,0.34228516,-0.9981079,-0.094055176
1603558774445,1178,0.29370117,-0.99102783,-0.057678223
1603558774445,1179,0.3305664,-0.97491455,-0.062805176
1603558774446,1180,0.34033203,-0.94415283,-0.082336426
1603558774446,1181,0.25854492,-0.97491455,-0.055725098
1603558774446,1182,0.15258789,-1.0491333,6.713867E-4
1603558774447,1183,-0.079589844,-1.0344849,0.06781006
1603558777052,1184,0.036376953,-1.0620728,0.13470459
1603558777052,1185,0.020996094,-1.0547485,0.13006592
1603558777052,1186,0.014404297,-0.9680786,0.13885498
1603558777053,1187,0.033447266,-1.0171509,0.1473999
1603558777053,1188,0.05102539,-0.9656372,0.090026855
1603558777054,1189,0.014160156,-0.9883423,0.16937256
1603558777055,1190,-0.015380859,-1.0457153,0.18890381
1603558777055,1191,0.056884766,-0.95513916,0.08392334
1603558777055,1192,-0.034423828,-0.9944458,0.13226318
1603558777056,1193,0.04663086,-1.0293579,0.059265137
1603558777056,1194,0.30151367,-1.0735474,0.18621826
1603558777057,1195,0.15893555,-0.8562622,0.057800293
1603558777057,1196,0.47070312,-1.1404419,0.13641357
1603558777058,1197,0.21020508,-0.8208618,0.15374756
1603558777058,1198,0.2446289,-0.956604,0.21160889
1603558777059,1199,0.16723633,-0.91412354,0.12835693
1603558777059,1200,0.22949219,-1.0269165,0.14642334
1603558777060,1201,0.22973633,-1.0132446,0.09857178
1603558777060,1202,0.24023438,-0.9973755,0.12860107
1603558777061,1203,0.22583008,-0.94000244,0.1395874
1603558777061,1204,0.2175293,-0.9729614,0.1762085
1603558777061,1205,0.18481445,-0.9573364,0.16473389
1603558777062,1206,0.2746582,-0.9163208,0.16888428
1603558777062,1207,0.27001953,-0.9307251,0.16815186
1603558777062,1208,0.23876953,-1.0601196,0.15740967
1603558777064,1209,0.028564453,-0.95880127,0.11834717
1603558777064,1210,0.048339844,-1.062561,0.06829834
1603558777064,1211,-0.072753906,-1.0056763,0.08343506
1603558777064,1212,-0.06323242,-0.9763794,0.09051514
1603558777064,1213,-0.07348633,-0.98028564,0.062438965
1603558777064,1214,-0.0546875,-1.015686,0.11883545
1603558777065,1215,-0.032958984,-0.99176025,0.057556152
1603558779677,1216,-0.02709961,-1.0359497,0.03753662
1603558779678,1217,0.08300781,-1.0515747,0.045837402
1603558779679,1218,0.20263672,-1.1636353,-0.014709473
1603558779680,1219,0.26538086,-1.000061,-0.117492676
1603558779680,1220,0.44091797,-0.8164673,-0.22491455
1603558779681,1221,0.42016602,-0.9578247,-0.18585205
1603558779682,1222,0.41308594,-0.90631104,-0.23297119
1603558779683,1223,0.3828125,-0.88482666,-0.20806885
1603558779683,1224,0.39868164,-0.9312134,-0.16436768
1603558779684,1225,0.4020996,-0.9517212,-0.16290283
1603558779685,1226,0.3684082,-0.91363525,-0.14874268
1603558779685,1227,0.33544922,-0.927063,-0.14727783
1603558779685,1228,0.2746582,-0.9175415,-0.16436768
1603558779685,1229,0.1821289,-0.9224243,-0.13946533
1603558779686,1230,0.13964844,-1.1367798,-0.042785645
1603558779686,1231,0.20336914,-0.9854126,0.09442139
1603558779687,1232,0.16015625,-1.085022,0.09881592
1603558779687,1233,0.19213867,-1.0459595,0.10662842
1603558779687,1234,0.09399414,-0.9512329,0.046569824
1603558779688,1235,0.053955078,-0.9517212,0.012390137
1603558779688,1236,0.030273438,-1.0166626,0.004333496
1603558779689,1237,0.013183594,-1.0547485,-0.0025024414
1603558779690,1238,-0.03173828,-1.0432739,-0.026672363
1603558779690,1239,-0.091796875,-0.98101807,-0.03741455
1603558779690,1240,-0.08276367,-1.010315,-0.05718994
1603558779690,1241,0.1315918,-1.0767212,0.003112793
1603558779690,1242,0.3623047,-1.1187134,0.12982178
1603558779691,1243,0.33081055,-0.90875244,0.046081543
1603558779691,1244,0.21240234,-0.9104614,0.105651855
1603558779692,1245,0.2241211,-0.9302368,0.15447998
1603558779692,1246,0.20678711,-0.92266846,0.17156982
1603558779692,1247,0.12158203,-1.0098267,0.21844482
1603558782114,1248,0.21899414,-1.1555786,0.20550537
1603558782115,1249,0.28686523,-1.1455688,0.036315918
1603558782117,1250,0.17333984,-0.6856079,-0.26763916
1603558782118,1251,0.22973633,-1.250061,0.028503418
1603558782119,1252,0.07397461,-0.87384033,-0.15582275
1603558782119,1253,0.12182617,-1.015686,-0.07672119
1603558782120,1254,0.18359375,-0.9800415,-0.15289307
1603558782121,1255,-0.001953125,-0.89801025,-0.19195557
1603558782121,1256,0.36547852,-1.2368774,0.21038818
1603558782122,1257,0.37548828,-0.8521118,-0.12213135
1603558782122,1258,0.36938477,-0.7932739,-0.002746582
1603558782123,1259,0.45288086,-0.9788208,-0.058654785
1603558782123,1260,0.45654297,-0.87213135,-0.023986816
1603558782123,1261,0.5449219,-0.8831177,-0.11920166
1603558782124,1262,0.5834961,-0.819397,-0.097961426
1603558782124,1263,0.5883789,-0.81915283,-0.18511963
1603558782124,1264,0.50756836,-0.8233032,-0.23565674
1603558782125,1265,0.4489746,-0.7776489,-0.46588135
1603558782125,1266,0.6816406,-0.8599243,-0.23443604
1603558782125,1267,0.31982422,-0.9402466,-0.17852783
1603558782126,1268,0.6809082,-0.75787354,-0.18829346
1603558782126,1269,0.48901367,-0.89312744,-0.16534424
1603558782127,1270,0.5686035,-0.73883057,-0.14434814
1603558782128,1271,0.6386719,-0.74346924,-0.14337158
1603558782128,1272,0.69189453,-0.72003174,-0.11407471
1603558782128,1273,0.6123047,-0.71221924,-0.034729004
1603558782129,1274,0.5695801,-0.67193604,0.016540527
1603558782129,1275,0.48217773,-0.61724854,-0.09869385
1603558782129,1276,0.48876953,-0.7373657,-0.17852783
1603558782130,1277,0.39990234,-0.7185669,-0.16607666
1603558782131,1278,0.48339844,-0.80133057,-0.315979
1603558782131,1279,0.59350586,-0.87335205,-0.27960205
1603558784928,1280,0.56689453,-0.7810669,-0.29986572
1603558784929,1281,0.5324707,-0.8596802,-0.286438
1603558784929,1282,0.55444336,-0.83258057,-0.23834229
1603558784930,1283,0.45922852,-0.8735962,-0.19805908
1603558784930,1284,0.3713379,-1.0281372,-0.109191895
1603558784931,1285,0.2956543,-1.1660767,-0.06402588
1603558784931,1286,0.18457031,-1.3513794,0.10882568
1603558784932,1287,-0.014892578,-0.81085205,0.10662842
1603558784932,1288,0.041748047,-0.95635986,0.24310303
1603558784933,1289,-0.08618164,-1.0535278,0.29193115
1603558784933,1290,-0.22875977,-0.850647,0.33636475
1603558784934,1291,-0.056396484,-0.78863525,0.38641357
1603558784934,1292,-0.28295898,-1.0300903,0.66815186
1603558784935,1293,-0.107666016,-0.642395,0.5441284
1603558784935,1294,-0.16210938,-0.8076782,0.60150146
1603558784936,1295,-0.22802734,-0.8435669,0.57562256
1603558784937,1296,-0.23632812,-0.81207275,0.48773193
1603558784938,1297,-0.15185547,-0.8779907,0.447937
1603558784938,1298,-0.22363281,-0.8753052,0.45941162
1603558784938,1299,-0.14868164,-0.87286377,0.4533081
1603558784939,1300,-0.22094727,-0.8609009,0.4940796
1603558784939,1301,-0.18774414,-0.7979126,0.46258545
1603558784939,1302,-0.2097168,-0.8147583,0.50335693
1603558784940,1303,-0.21313477,-0.82403564,0.5055542
1603558784940,1304,-0.21386719,-0.9348755,0.4677124
1603558784941,1305,-0.08618164,-0.9758911,0.34588623
1603558784941,1306,-0.10449219,-0.9553833,0.23382568
1603558784941,1307,0.0625,-0.9221802,0.13665771
1603558784942,1308,0.28564453,-0.99591064,0.062194824
1603558784942,1309,0.2548828,-1.0410767,-0.022033691
1603558784942,1310,0.513916,-1.197815,-0.21759033
1603558784943,1311,0.45825195,-1.3306274,-0.33184814
1603558787363,1312,0.41748047,-1.2127075,-0.34552002
1603558787364,1313,0.34277344,-0.92633057,-0.22686768
1603558787364,1314,0.36694336,-1.0701294,-0.23321533
1603558787364,1315,0.30273438,-0.71417236,-0.26104736
1603558787365,1316,0.19311523,-0.5581665,-0.15826416
1603558787366,1317,0.31982422,-0.553772,-0.04815674
1603558787367,1318,0.20654297,-0.71881104,0.030944824
1603558787367,1319,0.16308594,-0.8296509,0.15618896
1603558787367,1320,0.1003418,-1.0474243,0.262146
1603558787368,1321,0.10205078,-1.263977,0.30950928
1603558787368,1322,0.41870117,-1.2942505,-0.013244629
1603558787369,1323,0.35546875,-0.81134033,-0.22833252
1603558787370,1324,0.3359375,-0.95025635,-0.09063721
1603558787370,1325,0.19384766,-0.9656372,-0.18682861
1603558787370,1326,0.05102539,-1.0115356,-0.1795044
1603558787371,1327,-0.01586914,-1.0413208,-0.15826416
1603558787371,1328,-0.09399414,-1.0154419,-0.16656494
1603558787372,1329,0.11743164,-1.217102,-0.008117676
1603558787372,1330,0.17529297,-0.92803955,0.01361084
1603558787372,1331,0.19750977,-0.8870239,0.0836792
1603558787373,1332,0.2121582,-1.0071411,0.082458496
1603558787373,1333,0.087646484,-0.97662354,0.11932373
1603558787374,1334,0.20727539,-0.9639282,0.15325928
1603558787374,1335,0.18652344,-0.9751587,0.1630249
1603558787375,1336,0.14160156,-0.96343994,0.21160889
1603558787375,1337,0.14624023,-0.96832275,0.23919678
1603558787375,1338,0.095214844,-1.1057739,0.2321167
1603558787376,1339,-0.10668945,-0.9636841,0.07171631
1603558787377,1340,-0.04321289,-0.99298096,0.03387451
1603558787377,1341,-0.044677734,-1.0337524,0.17181396
1603558787378,1342,-0.060791016,-0.8870239,0.12176514
1603558787378,1343,-0.07080078,-0.9990845,0.15692139
