# Sensor position: Chest
# Sensor side: Left
# Activity type: Movement
# Activity code: 9
# Subject id: s1711507
timestamp,seq,accel_x,accel_y,accel_z
1601410518495,0,-0.107910156,-1.0408325,-0.035949707000000004
1601410518496,1,-0.10888672,-1.0359497,-0.032043457000000004
1601410518497,2,-0.10180664,-1.0403441999999998,-0.027648926
1601410518497,3,-0.114746094,-1.0376587,-0.023254395
1601410518498,4,-0.11889648400000001,-1.0359497,-0.010070800999999999
1601410518500,5,-0.11621094,-1.0361938,-0.015686035
1601410518500,6,-0.11669922,-1.0342407,-0.008117675999999999
1601410518501,7,-0.12207031,-1.0374146,0.00042724610000000003
1601410518502,8,-0.12109375,-1.0369263000000002,-0.010314941
1601410518504,9,-0.11303711,-1.0379028000000001,-0.034729004
1601410518506,10,-0.10961914,-1.0369263000000002,-0.042785645
1601410518508,11,-0.10839844,-1.0391235,-0.058898926
1601410518509,12,-0.11206055,-1.0349731,-0.054260254
1601410518509,13,-0.107421875,-1.038147,-0.06402588
1601410518511,14,-0.10253906,-1.0371704,-0.062316895
1601410518511,15,-0.10327148400000001,-1.052063,-0.07989502
1601410518512,16,-0.07836914,-1.0335083,-0.09307861
1601410518513,17,-0.08666992,-1.0498657,-0.11627197
1601410518514,18,-0.08984375,-1.0559691999999998,-0.16339111
1601410518515,19,-0.055419922,-1.0374146,-0.09796142599999999
1601410518515,20,-0.09863281,-1.0405884,-0.07232666
1601410518516,21,-0.07788086,-1.0344849,-0.042785645
1601410518517,22,-0.099609375,-1.0029907,-0.041320800000000005
1601410518518,23,-0.08911133,-1.0203247,-0.02520752
1601410518520,24,-0.1303711,-1.0361938,0.007019043000000001
1601410518524,25,-0.13745117,-1.0613403000000001,0.042175292999999996
1601410518524,26,-0.17480469,-1.0383911,0.07098389
1601410518524,27,-0.18603516,-1.0012816999999998,0.034118652
1601410518525,28,-0.22265625,-1.0271606,0.02532959
1601410518527,29,-0.27026367,-0.96588135,-0.005676269499999999
1601410518527,30,-0.22949219,-1.0342407,0.011657715
1601410518528,31,-0.1821289,-1.0100708,0.015808105
1601410521031,32,-0.14160156,-0.98565674,-0.024475097999999997
1601410521032,33,0.044677734000000004,-0.96881104,-0.12554932
1601410521034,34,0.09887695,-1.0159302,-0.25445557
1601410521037,35,0.13964844,-1.006897,-0.3965454
1601410521040,36,0.41479492,-0.9483031999999999,-0.68951416
1601410521041,37,0.6477050999999999,-0.880188,-0.98760986
1601410521041,38,0.5324707,-0.8921509,-0.87335205
1601410521042,39,0.36621094,-1.0274048,-0.59698486
1601410521044,40,0.24389648,-1.1279907,-0.44122314
1601410521045,41,0.3330078,-0.82037354,-0.2835083
1601410521046,42,0.3466797,-0.8147583,-0.24493408
1601410521047,43,0.0043945312,-0.62457275,-0.3567505
1601410521048,44,-0.0014648438,-0.6868286,-0.26617432
1601410521049,45,0.041503906,-0.6814574999999999,-0.22125244
1601410521053,46,-0.21411133,-0.9295044,-0.28179932
1601410521054,47,-0.07543945,-1.1223755,-0.253479
1601410521054,48,0.15405273,-1.0120239,-0.20440674
1601410521055,49,0.32495117,-1.0161743,-0.04107666
1601410521055,50,-0.10522461,-0.9546509,-0.30963135
1601410521056,51,0.26489258,-1.0671997,-0.038635254
1601410521057,52,-0.16381836,-0.8609009,-0.07940674
1601410521057,53,0.13476562,-1.0667114,-0.05230713
1601410521058,54,0.024902344,-0.9443969999999999,-0.054260254
1601410521058,55,0.08569336,-1.1074829,-0.03692627
1601410521059,56,-0.024658202999999997,-1.0261841,0.02166748
1601410521060,57,0.080078125,-1.1572876,-0.11505127
1601410521060,58,-0.025878906,-1.2669066999999998,-0.29571533
1601410521061,59,-0.071777344,-1.083313,-0.51153564
1601410521061,60,-0.17944336,-0.8272094999999999,-0.38360596
1601410521062,61,-0.26123047,-0.6487427,-0.23663330000000002
1601410521063,62,-0.17797852,-0.99420166,-0.29449463
1601410521063,63,-0.18554688,-1.0823364,-0.22515869
1601410523568,64,-0.2626953,-1.0181274,-0.23809814
1601410523571,65,-0.4375,-0.9788208,-0.18389893
1601410523573,66,-0.3815918,-1.0093384,-0.109436035
1601410523574,67,-0.26904297,-1.1848755,-0.28936768
1601410523575,68,0.24731445,-1.0940552,-0.33087158
1601410523576,69,-0.06201172,-1.0462036,-0.33551025
1601410523577,70,-0.3034668,-0.83477783,-0.16973877
1601410523578,71,-0.100097656,-0.7608031999999999,-0.16900635
1601410523579,72,-0.15893555,-1.2341919,-0.21978760000000003
1601410523581,73,-0.50756836,-0.8545531999999999,-0.13970947
1601410523582,74,-0.07983398400000001,-1.0857544,-0.14703369
1601410523583,75,0.14331055,-1.6463013,-0.7168579
1601410523584,76,-0.4885254,-0.43560790000000005,-0.38995359999999996
1601410523585,77,0.0048828125,-1.0332642,-0.61383057
1601410523586,78,-0.27709959999999995,-0.99957275,-0.31817627
1601410523587,79,-0.41479492,-0.7078247,-0.22589111
1601410523588,80,-0.20263672,-1.0610962,-0.15289307
1601410523589,81,-0.29321290000000005,-1.0266724,-0.13653564
1601410523589,82,-0.5031738,-0.8833618000000001,-0.12310791
1601410523591,83,-0.0009765625,-1.3274536,-0.37701416
1601410523592,84,0.07128906,-1.0303345,-0.21832275
1601410523593,85,-0.27612305,-1.0300903000000001,-0.15631104
1601410523594,86,-0.036621094,-0.861145,-0.14654541
1601410523594,87,-0.06860351599999999,-1.0064087,-0.14508057
1601410523595,88,-0.1772461,-1.0308228000000002,-0.16705322
1601410523596,89,-0.17749023,-0.9768677,-0.23321533
1601410523599,90,0.013916016000000002,-1.0073853000000002,-0.5003052
1601410523601,91,-0.09985351599999999,-0.93463135,-0.6265259
1601410523602,92,-0.18164062,-0.89678955,-0.5108032
1601410523604,93,-0.19262695,-1.055481,-0.59039307
1601410523605,94,-0.1538086,-0.8743286,-0.394104
1601410523605,95,-0.16625977,-0.9734497,-0.40997314
1601410526297,96,-0.1977539,-1.0083618,-0.36724854
1601410526299,97,-0.26342773,-1.0125122,-0.3460083
1601410526301,98,-0.36914062,-0.90826416,-0.27838135
1601410526303,99,-0.37060547,-0.9282836999999999,-0.2925415
1601410526305,100,-0.43652344,-0.9077759,-0.28399658
1601410526308,101,-0.110839844,-1.1594848999999998,-0.14605713
1601410526309,102,-0.068359375,-1.1109008999999999,-0.33233643
1601410526312,103,0.071777344,-1.0142212,-0.13531494
1601410526314,104,-0.013916016000000002,-1.0183716,-0.1260376
1601410526315,105,-0.010009766,-0.9627075,-0.054016113
1601410526316,106,-0.14746094,-1.0020142,-0.11920166
1601410526317,107,-0.040771484,-1.0396118,-0.07720947
1601410526318,108,-0.19580078,-1.0603638000000002,-0.04425049
1601410526319,109,-0.19409179999999998,-1.0310669,-0.051330565999999994
1601410526320,110,-0.06665039,-1.1209106000000002,0.04510498
1601410526320,111,-0.12817383,-1.1775513000000002,-0.07891846
1601410526321,112,-0.14160156,-1.1201782,-0.24737549
1601410526323,113,-0.28710938,-0.86602783,-0.36822509999999997
1601410526324,114,-0.14257812,-0.94317627,-0.33795166
1601410526324,115,-0.012207031,-0.95025635,-0.16119385
1601410526327,116,-0.24414062,-0.9443969999999999,-0.29644775
1601410526327,117,-0.2685547,-1.0723267,-0.190979
1601410526329,118,-0.07543945,-1.0025024,-0.19805908
1601410526330,119,-0.20971679999999995,-0.8875122,-0.3123169
1601410526331,120,0.15161133,-1.2617798,-0.5737915
1601410526332,121,0.13745117,-1.1067505,-0.33355713
1601410526333,122,0.036132812,-0.8941040000000001,-0.34625244
1601410526334,123,0.16992188,-1.0425415,-0.28619385
1601410526335,124,0.047607422,-0.91192627,-0.24713135
1601410526336,125,0.064941406,-1.0064087,-0.19049072
1601410526337,126,0.05102539,-0.9758911,-0.16046143
1601410526337,127,0.044677734000000004,-1.0215454,-0.11651611
1601410529029,128,0.057861328,-1.034729,-0.08746338
1601410529031,129,0.03100586,-1.0335083,-0.05303955
1601410529032,130,0.09594726599999999,-1.0361938,-0.005676269499999999
1601410529034,131,-0.015136719,-1.1716919,-0.14483643
1601410529035,132,-0.22290039,-0.9578247,-0.15948486
1601410529036,133,-0.19409179999999998,-0.98760986,-0.22100830000000002
1601410529037,134,-0.30517578,-0.9368286,-0.2637329
1601410529039,135,-0.18652344,-1.0100708,-0.24835205
1601410529041,136,-0.22631836,-0.9299927,-0.21929932
1601410529044,137,-0.17065429999999998,-1.0674438,-0.15118408
1601410529046,138,-0.14038086,-1.0383911,-0.12384033
1601410529046,139,-0.21997070000000005,-0.98516846,-0.14898682
1601410529047,140,-0.14990234,-1.0078735,-0.20367432
1601410529048,141,0.24023438,-1.1777954,-0.54229736
1601410529049,142,0.1796875,-0.89678955,-0.35577393
1601410529049,143,0.27197266,-0.9819945999999999,-0.42437744
1601410529050,144,0.12768555,-0.7632445999999999,-0.18731689999999998
1601410529051,145,0.19189453,-0.8010864000000001,-0.23101807
1601410529051,146,0.24414062,-0.81451416,-0.425354
1601410529052,147,0.31811523,-0.8296509,-0.55963135
1601410529053,148,0.71118164,-0.8255005,-0.7649536
1601410529054,149,0.11645508,-1.0342407,-0.77423096
1601410529054,150,0.39794922,-0.6592406999999999,-0.8521118000000001
1601410529058,151,0.18139648,-0.8760376,-0.8296509
1601410529059,152,0.14575195,-0.8335570999999999,-0.70635986
1601410529060,153,0.024414062,-0.73809814,-0.62823486
1601410529061,154,0.060546875,-0.75372314,-0.5237427
1601410529061,155,0.07397461,-0.7803345,-0.5322876
1601410529061,156,0.14526367,-0.9529419,-0.5498656999999999
1601410529061,157,-0.03540039,-0.8201294,-0.5733031999999999
1601410529062,158,0.16088867,-1.142395,-0.32476807
1601410529062,159,0.14697266,-0.8726195999999999,-0.21124268
1601410531170,160,0.23657227,-1.1914673,-0.35186768
1601410531171,161,0.10864258,-0.77423096,0.24041748
1601410531172,162,-0.11596680000000001,-1.0064087,-0.089660645
1601410531173,163,-0.03173828,-1.0830688,0.16107178
1601410531174,164,0.055664062,-0.9741820999999999,0.23919678
1601410531175,165,0.08154297,-1.1445923,-0.0068969727
1601410531177,166,-0.06469726599999999,-0.93634033,0.028747559
1601410531178,167,-0.041259766,-1.2090454,-0.17926025
1601410531179,168,-0.35107422,-1.017395,-0.24029541
1601410531180,169,-0.39208984,-0.9678344999999999,-0.20684814
1601410531181,170,-0.36914062,-0.8701781999999999,-0.19122314
1601410531183,171,-0.30908203,-0.9451294,-0.17315674
1601410531183,172,-0.27905273,-1.0249634,-0.14434814
1601410531184,173,-0.21630860000000002,-0.99053955,-0.17510986
1601410531186,174,-0.19140625,-1.0386353000000002,-0.1897583
1601410531188,175,-0.23193360000000002,-0.9512328999999999,-0.24298096
1601410531189,176,-0.14697266,-1.1702270000000001,-0.47076416
1601410531190,177,0.36962890000000004,-1.1729126,-0.24078369
1601410531191,178,-0.017822266,-0.9131469999999999,-0.3513794
1601410531192,179,0.17211914,-1.0899048,-0.14752197
1601410531193,180,0.07641601599999999,-0.8423461999999999,-0.1428833
1601410531194,181,0.0048828125,-0.9807739,-0.08428955
1601410531195,182,-0.09545898400000001,-0.9898070999999999,-0.07769775400000001
1601410531196,183,-0.091796875,-1.041565,-0.0032348633000000003
1601410531198,184,-0.08032226599999999,-1.1174927,0.05316162
1601410531198,185,-0.04272461,-1.1340941999999998,0.007751465
1601410531199,186,-0.12915039,-1.2490845,-0.11602783
1601410531201,187,-0.08227539,-1.0066528000000001,-0.29620359999999996
1601410531204,188,-0.125,-0.88726807,-0.32769775
1601410531204,189,-0.33984375,-0.9014281999999999,-0.29205322
1601410531205,190,-0.17651367,-0.9307251,-0.1963501
1601410531207,191,-0.28149414,-1.0454712,-0.20391846
1601410533709,192,-0.24877929999999995,-1.0027466,-0.15655518
1601410533710,193,-0.27734375,-1.0513306,-0.13043213
1601410533712,194,-0.4572754,-0.98687744,-0.13360596
1601410533717,195,-0.38208008,-1.1077270000000001,-0.30963135
1601410533718,196,-0.0043945312,-1.3030396,-0.30255127
1601410533718,197,0.16284179999999998,-0.7312622,-0.18609619
1601410533723,198,-0.29711914,-1.1282348999999998,-0.17242432
1601410533724,199,-0.03125,-0.8845825,-0.159729
1601410533727,200,-0.021972656,-1.0686646,-0.09967041
1601410533729,201,-0.31030273,-0.92437744,-0.12652588
1601410533731,202,-0.15307617,-1.0022583,-0.17120361
1601410533733,203,-0.048583984000000004,-1.0681763000000002,-0.12384033
1601410533735,204,-0.19970703,-0.97491455,-0.18096924
1601410533736,205,0.03515625,-1.2307739,-0.50006104
1601410533737,206,-0.39599609999999996,-0.8274536,-0.38287354
1601410533738,207,-0.031982422,-0.95098877,-0.5906372
1601410533739,208,-0.2421875,-0.94854736,-0.46539307
1601410533740,209,-0.24682617,-0.93585205,-0.41583252
1601410533741,210,-0.21752929999999995,-1.0198364,-0.39605713
1601410533741,211,-0.33422852,-0.9480591,-0.34429932
1601410533742,212,-0.3017578,-0.92681885,-0.30084229999999995
1601410533743,213,-0.42211914,-0.95562744,-0.29327393
1601410533744,214,-0.42871094,-0.9512328999999999,-0.26837158
1601410533745,215,-0.4963379,-0.9258423000000001,-0.22003174
1601410533746,216,-0.47509766,-0.91241455,-0.19049072
1601410533747,217,-0.14526367,-1.0855103000000002,-0.1182251
1601410533749,218,0.052978515999999996,-1.0518188,-0.09674072
1601410533750,219,-0.25097656,-1.1377563,-0.07696533
1601410533750,220,-0.10229492,-0.7962036,-0.0647583
1601410533753,221,-0.16210938,-1.1362915,-0.12164307
1601410533753,222,-0.34912109999999996,-0.9529419,-0.14093018
1601410533754,223,-0.18041992,-1.0261841,-0.09698486
1601410536241,224,-0.2685547,-1.097229,-0.10406494
1601410536242,225,0.22167969,-1.6123657,-0.36090088
1601410536243,226,-0.19238281,-0.81207275,-0.39068604
1601410536245,227,0.12524414,-0.7102661,-0.27252197
1601410536246,228,-0.12207031,-0.986145,-0.26348877
1601410536249,229,-0.11279297,-0.84088135,-0.25543213
1601410536251,230,-0.16601562,-1.1152954,-0.14776611
1601410536252,231,-0.15209961,-0.9475708,-0.15484619
1601410536253,232,-0.27783203,-1.0293579,-0.19464111
1601410536254,233,0.07055664,-1.3359985,-0.33892822
1601410536255,234,0.22143555,-0.8609009,-0.33795166
1601410536255,235,-0.039794922,-1.1807251,-0.30523682
1601410536256,236,-0.06518555,-0.9356078999999999,-0.20220947
1601410536257,237,-0.020507812,-0.94976807,-0.11676025400000001
1601410536258,238,-0.20410156,-0.9492798000000001,-0.10699463
1601410536259,239,-0.19750977,-1.0249634,0.014587402
1601410536259,240,-0.23242188,-1.3352661,-0.14459229
1601410536261,241,0.11035156,-1.2376098999999998,-0.26959229999999995
1601410536264,242,0.0715332,-0.708313,-0.37945557
1601410536270,243,-0.020507812,-1.1865845,-0.2041626
1601410536271,244,-0.31640625,-0.6423949999999999,-0.21148682
1601410536272,245,-0.26171875,-1.0635376,-0.1506958
1601410536273,246,-0.21972656,-1.0767212,-0.06500244
1601410536274,247,-0.2529297,-0.8882445999999999,-0.1519165
1601410536275,248,-0.50756836,-1.1653441999999998,-0.17510986
1601410536275,249,0.14819336,-1.3809204,-0.34307859999999996
1601410536277,250,0.07910156,-0.81207275,-0.17828369
1601410536279,251,-0.08911133,-1.1394653000000001,-0.16314697
1601410536281,252,-0.11840819999999999,-0.75372314,-0.13067627
1601410536282,253,-0.001953125,-1.1296997,-0.08551025400000001
1601410536283,254,-0.17846679999999998,-0.989563,-0.11236572
1601410536284,255,-0.32128906,-1.274231,-0.3887329
1601410538982,256,0.19848633,-0.9024048000000001,-0.21881104
1601410538983,257,0.08642578,-1.0335083,-0.34649658
1601410538986,258,-0.19848633,-0.9187622,-0.30352783
1601410538987,259,-0.10424805,-0.9116820999999999,-0.28009033
1601410538990,260,-0.16845703,-1.1248169,-0.27349854
1601410538991,261,-0.23852539,-0.9011841,-0.29571533
1601410538995,262,0.2541504,-1.2324829,-0.24908447
1601410538996,263,0.11791992,-0.8887328999999999,-0.28277588
1601410538997,264,-0.045166015999999996,-0.90411377,-0.08282471
1601410538998,265,-0.0847168,-1.2014770000000001,-0.21563720000000003
1601410538998,266,-0.080566406,-0.9104614,-0.14605713
1601410539000,267,0.010009766,-1.1333618,-0.1494751
1601410539001,268,-0.13964844,-0.9507445999999999,-0.1494751
1601410539004,269,-0.12670898,-1.0547485,-0.10015869
1601410539005,270,-0.1821289,-1.0862427,-0.055480957000000004
1601410539006,271,-0.19335938,-1.1438598999999998,-0.018127441
1601410539007,272,-0.041503906,-1.196106,-0.16046143
1601410539009,273,-0.19384766,-0.97784424,-0.29205322
1601410539011,274,-0.14477539,-0.91070557,-0.29620359999999996
1601410539012,275,-0.19433594,-0.96881104,-0.22686768
1601410539013,276,-0.37280273,-0.79351807,-0.19976807
1601410539014,277,-0.33959959999999995,-1.0386353000000002,-0.17242432
1601410539015,278,-0.23168945,-1.0222778000000001,-0.16827393
1601410539016,279,-0.32202148,-1.0274048,-0.15924072
1601410539017,280,-0.35302734,-1.0603638000000002,-0.20172119
1601410539018,281,-0.1381836,-1.3694458,-0.37530518
1601410539019,282,0.20532227,-0.8352661,-0.25665283
1601410539019,283,-0.04638672,-1.1140747,-0.22833252
1601410539020,284,-0.26220703,-0.7595824999999999,-0.13336182
1601410539021,285,0.0024414061999999998,-1.0308228000000002,-0.09259033
1601410539023,286,-0.20654297,-1.0420532,-0.10845947
1601410539024,287,-0.3269043,-1.0027466,-0.054504395
1601410541510,288,-0.27441406,-1.1375122,-0.034729004
1601410541512,289,-0.119140625,-1.3982544,-0.14727783
1601410541514,290,-0.21533203,-0.7659302,-0.27520752
1601410541515,291,-0.0053710938,-0.92437744,-0.32159424
1601410541516,292,-0.18945312,-0.9578247,-0.14312744
1601410541516,293,-0.26660156,-0.83306885,-0.20269775
1601410541517,294,-0.31396484,-1.0916138000000002,-0.09063721
1601410541518,295,-0.3347168,-1.0413208,-0.16241455
1601410541519,296,-0.25683594,-1.2857056,-0.31939697
1601410541521,297,0.22534179999999995,-1.0894165,-0.2654419
1601410541524,298,0.05810547,-0.9644165000000001,-0.1963501
1601410541525,299,-0.21191406,-1.0322876,-0.22027588
1601410541526,300,-0.107421875,-0.7647095,-0.085998535
1601410541527,301,-0.19702148,-1.0818481000000002,-0.10772705
1601410541527,302,-0.34814453,-0.99591064,-0.055480957000000004
1601410541528,303,-0.19555664,-1.1987915,-0.11431885
1601410541529,304,0.06103515599999999,-1.3440552,-0.32818604
1601410541530,305,-0.18310547,-0.72735596,-0.38775635
1601410541531,306,0.13354492,-1.2285767,-0.27105713
1601410541532,307,-0.21313477,-0.69781494,-0.21685791
1601410541533,308,-0.22021484,-0.86383057,-0.27423096
1601410541534,309,-0.375,-1.1948853000000002,-0.15777588
1601410541535,310,-0.30126953,-0.94903564,-0.14312744
1601410541535,311,-0.31713867,-1.0540161,-0.14996338
1601410541537,312,0.16992188,-1.3743286,-0.37652588
1601410541538,313,0.13085938,-0.8130493000000001,-0.25299072
1601410541539,314,-0.26879883,-1.3103638000000002,-0.18096924
1601410541540,315,-0.11206055,-0.57598877,-0.07525635
1601410541541,316,-0.09936523400000001,-1.1104126,-0.06451416
1601410541541,317,-0.32470703,-0.88897705,-0.012756348
1601410541543,318,-0.18627929999999998,-1.3010864,-0.20635986
1601410541543,319,0.14331055,-1.2317505,-0.28790283
1601410544047,320,0.08862305,-0.94195557,-0.5178832999999999
1601410544048,321,-0.13476562,-0.9722290000000001,-0.26812744
1601410544050,322,-0.14208984,-0.6170044,-0.37091064
1601410544054,323,-0.29833984,-1.2581177,-0.37701416
1601410544056,324,-0.22778320000000005,-0.79937744,-0.331604
1601410544057,325,-0.0043945312,-0.85821533,-0.37701416
1601410544058,326,0.07006836,-1.3091431,-0.37506104
1601410544059,327,0.06323242,-1.1052856000000002,-0.42633057
1601410544060,328,-0.04931640599999999,-0.8350219999999999,-0.21759033
1601410544061,329,-0.0029296875,-1.0188599,-0.17706299
1601410544062,330,-0.010498047,-1.0066528000000001,-0.29571533
1601410544063,331,-0.10888672,-1.0435181,-0.22613525
1601410544064,332,-0.02709961,-0.9475708,-0.15411377
1601410544065,333,-0.006591797,-1.0459595,-0.159729
1601410544068,334,0.048583984000000004,-1.0286255,-0.14483643
1601410544069,335,0.013427733999999998,-1.1714478000000002,-0.22857666
1601410544071,336,-0.4519043,-1.1106566999999998,-0.3513794
1601410544071,337,0.0007324219,-0.9458618000000001,-0.38360596
1601410544072,338,-0.3203125,-0.9776001,-0.29449463
1601410544073,339,-0.32543945,-0.737854,-0.22979736
1601410544074,340,-0.22314453,-1.0447388000000002,-0.26934814
1601410544075,341,-0.30517578,-1.069397,-0.24273682
1601410544076,342,-0.26293945,-1.0498657,-0.17559814
1601410544077,343,-0.36181640000000004,-0.97906494,-0.14215088
1601410544078,344,-0.3642578,-0.9656372,-0.109436035
1601410544079,345,-0.06469726599999999,-1.3215941999999998,-0.40167236
1601410544080,346,0.16430664,-0.7180786,-0.23297119
1601410544081,347,-0.37060547,-1.1838989,-0.27349854
1601410544082,348,-0.1508789,-0.7756958,-0.1416626
1601410544087,349,-0.087890625,-1.111145,-0.17681885
1601410544087,350,-0.31665040000000005,-0.85601807,-0.18170166
1601410544090,351,-0.3449707,-1.1672973999999998,-0.16021729
1601410546579,352,-0.33251953,-1.2263794,-0.27349854
1601410546579,353,-0.12719727,-1.1253052,-0.2720337
1601410546581,354,-0.12329101599999999,-0.78985596,-0.37457275
1601410546581,355,-0.12670898,-0.9053344999999999,-0.44000244
1601410546582,356,-0.15917969,-0.9951781999999999,-0.19952393
1601410546583,357,-0.24731445,-0.8518677,-0.23712158
1601410546584,358,-0.28662109999999996,-1.0584106000000002,-0.18585205
1601410546584,359,-0.3059082,-0.98394775,-0.16778564
1601410546585,360,-0.40014648,-1.0427856,-0.16485596
1601410546586,361,-0.41430664,-1.1135864,-0.29058838
1601410546586,362,0.14916992,-1.1021118,-0.37432859999999996
1601410546587,363,0.04541015599999999,-0.9097290000000001,-0.21343994
1601410546588,364,-0.36914062,-1.0720825,-0.22296143
1601410546588,365,-0.1484375,-0.7901001,-0.11407471
1601410546589,366,-0.25073242,-1.1035767,-0.14727783
1601410546590,367,-0.32202148,-0.9326781999999999,-0.09820557
1601410546590,368,-0.15405273,-1.1934204,-0.16290283
1601410546591,369,-0.0126953125,-1.427063,-0.41705322
1601410546592,370,-0.20605469,-0.64263916,-0.3045044
1601410546593,371,-0.03173828,-1.0300903000000001,-0.3574829
1601410546594,372,-0.37255859999999996,-0.86676025,-0.24298096
1601410546594,373,-0.28295898,-0.91192627,-0.27008057
1601410546594,374,-0.26049805,-1.0584106000000002,-0.22979736
1601410546595,375,-0.31005859999999996,-0.93585205,-0.20635986
1601410546596,376,-0.42333984,-1.0886841,-0.17755127
1601410546596,377,-0.3112793,-1.156311,-0.29864502
1601410546597,378,0.11352539,-1.0215454,-0.3357544
1601410546598,379,0.17138672,-1.0149536,-0.22564697
1601410546598,380,-0.2553711,-0.94366455,-0.22882080000000002
1601410546598,381,0.0061035156000000005,-0.86798096,-0.13604736
1601410546599,382,-0.15722656,-1.0650024,-0.18170166
1601410546599,383,-0.27148438,-0.96881104,-0.17315674
