# Sensor position: Wrist
# Sensor side: Left
# Activity type: Movement
# Activity code: 9
# Subject id: s1710228
timestamp,seq,accel_x,accel_y,accel_z
1603557790054,0,-0.9367676,-0.14703369,0.23529053
1603557790054,1,-0.9746094,-0.15289307,0.25775146
1603557790055,2,-0.90893555,-0.16412354,0.24310303
1603557790055,3,-0.99316406,-0.12872314,0.21356201
1603557790056,4,-1.0532227,-0.108947754,0.19110107
1603557790057,5,-1.0400391,-0.15264893,0.16009521
1603557790058,6,-1.0107422,-0.16900635,0.13885498
1603557790058,7,-0.9885254,-0.16607666,0.16082764
1603557790059,8,-0.9116211,-0.15460205,0.18011475
1603557790059,9,-0.7739258,-0.15533447,0.15545654
1603557790059,10,-0.9243164,-0.11431885,0.13665771
1603557790060,11,-1.107666,-0.070373535,0.09637451
1603557790060,12,-1.3347168,0.042175293,0.13372803
1603557790062,13,-1.1564941,0.05706787,0.20721436
1603557790062,14,-1.0124512,-0.009338379,0.1605835
1603557790062,15,-0.9362793,-0.06866455,0.077819824
1603557790062,16,-1.1166992,-0.15045166,0.054382324
1603557790063,17,-1.0852051,-0.20123291,0.010192871
1603557790063,18,-1.0795898,-0.19537354,-3.0517578E-4
1603557790064,19,-1.1049805,-0.15948486,9.1552734E-4
1603557790065,20,-1.0783691,-0.12872314,-0.004699707
1603557790066,21,-1.0290527,-0.117248535,0.027526855
1603557790066,22,-1.0085449,-0.16265869,0.062683105
1603557790066,23,-1.003418,-0.15240479,0.09295654
1603557790066,24,-0.939209,-0.16119385,0.08929443
1603557790066,25,-1.0341797,-0.18048096,0.06781006
1603557790066,26,-1.145752,-0.13775635,-0.022277832
1603557790067,27,-1.0307617,-0.047180176,-0.10650635
1603557790067,28,-0.93774414,-0.035949707,0.015808105
1603557790067,29,-0.9226074,-0.039855957,0.08929443
1603557790068,30,-0.9560547,-0.05645752,0.11883545
1603557790069,31,-1.0246582,-0.06524658,0.15545654
1603557793054,32,-1.0270996,-0.10675049,0.07659912
1603557793054,33,-1.0839844,-0.06573486,0.034851074
1603557793056,34,-0.9628906,-0.09991455,0.016052246
1603557793056,35,-0.9904785,0.07171631,0.14422607
1603557793057,36,-1.1533203,0.1564331,0.14520264
1603557793057,37,-1.1418457,0.23138428,0.38616943
1603557793058,38,-0.9921875,0.17449951,0.618103
1603557793059,39,-0.87475586,0.2098999,0.82855225
1603557793060,40,-0.5996094,0.04559326,0.6659546
1603557793060,41,-0.3803711,0.09637451,0.6425171
1603557793060,42,-0.2861328,0.13323975,0.8134155
1603557793061,43,-0.21704102,0.053894043,0.93499756
1603557793061,44,-0.05859375,-0.14727783,0.8759155
1603557793062,45,-0.15649414,0.035339355,0.9850464
1603557793062,46,-0.32714844,0.35150146,0.90545654
1603557793062,47,-0.2770996,0.013366699,0.86712646
1603557793063,48,-0.07910156,0.1149292,0.95965576
1603557793063,49,-0.16235352,0.007751465,0.9113159
1603557793063,50,-0.38305664,0.07342529,0.9113159
1603557793065,51,-0.5761719,0.21209717,0.96258545
1603557793065,52,-0.26367188,0.2826538,0.83270264
1603557793065,53,-0.2697754,0.15545654,0.7753296
1603557793066,54,-0.6855469,0.12420654,0.71551514
1603557793066,55,-0.7597656,0.2062378,0.61053467
1603557793070,56,-0.83862305,0.25091553,0.5026245
1603557793070,57,-0.9572754,0.18475342,0.31072998
1603557793070,58,-1.0639648,0.13006592,0.074157715
1603557793070,59,-1.3269043,0.17132568,0.014343262
1603557793070,60,-0.84936523,0.16278076,0.13470459
1603557793070,61,-1.2570801,0.038269043,0.2958374
1603557793070,62,-1.2556152,-0.1272583,0.17376709
1603557793071,63,-1.1704102,-0.32305908,-0.003479004
1603557795306,64,-0.9589844,0.02508545,0.032409668
1603557795307,65,-0.77490234,-0.18048096,0.12835693
1603557795307,66,-0.9187012,0.0026245117,0.14837646
1603557795308,67,-0.9938965,0.09588623,0.18084717
1603557795308,68,-0.90893555,0.11029053,0.27752686
1603557795309,69,-0.85375977,0.11199951,0.2843628
1603557795309,70,-0.92163086,0.11175537,0.34783936
1603557795310,71,-0.9289551,0.21820068,0.35565186
1603557795310,72,-0.87597656,0.22772217,0.37786865
1603557795311,73,-0.84033203,0.24822998,0.28216553
1603557795311,74,-0.8095703,0.20428467,0.24432373
1603557795312,75,-0.71875,0.12420654,0.24871826
1603557795312,76,-0.9172363,0.101745605,0.30145264
1603557795312,77,-1.154541,0.18890381,0.34539795
1603557795313,78,-0.97143555,0.2994995,0.43133545
1603557795313,79,-0.9160156,0.37371826,0.62786865
1603557795314,80,-0.85180664,0.41107178,0.7211304
1603557795314,81,-0.7307129,0.33343506,0.8956909
1603557795314,82,-0.83740234,0.3241577,1.0604858
1603557795315,83,-0.5551758,-0.015930176,0.6703491
1603557795315,84,-0.22436523,0.13079834,0.50946045
1603557795315,85,-0.0546875,0.093688965,0.75823975
1603557795316,86,0.015625,0.16864014,0.9279175
1603557795317,87,0.111328125,0.14569092,1.1698608
1603557795317,88,-0.08666992,0.13226318,0.92303467
1603557795317,89,-0.19140625,0.062927246,0.9520874
1603557795318,90,-0.083740234,0.093933105,0.8895874
1603557795318,91,-0.13647461,0.28240967,0.93255615
1603557795319,92,-0.099121094,0.1461792,0.920105
1603557795319,93,-0.12158203,0.19500732,0.9057007
1603557795319,94,-0.14013672,0.168396,0.90008545
1603557795319,95,-0.13232422,0.18035889,0.93743896
1603557797931,96,-0.14331055,0.230896,0.92108154
1603557797931,97,-0.2800293,0.27386475,0.8505249
1603557797931,98,-0.55908203,0.25653076,0.7509155
1603557797934,99,-0.6464844,0.2772827,0.69329834
1603557797934,100,-0.6723633,0.3060913,0.64886475
1603557797936,101,-0.7302246,0.29974365,0.539978
1603557797936,102,-0.95947266,0.26800537,0.29730225
1603557797937,103,-1.0610352,0.13983154,0.05706787
1603557797937,104,-1.3325195,0.18719482,0.08148193
1603557797938,105,-0.8989258,0.20550537,0.3012085
1603557797939,106,-1.3283691,-0.031799316,0.27020264
1603557797940,107,-1.3022461,-0.23638916,0.13812256
1603557797940,108,-0.8034668,-0.105529785,0.024108887
1603557797940,109,-0.77001953,-0.01739502,0.0758667
1603557797941,110,-0.84814453,-0.030822754,0.057556152
1603557797942,111,-1.0473633,0.081970215,0.16912842
1603557797942,112,-1.0979004,0.08343506,0.18670654
1603557797944,113,-0.9675293,0.08319092,0.22650146
1603557797944,114,-0.9152832,0.13031006,0.27850342
1603557797945,115,-0.96655273,0.20599365,0.31195068
1603557797945,116,-0.96899414,0.22479248,0.309021
1603557797946,117,-0.9267578,0.19500732,0.32440186
1603557797946,118,-0.8515625,0.14471436,0.28582764
1603557797946,119,-0.71240234,0.21038818,0.20697021
1603557797947,120,-0.78930664,0.24261475,0.16571045
1603557797948,121,-1.0244141,0.17669678,0.23016357
1603557797948,122,-0.92211914,0.16400146,0.2675171
1603557797949,123,-0.9111328,0.30291748,0.62323
1603557797949,124,-0.8684082,0.4352417,0.46575928
1603557797950,125,-0.8039551,0.48675537,0.5507202
1603557797950,126,-0.7675781,0.4706421,0.8654175
1603557797950,127,-0.6660156,0.40325928,1.020935
1603557800931,128,-0.46142578,0.13446045,0.76434326
1603557800932,129,-0.42944336,0.13226318,0.82244873
1603557800933,130,-0.2800293,0.13519287,1.0370483
1603557800933,131,-0.19677734,0.101745605,0.8410034
1603557800933,132,-0.07299805,0.074401855,0.6757202
1603557800934,133,0.24731445,0.035339355,0.8866577
1603557800935,134,0.20385742,0.049987793,0.9767456
1603557800935,135,-0.08618164,0.15252686,0.93865967
1603557800936,136,-0.12866211,0.07904053,0.94281006
1603557800936,137,-0.044189453,0.043151855,0.95428467
1603557800937,138,-0.06689453,0.13226318,0.91619873
1603557800937,139,-0.122802734,0.15350342,0.9262085
1603557800939,140,-0.12792969,0.13739014,0.94696045
1603557800941,141,-0.115478516,0.1552124,0.93377686
1603557800941,142,-0.10229492,0.17474365,0.91741943
1603557800941,143,-0.08911133,0.19403076,0.91986084
1603557800941,144,-0.087890625,0.16448975,0.9208374
1603557800942,145,-0.09277344,0.15863037,0.9286499
1603557800942,146,-0.099121094,0.1642456,0.9266968
1603557800942,147,-0.03149414,0.12884521,0.9616089
1603557800942,148,0.061035156,-0.003967285,0.9393921
1603557800943,149,-0.0625,-0.16217041,0.8204956
1603557800943,150,-0.17626953,-0.1338501,0.74554443
1603557800944,151,-0.49536133,-0.077697754,0.82073975
1603557800944,152,-0.47827148,4.272461E-4,0.9188843
1603557800944,153,-0.44921875,0.050476074,0.69329834
1603557800944,154,-0.72387695,0.2855835,0.7445679
1603557800945,155,-0.64038086,0.2843628,0.7614136
1603557800945,156,-0.90405273,0.6725464,0.6798706
1603557800946,157,-1.0397949,0.43499756,0.31585693
1603557800946,158,-0.8354492,0.63812256,0.30877686
1603557800946,159,-0.9267578,0.56292725,0.21038818
1603557803180,160,-1.1228027,0.40789795,0.1720581
1603557803181,161,-1.3632812,0.05657959,0.19085693
1603557803181,162,-1.0793457,-0.12554932,0.028259277
1603557803182,163,-0.6862793,0.008239746,0.11395264
1603557803183,164,-0.5786133,-0.012756348,0.18011475
1603557803184,165,-0.7902832,0.027770996,0.18939209
1603557803184,166,-0.8430176,0.16400146,0.23382568
1603557803185,167,-1.0610352,0.21453857,0.5128784
1603557803185,168,-1.0087891,-0.074523926,0.33343506
1603557803186,169,-0.90966797,0.05291748,0.37738037
1603557803187,170,-0.83325195,0.1486206,0.447937
1603557803188,171,-0.95288086,0.15106201,0.40985107
1603557803188,172,-1.0935059,0.13421631,0.3834839
1603557803188,173,-0.9987793,0.18499756,0.3475952
1603557803189,174,-0.9560547,0.21478271,0.34490967
1603557803190,175,-0.88793945,0.1696167,0.32781982
1603557803190,176,-0.80859375,0.16229248,0.3078003
1603557803190,177,-0.85058594,0.14300537,0.2970581
1603557803191,178,-0.9958496,0.15838623,0.36468506
1603557803191,179,-0.91845703,0.15032959,0.44744873
1603557803192,180,-1.0810547,0.012145996,0.3456421
1603557803192,181,-0.9523926,0.10662842,0.32928467
1603557803192,182,-0.8227539,0.1149292,0.34197998
1603557803193,183,-0.8874512,0.07904053,0.41912842
1603557803193,184,-0.939209,0.03265381,0.46697998
1603557803193,185,-1.0178223,0.034606934,0.52337646
1603557803194,186,-1.1848145,0.034851074,0.56121826
1603557803194,187,-1.1643066,0.007507324,0.46600342
1603557803195,188,-1.1030273,0.035827637,0.32391357
1603557803195,189,-1.076416,0.04852295,0.19598389
1603557803196,190,-0.89331055,0.11004639,0.16204834
1603557803198,191,-0.7961426,0.09637451,0.13641357
1603557805620,192,-0.78344727,0.12567139,0.15081787
1603557805620,193,-0.90185547,0.17376709,0.19036865
1603557805621,194,-1.203125,0.20648193,0.2831421
1603557805621,195,-1.4736328,0.22503662,0.22259521
1603557805622,196,-1.2363281,0.31463623,0.21160889
1603557805623,197,-1.0270996,0.26263428,0.1852417
1603557805623,198,-0.8327637,0.22576904,0.21380615
1603557805623,199,-0.78100586,0.19158936,0.37493896
1603557805623,200,-0.86083984,0.089538574,0.4713745
1603557805624,201,-0.86083984,0.13201904,0.4796753
1603557805624,202,-0.8618164,0.14349365,0.539978
1603557805625,203,-0.9038086,0.11468506,0.5812378
1603557805626,204,-1.1101074,0.08392334,0.64105225
1603557805626,205,-1.0515137,0.058044434,0.5512085
1603557805627,206,-1.0500488,-0.12359619,0.42010498
1603557805627,207,-0.96728516,0.21600342,0.3649292
1603557805627,208,-0.86083984,0.19525146,0.33880615
1603557805628,209,-0.83374023,0.19085693,0.28485107
1603557805628,210,-0.77490234,0.20574951,0.25897217
1603557805628,211,-0.7766113,0.18988037,0.2741089
1603557805629,212,-1.0922852,0.14129639,0.2616577
1603557805630,213,-1.1069336,0.1383667,0.37176514
1603557805630,214,-1.0632324,0.09442139,0.33563232
1603557805630,215,-0.9633789,0.16571045,0.44476318
1603557805631,216,-0.8286133,0.15985107,0.4376831
1603557805632,217,-0.8234863,0.12030029,0.44500732
1603557805632,218,-0.9411621,0.053894043,0.43475342
1603557805632,219,-1.2661133,0.04071045,0.4274292
1603557805633,220,-1.0603027,0.008728027,0.22869873
1603557805634,221,-1.1723633,0.03338623,0.11102295
1603557805634,222,-1.0349121,0.09222412,0.0038452148
1603557805634,223,-0.87231445,0.17425537,-0.061584473
1603557808245,224,-0.9567871,0.35760498,-0.16070557
1603557808247,225,-1.0004883,0.49847412,-0.15582275
1603557808247,226,-1.2077637,0.30389404,-0.043029785
1603557808248,227,-1.0390625,0.30975342,-0.113586426
1603557808249,228,-0.90649414,0.21453857,0.09832764
1603557808250,229,-1.0327148,0.036071777,0.14154053
1603557808251,230,-1.1152344,-0.08892822,0.19573975
1603557808252,231,-1.0825195,-0.10455322,0.10418701
1603557808252,232,-1.0861816,-0.12896729,0.047302246
1603557808252,233,-1.1193848,-0.13482666,0.30828857
1603557808252,234,-0.97265625,0.17303467,0.10003662
1603557808253,235,-1.2302246,-0.06451416,0.38226318
1603557808253,236,-1.0090332,0.06707764,0.4208374
1603557808253,237,-0.9602051,0.39520264,0.5829468
1603557808254,238,-0.63134766,0.13690186,0.62957764
1603557808254,239,-0.3623047,0.08856201,0.6803589
1603557808255,240,-0.29418945,0.04437256,0.9696655
1603557808258,241,-0.3869629,0.22454834,0.9393921
1603557808258,242,-0.3310547,0.07659912,0.918396
1603557808258,243,-0.20385742,0.06903076,0.91204834
1603557808259,244,-0.22021484,0.15008545,0.90618896
1603557808259,245,-0.14331055,0.16497803,0.9052124
1603557808259,246,-0.11303711,0.1605835,0.92596436
1603557808259,247,-0.18823242,0.16448975,0.9008179
1603557808259,248,-0.27661133,0.16864014,0.9022827
1603557808260,249,-0.2368164,0.07928467,0.96868896
1603557808260,250,-0.16210938,-0.028869629,0.9603882
1603557808260,251,-0.26123047,0.2850952,0.75653076
1603557808261,252,-0.49169922,0.18988037,0.7963257
1603557808261,253,-0.7873535,0.30755615,0.72943115
1603557808261,254,-0.7092285,0.230896,0.63494873
1603557808262,255,-0.75024414,0.20916748,0.49017334
1603557810868,256,-0.9597168,0.19525146,0.2892456
1603557810869,257,-1.1369629,0.19354248,-0.06939697
1603557810869,258,-1.4992676,0.23919678,-0.07696533
1603557810870,259,-1.0407715,0.22283936,0.39105225
1603557810872,260,-1.4487305,-0.11505127,-0.055236816
1603557810873,261,-0.9343262,-0.22271729,-0.36749268
1603557810873,262,-0.5473633,-0.20758057,-0.089904785
1603557810873,263,-0.6274414,-0.30181885,6.713867E-4
1603557810874,264,-1.0195312,0.10858154,0.3373413
1603557810874,265,-1.2434082,0.38983154,0.7160034
1603557810875,266,-1.1430664,1.1664429,0.979187
1603557810875,267,-1.4291992,0.8678589,1.2877808
1603557810875,268,-1.371582,-0.16070557,0.98187256
1603557810876,269,-1.135498,-0.109191895,0.3859253
1603557810876,270,-0.9812012,0.33392334,0.081726074
1603557810877,271,-0.7062988,0.73187256,0.17449951
1603557810878,272,-0.0056152344,1.2128296,0.3937378
1603557810878,273,0.83740234,1.9367065,0.7536011
1603557810879,274,0.119140625,1.999939,1.999939
1603557810879,275,-1.3381348,1.0001831,1.999939
1603557810880,276,-1.657959,-0.14141846,1.666687
1603557810880,277,-1.2077637,-0.20855713,0.64593506
1603557810880,278,-0.97753906,0.031188965,0.32904053
1603557810881,279,-0.6040039,0.40594482,0.17523193
1603557810881,280,-0.10961914,0.8764038,0.23260498
1603557810882,281,0.46557617,1.2660522,0.7460327
1603557810882,282,-0.06298828,1.74823,1.6444702
1603557810882,283,-1.2209473,1.4796753,1.991394
1603557810883,284,-1.4211426,0.855896,1.6166382
1603557810883,285,-1.1010742,0.30511475,1.09198
1603557810884,286,-0.74365234,-0.11846924,0.38201904
1603557810884,287,-0.5419922,0.06732178,0.12347412
1603557813471,288,-0.34521484,0.37982178,0.05218506
1603557813473,289,-0.22021484,0.9852905,0.14837646
1603557813473,290,-0.24633789,1.2150269,0.57855225
1603557813474,291,-0.80126953,0.51776123,1.0060425
1603557813475,292,-1.3813477,-0.2390747,0.86834717
1603557813475,293,-1.4675293,-0.6555786,0.60809326
1603557813475,294,-1.2753906,-0.42755127,0.42474365
1603557813476,295,-1.15625,-0.21612549,0.11175537
1603557813477,296,-1.1450195,-0.006652832,0.2531128
1603557813478,297,-1.3015137,0.09832764,0.24066162
1603557813478,298,-1.2033691,0.16278076,0.35247803
1603557813479,299,-0.8586426,0.039489746,0.48944092
1603557813480,300,-0.57250977,-0.20391846,0.31488037
1603557813480,301,-0.47265625,-0.08453369,0.3756714
1603557813480,302,-0.53686523,0.0014038086,0.42108154
1603557813481,303,-0.7001953,0.042907715,0.5343628
1603557813481,304,-1.001709,0.09906006,0.70428467
1603557813482,305,-0.92822266,0.1227417,0.576355
1603557813482,306,-0.97509766,0.15228271,0.5236206
1603557813483,307,-1.0976562,0.137146,0.4154663
1603557813483,308,-1.3647461,0.30389404,0.37591553
1603557813483,309,-1.220459,0.34613037,0.20721436
1603557813484,310,-1.0644531,0.44207764,0.13983154
1603557813484,311,-0.8540039,0.513855,0.13372803
1603557813485,312,-0.70825195,0.5023804,0.14837646
1603557813485,313,-0.6945801,0.46185303,0.21356201
1603557813486,314,-0.7163086,0.49627686,0.38104248
1603557813486,315,-0.6760254,0.62054443,0.5609741
1603557813487,316,-0.77197266,0.55389404,0.65448
1603557813487,317,-0.6965332,0.3932495,0.6137085
1603557813488,318,-0.6081543,0.3390503,0.5673218
1603557813488,319,-0.5488281,0.37298584,0.5968628
1603557815932,320,-0.45043945,0.36029053,0.602478
1603557815933,321,-0.54956055,0.51605225,0.5067749
1603557815934,322,-0.7915039,0.6967163,0.4262085
1603557815934,323,-0.8874512,0.6415405,0.48675537
1603557815935,324,-0.8811035,0.3781128,0.39178467
1603557815936,325,-0.88427734,0.30413818,0.246521
1603557815938,326,-0.7565918,0.3480835,0.09954834
1603557815939,327,-0.7524414,0.4413452,0.026794434
1603557815940,328,-0.9658203,0.4779663,0.086364746
1603557815940,329,-1.036377,0.47821045,0.04071045
1603557815941,330,-1.0727539,0.4882202,-0.026184082
1603557815941,331,-1.0080566,0.5075073,-0.018127441
1603557815941,332,-0.96313477,0.50286865,-0.112854004
1603557815942,333,-0.96655273,0.5421753,-0.16778564
1603557815942,334,-1.0961914,0.6642456,-0.19952393
1603557815943,335,-0.890625,0.4911499,-0.0256958
1603557815944,336,-0.7216797,0.69281006,0.11395264
1603557815944,337,-0.6176758,0.8571167,0.14959717
1603557815945,338,-0.5810547,0.6342163,0.45526123
1603557815946,339,-0.51538086,0.6000366,0.45037842
1603557815947,340,-0.3762207,0.6078491,0.37322998
1603557815947,341,-0.31860352,0.55682373,-0.28570557
1603557815947,342,-0.47509766,1.1127319,-0.47174072
1603557815948,343,-0.35961914,1.1022339,-0.30841064
1603557815948,344,-0.45117188,1.0446167,-0.13214111
1603557815948,345,-0.42041016,1.0236206,0.097351074
1603557815948,346,-0.18774414,1.1447144,0.20916748
1603557815948,347,-0.1459961,1.3019409,0.6647339
1603557815949,348,-0.075683594,0.9623413,0.48162842
1603557815949,349,0.0017089844,1.0634155,-0.06768799
1603557815949,350,-0.039794922,0.5470581,-0.20489502
1603557815950,351,0.3330078,-0.5322876,-0.10430908
1603557818560,352,0.38476562,0.45648193,0.30218506
1603557818560,353,0.66015625,1.3746948,0.5993042
1603557818561,354,0.6816406,0.72991943,0.3998413
1603557818561,355,0.22998047,0.74505615,0.33880615
1603557818561,356,0.37475586,0.4401245,0.45550537
1603557818562,357,0.61743164,0.13543701,0.309021
1603557818562,358,0.65405273,0.29022217,0.276062
1603557818564,359,1.1252441,0.20941162,0.62957764
1603557818564,360,0.954834,0.3060913,0.5963745
1603557818565,361,0.31762695,0.9850464,-0.26324463
1603557818566,362,-0.66308594,1.774353,-0.4837036
1603557818567,363,-0.41577148,0.8998413,0.29852295
1603557818567,364,-0.0793457,0.12298584,0.9242554
1603557818568,365,0.0026855469,0.051940918,1.1017456
1603557818569,366,0.1887207,0.41741943,0.89886475
1603557818570,367,0.20532227,0.39105225,0.89349365
1603557818570,368,0.056884766,0.10296631,0.96380615
1603557818574,369,0.20288086,0.07244873,0.7592163
1603557818575,370,0.36547852,0.13519287,0.45404053
1603557818575,371,0.3720703,1.2567749,0.4755249
1603557818575,372,0.044433594,1.680603,0.33587646
1603557818575,373,0.03491211,0.8981323,0.089782715
1603557818576,374,0.06323242,0.795105,-0.23492432
1603557818576,375,0.38061523,0.5790405,-0.042297363
1603557818576,376,0.44628906,0.73846436,0.13421631
1603557818576,377,0.35375977,0.7304077,0.09954834
1603557818576,378,0.31811523,0.8209839,0.3078003
1603557818576,379,0.31689453,0.83587646,0.51605225
1603557818576,380,0.46923828,0.7680054,0.5639038
1603557818576,381,0.60595703,0.81048584,0.5216675
1603557818576,382,0.52075195,0.8048706,0.56463623
1603557818577,383,0.4050293,0.5856323,0.5133667
1603557821181,384,0.34277344,0.2345581,0.2687378
1603557821181,385,0.3869629,0.1251831,0.04046631
1603557821182,386,0.44628906,0.2765503,0.08441162
1603557821183,387,0.48242188,0.5700073,0.32440186
1603557821183,388,0.40673828,0.98114014,0.40179443
1603557821184,389,0.23535156,1.1893921,0.4616089
1603557821185,390,0.068359375,1.06781,0.43206787
1603557821185,391,-0.091552734,0.9567261,0.28875732
1603557821186,392,-0.22387695,0.9755249,0.093444824
1603557821187,393,-0.29638672,0.94036865,0.2526245
1603557821187,394,-0.27490234,0.72039795,0.29632568
1603557821188,395,-0.1303711,0.7079468,0.39398193
1603557821188,396,-0.2475586,1.3722534,0.5072632
1603557821189,397,-0.16040039,1.0582886,0.15423584
1603557821189,398,-0.1105957,1.0033569,0.012390137
1603557821190,399,-0.0925293,0.97650146,0.034118652
1603557821191,400,-0.13989258,0.79486084,0.058532715
1603557821191,401,-0.21899414,1.0004272,-0.020812988
1603557821192,402,-0.21777344,0.95428467,0.021911621
1603557821192,403,-0.17041016,0.90130615,-0.065979004
1603557821192,404,-0.16503906,0.9821167,-0.18878174
1603557821193,405,-0.21386719,0.9176636,-0.24786377
1603557821193,406,-0.26538086,0.87176514,-0.300354
1603557821195,407,-0.34301758,0.93255615,-0.30426025
1603557821195,408,-0.4140625,0.93548584,-0.18634033
1603557821196,409,-0.27392578,1.1122437,-0.42852783
1603557821196,410,-0.100097656,1.1625366,-0.22027588
1603557821196,411,-0.17626953,0.82855225,0.029724121
1603557821196,412,-0.30371094,0.64959717,0.15447998
1603557821196,413,-0.44799805,0.401062,0.30560303
1603557821196,414,-0.6003418,0.4154663,0.5492554
1603557821196,415,-0.626709,0.3624878,0.6535034
1603557823808,416,-0.53393555,0.13397217,0.72650146
1603557823809,417,-0.5925293,-0.054260254,0.763855
1603557823810,418,-0.72094727,-0.1819458,0.69281006
1603557823811,419,-0.7927246,-0.22174072,0.6017456
1603557823811,420,-0.83447266,-0.21807861,0.6220093
1603557823813,421,-0.9584961,-0.1116333,0.5092163
1603557823813,422,-1.0175781,-0.14898682,0.6845093
1603557823813,423,-0.77197266,-0.21417236,0.61224365
1603557823813,424,-0.64868164,-0.101623535,0.6083374
1603557823814,425,-0.60961914,0.0099487305,0.59661865
1603557823815,426,-0.87231445,0.036315918,0.62420654
1603557823816,427,-1.1157227,0.034362793,0.65130615
1603557823817,428,-1.0612793,-0.47540283,0.701355
1603557823817,429,-1.1530762,-0.7564087,0.92108154
1603557823818,430,-0.97094727,-0.52423096,0.7650757
1603557823818,431,-0.80126953,-0.70806885,0.8956909
1603557823819,432,-1.0273438,0.27191162,0.946228
1603557823819,433,-0.64575195,0.26141357,0.71307373
1603557823820,434,-0.2919922,-0.09136963,0.80877686
1603557823821,435,-0.13134766,-0.29522705,0.7279663
1603557823821,436,-0.08178711,-0.19244385,0.76239014
1603557823821,437,-0.092041016,0.3312378,0.6991577
1603557823822,438,0.13476562,0.42474365,0.5206909
1603557823822,439,0.30493164,0.34954834,0.54022217
1603557823823,440,0.19311523,0.26849365,0.72039795
1603557823823,441,0.1899414,0.28460693,0.7658081
1603557823824,442,0.32202148,0.38201904,0.70428467
1603557823824,443,0.3635254,0.46063232,0.85198975
1603557823824,444,0.19018555,0.23822021,0.92181396
1603557823825,445,0.22802734,0.3192749,0.8287964
1603557823825,446,0.2541504,0.30438232,0.6976929
1603557823826,447,0.22875977,0.23675537,0.87664795
1603557826430,448,0.18969727,0.31610107,0.8756714
1603557826430,449,0.2697754,0.44036865,0.7965698
1603557826431,450,0.3791504,0.5795288,0.46502686
1603557826431,451,-0.16918945,0.73114014,0.90301514
1603557826432,452,0.09790039,0.48651123,0.68255615
1603557826433,453,0.8703613,0.42230225,-0.6135864
1603557826433,454,0.32788086,0.73358154,0.0026245117
1603557826434,455,-0.38476562,0.63812256,1.1600952
1603557826434,456,-0.9812012,0.64178467,1.8097534
1603557826435,457,-1.0644531,0.7272339,1.5316772
1603557826435,458,-0.27368164,0.32025146,0.8329468
1603557826436,459,0.039794922,0.66864014,0.7440796
1603557826437,460,0.052246094,0.48968506,0.8102417
1603557826437,461,0.111328125,0.24017334,0.8473511
1603557826438,462,0.27319336,-0.0051879883,0.70965576
1603557826439,463,0.10522461,0.046813965,1.1244507
1603557826439,464,0.24145508,0.04876709,0.59051514
1603557826439,465,0.1159668,-0.31207275,0.81903076
1603557826440,466,-0.11035156,-0.10626221,1.3876343
1603557826440,467,0.34448242,-0.5901489,0.52264404
1603557826440,468,0.8015137,-0.77349854,0.05682373
1603557826441,469,-0.07104492,0.22747803,-0.13702393
1603557826441,470,-1.0568848,1.9889526,-0.4512329
1603557826441,471,-0.8508301,1.3917847,0.025817871
1603557826442,472,-0.29907227,1.024353,0.22479248
1603557826442,473,-0.23583984,1.1271362,0.36151123
1603557826443,474,-0.2619629,0.7675171,0.7382202
1603557826443,475,-0.12597656,0.7206421,0.38934326
1603557826444,476,-0.16796875,0.85931396,0.1708374
1603557826444,477,0.46923828,0.27557373,0.5309448
1603557826445,478,0.5966797,0.76605225,0.9425659
1603557826445,479,0.22729492,0.69085693,0.2904663
1603557828869,480,-0.35791016,1.1256714,0.23553467
1603557828870,481,-0.21166992,0.81414795,0.36419678
1603557828871,482,-0.036621094,0.791687,0.32855225
1603557828871,483,-0.38476562,1.609314,0.5951538
1603557828871,484,-0.15161133,1.0194702,0.16741943
1603557828872,485,0.06665039,0.76068115,0.042663574
1603557828872,486,0.014892578,0.5873413,0.23138428
1603557828873,487,-0.111572266,0.46429443,0.21502686
1603557828875,488,-0.018554688,0.39935303,0.33831787
1603557828875,489,0.044189453,0.46185303,0.48138428
1603557828875,490,-0.0234375,0.55096436,0.48944092
1603557828875,491,-0.3190918,0.68548584,0.54608154
1603557828876,492,-0.9042969,1.0009155,0.7723999
1603557828877,493,-0.6862793,0.82073975,0.4960327
1603557828877,494,-0.7817383,0.042663574,0.70892334
1603557828877,495,-1.0014648,-0.02520752,0.53411865
1603557828879,496,-1.302002,-0.0064086914,0.38885498
1603557828879,497,-1.328125,0.0446167,0.63201904
1603557828880,498,-1.2512207,0.23626709,0.6625366
1603557828880,499,-1.0922852,0.16400146,0.7555542
1603557828880,500,-1.0986328,-0.00592041,0.8265991
1603557828881,501,-1.0063477,-0.024719238,0.6774292
1603557828881,502,-0.7705078,0.046813965,0.56903076
1603557828881,503,-0.54345703,0.17034912,0.4623413
1603557828882,504,-0.31030273,0.1083374,0.46063232
1603557828882,505,-0.09472656,0.017028809,0.46429443
1603557828883,506,-0.053466797,0.0048217773,0.22015381
1603557828883,507,-0.31176758,0.571228,0.26507568
1603557828884,508,-0.5510254,0.63983154,0.35784912
1603557828884,509,-0.9941406,0.38885498,0.47650146
1603557828884,510,-1.5512695,0.1437378,0.50701904
1603557828885,511,-1.5927734,0.3439331,0.45159912
1603557831684,512,-1.3925781,0.30267334,0.5753784
1603557831685,513,-1.182373,0.24261475,0.513855
1603557831686,514,-1.0666504,0.369812,0.5180054
1603557831687,515,-0.8930664,0.28240967,0.51434326
1603557831688,516,-1.0766602,0.08465576,0.39227295
1603557831688,517,-1.1071777,0.12005615,0.37493896
1603557831689,518,-0.9577637,0.117126465,0.401062
1603557831690,519,-0.7758789,0.008483887,0.30316162
1603557831690,520,-0.82299805,0.0836792,0.2880249
1603557831691,521,-1.1633301,0.1305542,0.41693115
1603557831691,522,-1.052002,0.13543701,0.4022827
1603557831692,523,-0.9880371,0.09124756,0.2387085
1603557831692,524,-0.8330078,0.2086792,0.33563232
1603557831693,525,-0.81591797,0.18499756,0.35784912
1603557831693,526,-0.92529297,0.16009521,0.37200928
1603557831694,527,-1.2106934,0.16937256,0.4237671
1603557831694,528,-1.3728027,0.1305542,0.50335693
1603557831695,529,-1.3710938,0.1071167,0.29437256
1603557831695,530,-1.2624512,0.06707764,0.23675537
1603557831696,531,-1.0251465,0.02166748,0.12835693
1603557831696,532,-0.7805176,0.20794678,0.14984131
1603557831697,533,-0.71313477,0.45159912,0.35906982
1603557831698,534,-0.47998047,0.7445679,0.7279663
1603557831698,535,-0.22338867,0.9850464,0.7975464
1603557831699,536,-0.1628418,1.3375854,1.309021
1603557831700,537,-0.046875,1.0914917,1.1019897
1603557831700,538,0.2241211,0.4406128,0.34735107
1603557831700,539,0.28344727,0.23358154,0.12371826
1603557831700,540,0.080322266,-0.3135376,-0.070617676
1603557831701,541,-0.049804688,-0.9649048,0.15789795
1603557831701,542,0.11401367,-0.7996216,0.5570679
1603557831701,543,0.22607422,-0.7581177,0.18377686
1603557834121,544,0.3918457,-0.80914307,0.40179443
1603557834121,545,0.6062012,-0.847229,0.2489624
1603557834122,546,0.57910156,-0.80255127,0.24505615
1603557834123,547,0.5632324,-0.83551025,0.1942749
1603557834123,548,0.4025879,-0.7527466,-0.04083252
1603557834124,549,0.37426758,-0.9036255,0.06829834
1603557834125,550,0.30126953,-0.69976807,-0.023986816
1603557834126,551,0.50512695,-0.46295166,-0.4187622
1603557834126,552,0.545166,-0.047180176,-0.3496704
1603557834127,553,0.11035156,0.24603271,0.22064209
1603557834127,554,-0.49731445,0.59906006,0.65008545
1603557834128,555,-1.1674805,0.19769287,0.8226929
1603557834128,556,-2.0,-0.054260254,1.1730347
1603557834129,557,-1.5097656,0.048034668,0.762146
1603557834132,558,-1.0124512,0.06903076,0.49041748
1603557834132,559,-0.9663086,0.15863037,0.4574585
1603557834132,560,-1.0280762,0.0524292,0.3998413
1603557834132,561,-1.0671387,-0.10430908,0.28216553
1603557834133,562,-0.9614258,-0.051574707,0.28460693
1603557834133,563,-0.9304199,-0.069885254,0.31829834
1603557834133,564,-0.8811035,-0.09210205,0.33026123
1603557834133,565,-0.86743164,-0.02935791,0.39398193
1603557834133,566,-0.8730469,0.055603027,0.4154663
1603557834133,567,-0.9030762,0.10443115,0.43060303
1603557834134,568,-0.94506836,0.13323975,0.43011475
1603557834134,569,-0.96533203,0.15252686,0.40496826
1603557834134,570,-0.95703125,0.15594482,0.37542725
1603557834134,571,-0.99243164,0.1618042,0.38494873
1603557834134,572,-1.0039062,0.44989014,0.4220581
1603557834134,573,-1.0571289,0.6737671,0.55633545
1603557834135,574,-0.982666,0.6503296,0.6749878
1603557834136,575,-0.59033203,0.4623413,0.696228
1603557836744,576,-0.23657227,0.25994873,0.6473999
1603557836745,577,-0.111083984,0.21356201,0.6864624
1603557836746,578,-0.079589844,0.17718506,0.70184326
1603557836747,579,-0.14086914,0.23675537,0.84710693
1603557836748,580,-0.111083984,0.20916748,0.94573975
1603557836749,581,-0.06713867,0.15863037,0.949646
1603557836750,582,0.015625,0.024597168,0.8432007
1603557836750,583,0.016357422,-0.0134887695,0.80023193
1603557836752,584,-0.03491211,-0.08111572,0.69818115
1603557836752,585,-0.25048828,-0.032043457,0.75579834
1603557836752,586,-0.51586914,-0.04058838,1.0221558
1603557836753,587,-0.49291992,0.022155762,1.0045776
1603557836753,588,-0.50756836,-0.11773682,1.0438843
1603557836755,589,-0.42163086,-0.07525635,0.94744873
1603557836755,590,-0.36572266,-0.15631104,0.87957764
1603557836756,591,-0.29223633,-0.23321533,0.8341675
1603557836756,592,-0.39624023,-0.2107544,0.7706909
1603557836756,593,-0.43286133,-0.2546997,0.760437
1603557836756,594,-0.41992188,-0.3508911,0.78948975
1603557836756,595,-0.41625977,-0.32720947,0.7531128
1603557836756,596,-0.53808594,-0.43829346,0.7509155
1603557836757,597,-0.59033203,-0.4439087,0.68743896
1603557836758,598,-0.5917969,-0.40753174,0.7938843
1603557836758,599,-0.5595703,-0.3303833,0.79681396
1603557836758,600,-0.5966797,-0.28009033,0.75531006
1603557836758,601,-0.5986328,-0.24298096,0.7633667
1603557836758,602,-0.5493164,-0.17877197,0.8029175
1603557836759,603,-0.49243164,-0.08453369,0.8773804
1603557836759,604,-0.44140625,-0.07891846,0.83392334
1603557836759,605,-0.41796875,-0.093811035,0.961853
1603557836760,606,-0.5605469,-0.3255005,1.1105347
1603557836760,607,-0.19262695,-0.22247314,0.96795654
1603557839554,608,0.38598633,-0.13970947,0.8029175
1603557839555,609,0.3701172,0.22015381,0.71795654
1603557839556,610,0.106933594,0.29119873,0.8497925
1603557839557,611,-0.057128906,0.37786865,1.0114136
1603557839558,612,-0.20458984,0.11029053,0.9039917
1603557839558,613,-0.4074707,-0.3694458,1.0050659
1603557839559,614,-0.26367188,0.15985107,0.9188843
1603557839559,615,-0.0859375,0.008972168,1.0089722
1603557839559,616,-0.19946289,-0.022521973,0.8654175
1603557839560,617,-0.21728516,0.035827637,0.9852905
1603557839560,618,-0.26611328,-0.06402588,0.87493896
1603557839561,619,-0.37670898,0.17010498,0.9489136
1603557839562,620,-0.51904297,-0.05328369,0.85858154
1603557839562,621,-0.49414062,-0.0029907227,0.8336792
1603557839562,622,-0.46142578,0.0680542,0.83465576
1603557839563,623,-0.42578125,0.09832764,0.8878784
1603557839564,624,-0.43896484,0.089782715,0.8619995
1603557839564,625,-0.46850586,0.027526855,0.8563843
1603557839564,626,-0.4638672,-0.008605957,0.90667725
1603557839565,627,-0.42993164,0.016052246,0.90838623
1603557839565,628,-0.31201172,0.011413574,0.9213257
1603557839565,629,-0.2866211,0.038024902,0.9125366
1603557839566,630,-0.3491211,0.09832764,0.836853
1603557839566,631,-0.35717773,0.18035889,0.83758545
1603557839567,632,-0.15844727,0.52557373,0.9545288
1603557839567,633,0.15039062,0.45184326,0.9801636
1603557839569,634,0.3720703,0.18963623,1.163269
1603557839570,635,0.2927246,0.06732178,0.946228
1603557839570,636,0.022705078,0.16351318,0.8937378
1603557839571,637,-0.14526367,-0.04815674,0.8156128
1603557839571,638,-0.41015625,0.152771,0.8422241
1603557839571,639,-0.34326172,0.23358154,0.8226929
1603557841994,640,-0.4555664,0.20062256,0.89105225
1603557841994,641,-0.4440918,0.026550293,0.9227905
1603557841996,642,-0.48217773,-0.11187744,0.92230225
1603557841997,643,-0.48608398,-0.14117432,0.89642334
1603557841998,644,-0.4440918,-0.13653564,0.8773804
1603557841999,645,-0.4580078,-0.11236572,0.7736206
1603557842000,646,-0.4958496,-0.16900635,0.77459717
1603557842000,647,-0.46313477,-0.24786377,0.81707764
1603557842001,648,-0.4572754,-0.25201416,0.86639404
1603557842002,649,-0.45288086,-0.24542236,0.8060913
1603557842002,650,-0.45117188,-0.22589111,0.807312
1603557842002,651,-0.46362305,-0.24298096,0.8475952
1603557842002,652,-0.48950195,-0.19903564,0.8209839
1603557842003,653,-0.5095215,-0.16851807,0.84295654
1603557842004,654,-0.5593262,-0.12628174,0.887146
1603557842007,655,-0.52197266,-0.10284424,0.77801514
1603557842008,656,-0.4873047,-0.038879395,0.8366089
1603557842008,657,-0.40405273,0.06463623,0.8895874
1603557842008,658,-0.32348633,0.101989746,0.8734741
1603557842008,659,-0.28125,0.14349365,0.94158936
1603557842008,660,-0.20874023,0.15179443,0.9738159
1603557842008,661,-0.22924805,0.15008545,0.87908936
1603557842009,662,-0.3383789,0.113464355,0.8121948
1603557842009,663,-0.41796875,-0.1104126,0.9537964
1603557842010,664,-0.11767578,-0.2300415,1.0512085
1603557842010,665,0.22851562,-0.0647583,0.9125366
1603557842011,666,0.29077148,0.4220581,1.0700073
1603557842011,667,0.16186523,0.41204834,0.8588257
1603557842011,668,-0.18798828,0.26922607,0.8810425
1603557842011,669,-0.27856445,-0.041809082,0.9176636
1603557842011,670,-0.40454102,-0.0049438477,0.9957886
1603557842012,671,-0.3239746,0.027526855,1.0006714
1603557844430,672,-0.36547852,0.031921387,0.89178467
1603557844430,673,-0.39013672,-0.1296997,0.8241577
1603557844433,674,-0.421875,0.01776123,0.87493896
1603557844433,675,-0.41625977,0.0021362305,0.84246826
1603557844435,676,-0.39770508,0.015319824,0.87176514
1603557844435,677,-0.3803711,0.039733887,0.9484253
1603557844437,678,-0.32080078,0.0138549805,0.90448
1603557844437,679,-0.33691406,0.03265381,0.9154663
1603557844438,680,-0.31591797,0.0021362305,0.86224365
1603557844438,681,-0.35717773,0.007507324,0.9310913
1603557844439,682,-0.38012695,-0.009094238,0.89520264
1603557844439,683,-0.37719727,0.026550293,0.82147217
1603557844440,684,-0.3955078,-0.0095825195,0.93743896
1603557844440,685,-0.35351562,0.055358887,0.9545288
1603557844440,686,-0.29101562,0.058776855,0.901062
1603557844441,687,-0.25854492,0.11785889,0.86395264
1603557844441,688,-0.28173828,0.86834717,0.8200073
1603557844442,689,0.09667969,0.81121826,0.82244873
1603557844444,690,0.49047852,0.5582886,0.619812
1603557844444,691,0.4946289,0.25701904,0.5907593
1603557844444,692,0.122558594,0.14422607,0.79974365
1603557844444,693,-0.103515625,0.23822021,0.8825073
1603557844445,694,-0.103271484,0.4413452,0.8341675
1603557844445,695,-0.115234375,0.5934448,0.82684326
1603557844445,696,-0.076171875,0.61224365,0.6754761
1603557844445,697,-0.10913086,0.63397217,0.670105
1603557844446,698,-0.23046875,0.56292725,0.49432373
1603557844446,699,-0.4987793,0.47601318,0.5355835
1603557844446,700,-0.73217773,0.31610107,0.40960693
1603557844448,701,-1.0546875,0.21844482,0.41278076
1603557844448,702,-1.1955566,0.19256592,0.45721436
1603557844448,703,-1.1394043,0.2033081,0.44525146
1603557847245,704,-1.2836914,0.29144287,0.4850464
1603557847247,705,-1.092041,0.23699951,0.43475342
1603557847247,706,-1.25,0.12591553,0.35662842
1603557847249,707,-1.0690918,0.05731201,0.35736084
1603557847250,708,-0.8847656,0.021911621,0.28045654
1603557847250,709,-0.65185547,0.047546387,0.2531128
1603557847251,710,-0.5703125,0.11077881,0.28900146
1603557847252,711,-0.68408203,0.11981201,0.3793335
1603557847252,712,-0.970459,0.13665771,0.43695068
1603557847253,713,-1.3195801,0.18426514,0.5228882
1603557847254,714,-1.1464844,0.18890381,0.39471436
1603557847254,715,-0.9897461,0.23699951,0.2694702
1603557847254,716,-1.0571289,0.25701904,0.1852417
1603557847255,717,-1.2692871,0.15618896,0.062194824
1603557847256,718,-1.2358398,0.17059326,0.018005371
1603557847256,719,-1.0356445,0.29022217,0.042663574
1603557847257,720,-0.8408203,0.52948,0.17572021
1603557847257,721,-0.6945801,0.6622925,0.480896
1603557847258,722,-0.6599121,0.65838623,0.6972046
1603557847258,723,-0.7192383,0.6744995,0.83514404
1603557847258,724,-0.7998047,0.6876831,0.75286865
1603557847259,725,-0.5078125,0.5602417,0.54559326
1603557847259,726,-0.00390625,0.5668335,0.15814209
1603557847260,727,0.22607422,0.59490967,0.18670654
1603557847260,728,0.18310547,0.4520874,0.3522339
1603557847260,729,0.11425781,0.5060425,0.57489014
1603557847261,730,0.049072266,0.5241089,0.8612671
1603557847261,731,0.17407227,0.7225952,1.1378784
1603557847262,732,0.42871094,0.7506714,1.2372437
1603557847262,733,0.41455078,0.38885498,0.805603
1603557847262,734,0.29516602,0.09173584,0.3522339
1603557847263,735,0.4958496,0.19378662,0.1539917
1603557849683,736,0.51904297,0.6088257,0.25994873
1603557849684,737,0.7404785,0.8031616,0.30023193
1603557849685,738,0.6191406,1.015564,0.28167725
1603557849687,739,0.2770996,1.0353394,0.4989624
1603557849688,740,0.13793945,0.7369995,0.5621948
1603557849688,741,0.36035156,0.5397339,0.69696045
1603557849689,742,0.5097656,0.6532593,0.75653076
1603557849689,743,0.58081055,0.46087646,0.6149292
1603557849690,744,0.8757324,0.5223999,0.48944092
1603557849690,745,0.54663086,0.371521,0.4286499
1603557849690,746,0.061523438,0.26556396,0.3036499
1603557849691,747,-0.16308594,0.43914795,0.340271
1603557849691,748,-0.34594727,0.7514038,0.75408936
1603557849692,749,-0.28564453,0.777771,1.0028687
1603557849692,750,-0.083740234,0.80340576,0.9682007
1603557849692,751,0.080566406,0.7953491,0.81073
1603557849693,752,0.0048828125,0.5726929,0.5910034
1603557849693,753,-0.08618164,0.6322632,0.5700073
1603557849694,754,-0.08496094,0.9225464,0.91204834
1603557849694,755,0.09814453,0.9550171,0.9813843
1603557849695,756,0.2854004,0.7904663,0.7665405
1603557849695,757,0.20166016,0.29852295,0.5326538
1603557849695,758,0.42944336,0.26556396,0.34954834
1603557849696,759,0.701416,0.40301514,0.23187256
1603557849697,760,0.71850586,0.508728,0.3102417
1603557849698,761,0.7084961,0.7196655,0.4623413
1603557849698,762,0.46899414,0.48138428,0.2880249
1603557849698,763,0.1965332,0.6351929,0.34588623
1603557849698,764,0.17382812,0.71746826,0.43670654
1603557849698,765,0.2097168,0.8451538,0.6810913
1603557849699,766,0.30322266,1.0592651,0.94866943
1603557849699,767,0.2368164,0.8102417,0.9767456
1603557852494,768,0.2548828,0.45941162,0.65130615
1603557852495,769,0.3581543,0.47576904,0.494812
1603557852496,770,0.5515137,0.59783936,0.56365967
1603557852497,771,0.77563477,0.5817261,0.57366943
1603557852498,772,0.576416,0.41864014,0.50775146
1603557852498,773,0.1538086,0.09246826,0.27825928
1603557852499,774,-0.43188477,0.4118042,0.2616577
1603557852500,775,-0.6113281,0.79437256,0.6473999
1603557852500,776,-0.4099121,0.79974365,0.98846436
1603557852500,777,-0.2685547,1.0702515,1.1920776
1603557852500,778,0.011230469,0.73236084,1.0941772
1603557852501,779,-0.0234375,0.6781616,0.8764038
1603557852501,780,-0.02758789,0.6703491,0.49432373
1603557852502,781,0.21582031,0.49163818,0.5307007
1603557852503,782,0.4699707,0.38323975,0.7575073
1603557852503,783,0.5517578,0.32733154,0.6847534
1603557852504,784,0.22631836,0.37420654,0.39031982
1603557852505,785,-0.0847168,0.774353,0.7382202
1603557852505,786,0.21557617,0.38104248,0.9369507
1603557852505,787,0.515625,0.07244873,1.2850952
1603557852506,788,0.48461914,-0.12335205,1.3480835
1603557852506,789,0.18920898,-0.07647705,0.80340576
1603557852507,790,0.15356445,0.3493042,0.34222412
1603557852508,791,0.24731445,0.49456787,0.3690796
1603557852510,792,0.44995117,0.1642456,0.8217163
1603557852510,793,0.66308594,-0.055236816,1.1896362
1603557852511,794,0.5463867,-0.04840088,1.1466675
1603557852511,795,0.33251953,0.1227417,0.5578003
1603557852511,796,0.17114258,0.17474365,0.33221436
1603557852512,797,0.23901367,-0.051086426,0.8551636
1603557852512,798,0.71533203,-0.42803955,1.8629761
1603557852512,799,0.5534668,-0.34014893,1.6439819
1603557855119,800,0.099365234,-0.050598145,0.61517334
1603557855120,801,-0.16479492,0.101989746,-0.09063721
1603557855120,802,0.09814453,0.105163574,-0.062805176
1603557855120,803,1.284668,-0.14605713,0.76361084
1603557855121,804,1.8330078,-0.28399658,1.2980347
1603557855122,805,0.93896484,-0.13165283,0.8551636
1603557855122,806,0.21166992,0.13153076,0.30218506
1603557855123,807,0.0053710938,0.10028076,0.01727295
1603557855124,808,0.5090332,-0.082092285,0.2723999
1603557855124,809,1.550293,-0.17364502,0.8578491
1603557855125,810,1.496582,-0.13897705,0.9857788
1603557855125,811,0.8083496,-0.042541504,0.3912964
1603557855126,812,0.42407227,-0.022521973,0.09832764
1603557855126,813,0.27954102,-0.011291504,0.047546387
1603557855127,814,0.58935547,-0.045959473,0.12786865
1603557855127,815,1.3725586,-0.051086426,0.45184326
1603557855128,816,1.6047363,-0.065979004,0.5939331
1603557855130,817,1.0395508,0.058776855,0.30804443
1603557855130,818,0.49072266,0.13763428,0.11395264
1603557855130,819,0.25756836,0.13861084,-0.08135986
1603557855130,820,0.5395508,0.21502686,0.018981934
1603557855130,821,1.3383789,0.1605835,0.4076538
1603557855131,822,1.6860352,0.15765381,0.5314331
1603557855131,823,1.4807129,0.14276123,0.447937
1603557855132,824,0.9824219,0.04486084,0.29559326
1603557855132,825,0.5180664,0.03265381,0.016296387
1603557855133,826,0.3852539,-0.021057129,-0.047668457
1603557855133,827,0.60253906,-0.039855957,0.023132324
1603557855133,828,0.85009766,-0.12652588,0.276062
1603557855134,829,0.79785156,-0.07598877,0.41644287
1603557855134,830,0.6965332,0.16253662,0.5302124
1603557855134,831,0.7194824,0.2814331,0.59002686
1603557857371,832,0.9333496,0.21063232,0.6491089
1603557857372,833,1.3249512,0.098083496,0.63201904
1603557857372,834,1.4841309,-0.0044555664,0.63739014
1603557857374,835,0.9567871,-0.117492676,0.5175171
1603557857375,836,0.6828613,-0.09869385,0.26776123
1603557857375,837,0.54833984,-0.11578369,0.24993896
1603557857377,838,0.47851562,-0.21051025,0.2765503
1603557857377,839,0.34375,-0.16314697,0.36297607
1603557857378,840,0.48535156,-0.30767822,0.59295654
1603557857379,841,0.6833496,-0.04840088,0.71307373
1603557857379,842,0.7006836,0.07537842,0.6884155
1603557857379,843,0.7475586,0.04510498,0.70599365
1603557857380,844,0.9526367,-0.06964111,0.92645264
1603557857380,845,1.3852539,0.02947998,0.8265991
1603557857381,846,1.1967773,-0.039611816,0.47528076
1603557857381,847,0.76782227,-0.1404419,0.25091553
1603557857381,848,0.53027344,-0.2144165,0.010681152
1603557857382,849,0.560791,-0.16485596,0.08685303
1603557857383,850,0.6176758,-0.16656494,0.33538818
1603557857383,851,0.5800781,-0.13018799,0.45648193
1603557857383,852,0.6225586,0.035095215,0.55218506
1603557857384,853,0.6442871,0.20037842,0.5619507
1603557857385,854,0.826416,0.10687256,0.777771
1603557857385,855,0.95214844,-0.16583252,1.0368042
1603557857385,856,1.1047363,-0.13214111,0.7992554
1603557857386,857,1.135498,-0.18096924,0.5309448
1603557857387,858,0.8330078,-0.1453247,0.27215576
1603557857387,859,0.5354004,-0.06817627,0.04144287
1603557857388,860,0.32470703,0.050964355,0.17449951
1603557857388,861,0.26220703,0.20135498,0.49969482
1603557857389,862,0.23803711,0.6906128,0.87957764
1603557857389,863,0.092041016,0.572937,1.2687378
1603557859994,864,0.11621094,0.48284912,1.1124878
1603557859994,865,0.3425293,0.5055542,1.2438354
1603557859996,866,0.55615234,0.3373413,1.0492554
1603557859996,867,0.7800293,0.2753296,0.5934448
1603557859998,868,0.6796875,0.3217163,0.41815186
1603557859998,869,0.2980957,0.3163452,0.2982788
1603557859998,870,-0.04296875,0.4088745,0.2062378
1603557859999,871,-0.48608398,0.74432373,0.3908081
1603557859999,872,-0.5449219,0.8156128,0.9660034
1603557860000,873,-0.3540039,0.8475952,1.3695679
1603557860000,874,-0.13452148,0.39764404,1.1625366
1603557860001,875,0.0690918,0.3414917,0.9035034
1603557860002,876,0.044921875,0.25286865,0.605896
1603557860002,877,-0.022460938,0.20794678,0.32440186
1603557860003,878,-0.34326172,0.73236084,0.57025146
1603557860003,879,-0.54248047,0.69647217,0.9213257
1603557860004,880,-0.5217285,0.7687378,0.9906616
1603557860005,881,-0.15454102,0.9894409,0.50042725
1603557860006,882,-0.12060547,0.77996826,0.38153076
1603557860006,883,-0.037841797,0.8395386,0.37469482
1603557860006,884,0.33618164,1.2836304,0.602478
1603557860006,885,0.82177734,1.1447144,0.8776245
1603557860007,886,0.9555664,0.7196655,0.82440186
1603557860007,887,0.7993164,0.5656128,0.2267456
1603557860008,888,0.3642578,0.309021,0.18914795
1603557860008,889,0.10083008,0.26190186,0.24871826
1603557860009,890,0.05444336,0.31878662,0.39837646
1603557860010,891,0.067871094,0.78778076,0.9508667
1603557860011,892,0.0043945312,1.0944214,1.2440796
1603557860011,893,-0.12036133,0.70965576,1.350769
1603557860011,894,-0.008056641,0.42938232,0.74139404
1603557860012,895,0.10839844,0.40374756,0.42352295
1603557862617,896,0.25561523,0.5536499,0.2609253
1603557862617,897,0.22631836,0.74383545,0.4508667
1603557862618,898,0.44482422,0.95111084,0.37225342
1603557862620,899,0.6164551,1.1742554,0.79974365
1603557862620,900,0.7512207,1.0917358,0.9845581
1603557862620,901,0.8083496,0.951355,0.7128296
1603557862621,902,0.59277344,0.4533081,0.4557495
1603557862622,903,0.44262695,0.29388428,0.16668701
1603557862623,904,0.10253906,0.27630615,0.09613037
1603557862623,905,-0.05883789,0.45941162,0.4052124
1603557862623,906,0.18115234,0.6766968,0.73553467
1603557862623,907,0.2163086,0.9789429,1.012146
1603557862624,908,0.14160156,0.7194214,0.89105225
1603557862625,909,-0.038330078,0.55145264,0.72576904
1603557862625,910,-0.1328125,0.15447998,0.41693115
1603557862625,911,-0.50805664,0.14129639,0.2633667
1603557862626,912,-1.1369629,0.3480835,0.2999878
1603557862626,913,-1.7028809,0.22723389,0.309021
1603557862627,914,-1.7697754,0.27313232,0.4467163
1603557862627,915,-1.4401855,0.25872803,0.45355225
1603557862629,916,-1.0578613,0.3180542,0.45526123
1603557862630,917,-0.9108887,0.3131714,0.44329834
1603557862630,918,-0.93725586,0.21160889,0.43963623
1603557862630,919,-0.93847656,0.07342529,0.35247803
1603557862630,920,-0.8574219,-0.015686035,0.36419678
1603557862631,921,-0.78515625,0.02557373,0.35565186
1603557862631,922,-0.5522461,0.086364746,0.36761475
1603557862632,923,-0.47436523,0.19134521,0.5031128
1603557862632,924,-0.59594727,0.2748413,0.34222412
1603557862632,925,-0.7397461,0.1696167,0.2897339
1603557862632,926,-0.91430664,0.14227295,0.42816162
1603557862633,927,-1.0476074,0.10491943,0.5861206
1603557865243,928,-0.8869629,0.027282715,0.8139038
1603557865244,929,-0.97021484,-0.031311035,0.7340698
1603557865245,930,-0.7766113,-0.105285645,0.6901245
1603557865246,931,-0.91259766,0.010437012,0.6342163
1603557865248,932,-1.1501465,0.24798584,0.8163452
1603557865249,933,-1.1577148,0.38861084,0.81585693
1603557865249,934,-1.1206055,0.6605835,0.21551514
1603557865249,935,-1.1264648,-0.011779785,0.50823975
1603557865250,936,-0.9313965,-0.6795044,0.8012085
1603557865250,937,-0.87158203,-1.1675415,0.8300171
1603557865251,938,-0.9633789,-0.9656372,0.5387573
1603557865251,939,-1.4440918,-0.24151611,0.59295654
1603557865252,940,-1.3325195,0.26849365,0.3612671
1603557865252,941,-1.1237793,0.56463623,0.5661011
1603557865253,942,-0.8039551,0.8798218,0.8949585
1603557865253,943,-0.6411133,0.6156616,0.90252686
1603557865254,944,-0.8791504,0.11981201,0.8241577
1603557865254,945,-1.0170898,-0.23712158,0.5014038
1603557865254,946,-0.8041992,-0.569397,0.697937
1603557865255,947,-0.73828125,-0.41436768,0.777771
1603557865255,948,-0.7272949,-0.097473145,0.63323975
1603557865256,949,-0.77612305,0.11663818,0.64764404
1603557865256,950,-0.67822266,0.04925537,0.7560425
1603557865257,951,-0.65283203,0.03338623,0.7797241
1603557865257,952,-0.60302734,0.070251465,0.77337646
1603557865258,953,-0.58081055,0.07513428,0.8600464
1603557865258,954,-0.5839844,0.07293701,0.8668823
1603557865258,955,-0.68530273,-0.06793213,0.7094116
1603557865258,956,-0.7541504,-0.15142822,0.57073975
1603557865259,957,-0.8562012,0.105895996,0.5709839
1603557865259,958,-0.76953125,0.098083496,0.5602417
1603557865259,959,-0.80615234,-0.04815674,0.63568115
1603557867869,960,-0.8405762,-0.13287354,0.7379761
1603557867870,961,-0.8352051,0.038757324,0.5507202
1603557867870,962,-0.78100586,0.13031006,0.6129761
1603557867871,963,-0.7895508,0.16448975,0.6942749
1603557867871,964,-0.91918945,0.2592163,0.67596436
1603557867872,965,-0.9206543,0.081726074,0.6461792
1603557867872,966,-0.93847656,0.07318115,0.494812
1603557867873,967,-0.8713379,0.20599365,0.50115967
1603557867874,968,-0.62841797,0.14300537,0.62005615
1603557867875,969,-0.53466797,0.070251465,0.6898804
1603557867875,970,-0.4802246,-0.012268066,0.6637573
1603557867875,971,-0.5004883,0.081726074,0.60980225
1603557867876,972,-0.548584,0.17767334,0.67108154
1603557867876,973,-0.8413086,0.026550293,0.66986084
1603557867877,974,-0.8466797,-0.2156372,0.5043335
1603557867878,975,-0.85302734,-0.30352783,0.2838745
1603557867879,976,-1.1242676,-0.0413208,0.19891357
1603557867879,977,-1.1755371,-0.022521973,0.7645874
1603557867880,978,-0.8276367,-0.085510254,0.79241943
1603557867880,979,-0.8198242,0.10418701,0.684021
1603557867881,980,-0.6833496,0.24945068,0.711853
1603557867881,981,-0.6574707,0.23773193,0.69940186
1603557867882,982,-0.6447754,0.324646,0.6757202
1603557867882,983,-0.53808594,0.35882568,0.74383545
1603557867883,984,-0.5058594,0.34979248,0.7675171
1603557867883,985,-0.5402832,0.35638428,0.7350464
1603557867883,986,-0.6003418,0.30169678,0.70770264
1603557867884,987,-0.6074219,0.2592163,0.7133179
1603557867884,988,-0.64086914,0.20574951,0.71014404
1603557867885,989,-0.6591797,0.24945068,0.6976929
1603557867885,990,-0.72753906,0.22161865,0.6625366
1603557867885,991,-0.7963867,0.2008667,0.6727905
1603557870682,992,-1.2680664,0.066833496,0.619812
1603557870683,993,-1.3215332,-0.14605713,0.14202881
1603557870683,994,-1.2158203,-0.17706299,0.25946045
1603557870684,995,-1.1616211,0.009216309,0.30316162
1603557870684,996,-0.88500977,0.34100342,0.4713745
1603557870685,997,-0.43310547,0.46209717,0.62420654
1603557870686,998,-0.51220703,0.557312,0.8004761
1603557870686,999,-0.8300781,0.4232788,0.6268921
1603557870686,1000,-0.8510742,-0.020812988,0.8656616
1603557870687,1001,-0.57543945,-0.37701416,1.1051636
1603557870688,1002,-0.5698242,-0.2444458,0.87786865
1603557870688,1003,-0.6611328,-0.21588135,0.65130615
1603557870690,1004,-0.7282715,-0.31744385,0.28240967
1603557870690,1005,-1.1179199,-0.19732666,0.109802246
1603557870690,1006,-1.0158691,-0.12701416,0.03387451
1603557870690,1007,-1.230957,0.510437,1.2443237
1603557870690,1008,-0.86743164,0.07513428,0.6664429
1603557870690,1009,-0.88183594,0.04827881,0.4718628
1603557870692,1010,-0.86083984,0.101257324,0.53704834
1603557870692,1011,-0.8544922,0.11785889,0.543396
1603557870692,1012,-0.8779297,0.08416748,0.46746826
1603557870693,1013,-0.8791504,0.1161499,0.47601318
1603557870693,1014,-0.8774414,0.07659912,0.49798584
1603557870693,1015,-0.9182129,0.093444824,0.45281982
1603557870693,1016,-0.94555664,0.14227295,0.4664917
1603557870694,1017,-0.96362305,0.09442139,0.49554443
1603557870694,1018,-0.8671875,0.042419434,0.3546753
1603557870694,1019,-0.6748047,-0.0134887695,0.22528076
1603557870695,1020,-1.1765137,0.23822021,0.37225342
1603557870695,1021,-0.97998047,0.18035889,0.37005615
1603557870695,1022,-1.1088867,0.11639404,0.5475464
1603557870696,1023,-1.4060059,-0.016662598,0.7626343
1603557872931,1024,-1.4777832,-0.10308838,0.5519409
1603557872932,1025,-1.4523926,-0.042541504,0.30999756
1603557872934,1026,-1.2834473,-0.039123535,0.3678589
1603557872935,1027,-1.0300293,-0.017150879,0.3678589
1603557872936,1028,-0.65112305,0.10491943,0.2518921
1603557872936,1029,-0.45483398,0.027770996,0.31072998
1603557872937,1030,-0.28930664,-0.013244629,0.11517334
1603557872939,1031,-0.3671875,0.06121826,0.14422607
1603557872939,1032,-0.64868164,0.2555542,0.2897339
1603557872940,1033,-0.84350586,0.37298584,0.4677124
1603557872940,1034,-0.96875,0.30926514,0.5578003
1603557872940,1035,-0.88427734,0.27215576,0.67962646
1603557872942,1036,-0.69433594,0.26483154,0.7550659
1603557872942,1037,-0.6477051,0.31414795,0.68304443
1603557872942,1038,-0.6633301,0.25579834,0.61053467
1603557872942,1039,-0.93237305,0.03656006,0.5819702
1603557872943,1040,-0.90844727,0.07757568,0.36273193
1603557872943,1041,-0.66625977,0.10784912,0.480896
1603557872943,1042,-0.60595703,0.1618042,0.24310303
1603557872944,1043,-0.71606445,0.11517334,0.13568115
1603557872944,1044,-0.93481445,-0.112854004,0.5531616
1603557872944,1045,-1.013916,-0.36895752,0.7445679
1603557872945,1046,-0.9699707,-0.3237915,0.6222534
1603557872946,1047,-1.5427246,-0.05987549,0.47210693
1603557872946,1048,-1.6757812,-0.2456665,0.49700928
1603557872947,1049,-1.3620605,-0.3809204,0.5236206
1603557872948,1050,-0.82055664,-0.3880005,0.68499756
1603557872948,1051,-0.030517578,0.09661865,0.43328857
1603557872948,1052,-0.029052734,0.59198,0.24822998
1603557872949,1053,-0.7902832,0.4232788,0.25897217
1603557872949,1054,-1.0290527,0.77679443,0.32537842
1603557872949,1055,-0.8955078,0.55926514,0.5126343
1603557875931,1056,-0.84106445,0.33587646,0.46990967
1603557875932,1057,-0.9094238,0.28900146,0.32635498
1603557875933,1058,-0.8288574,0.25579834,0.39715576
1603557875933,1059,-0.8273926,0.401062,0.4616089
1603557875933,1060,-0.8273926,0.4393921,0.45477295
1603557875934,1061,-0.79663086,0.26239014,0.5392456
1603557875934,1062,-0.77685547,0.28240967,0.5961304
1603557875935,1063,-0.79663086,0.23040771,0.49310303
1603557875936,1064,-0.8859863,0.18133545,0.5775757
1603557875936,1065,-0.78222656,0.13446045,0.45257568
1603557875937,1066,-0.78393555,0.20062256,0.43572998
1603557875938,1067,-1.0195312,0.30047607,0.43865967
1603557875938,1068,-0.8762207,0.3209839,0.39056396
1603557875939,1069,-0.8586426,0.2579956,0.35809326
1603557875939,1070,-0.97387695,0.32269287,0.26727295
1603557875940,1071,-0.89282227,0.33636475,0.32073975
1603557875941,1072,-0.8901367,0.27679443,0.2501831
1603557875941,1073,-0.84814453,0.20526123,0.3685913
1603557875941,1074,-0.9399414,0.27508545,0.36273193
1603557875941,1075,-0.93310547,0.19622803,0.37908936
1603557875942,1076,-0.7692871,0.11810303,0.37860107
1603557875942,1077,-0.8864746,0.3475952,0.5223999
1603557875942,1078,-0.87939453,0.19696045,0.3583374
1603557875943,1079,-0.89746094,0.24090576,0.32073975
1603557875944,1080,-1.0026855,0.5824585,0.4237671
1603557875944,1081,-0.9050293,0.4562378,0.29119873
1603557875945,1082,-0.87719727,0.38031006,0.3361206
1603557875945,1083,-0.9633789,0.30804443,0.16326904
1603557875946,1084,-0.97094727,0.32122803,0.2423706
1603557875947,1085,-0.9797363,0.33416748,0.28631592
1603557875947,1086,-0.8562012,0.27557373,0.29632568
1603557875947,1087,-0.8989258,0.2880249,0.354187
1603557878180,1088,-0.8857422,0.37005615,0.38275146
1603557878181,1089,-0.861084,0.38250732,0.30706787
1603557878181,1090,-0.8574219,0.41888428,0.2831421
1603557878181,1091,-0.94799805,0.5014038,0.30511475
1603557878186,1092,-0.8156738,0.4093628,0.25701904
1603557878188,1093,-0.9165039,0.47869873,0.27972412
1603557878188,1094,-0.8520508,0.43450928,0.2975464
1603557878188,1095,-0.98291016,0.401062,0.31658936
1603557878188,1096,-0.85791016,0.39105225,0.27020264
1603557878188,1097,-0.81469727,0.37542725,0.4755249
1603557878188,1098,-0.76904297,0.4508667,0.5685425
1603557878189,1099,-0.66918945,0.55389404,0.52459717
1603557878189,1100,-0.80322266,-0.17193604,0.2555542
1603557878189,1101,-0.8408203,0.23773193,0.62176514
1603557878190,1102,-0.9033203,0.55633545,0.5939331
1603557878191,1103,-0.6333008,0.4286499,0.59661865
1603557878192,1104,-0.6748047,0.463562,0.60491943
1603557878192,1105,-0.64453125,0.40618896,0.59490967
1603557878192,1106,-0.77197266,0.4743042,0.48431396
1603557878192,1107,-0.7319336,0.40594482,0.48382568
1603557878193,1108,-0.76220703,0.39764404,0.49798584
1603557878193,1109,-0.74194336,0.4430542,0.5639038
1603557878194,1110,-0.71240234,0.4015503,0.52093506
1603557878195,1111,-0.7595215,0.44647217,0.5204468
1603557878195,1112,-0.67578125,0.3788452,0.5951538
1603557878195,1113,-0.6738281,0.3739624,0.67181396
1603557878196,1114,-0.6767578,0.39154053,0.57733154
1603557878196,1115,-0.60839844,0.30340576,0.68963623
1603557878196,1116,-0.6789551,0.3571167,0.6124878
1603557878197,1117,-0.6723633,0.43011475,0.6347046
1603557878197,1118,-0.7219238,0.46429443,0.5878296
1603557878197,1119,-0.7043457,0.33099365,0.5529175
1603557880807,1120,-0.67993164,0.23895264,0.5675659
1603557880808,1121,-0.7927246,0.27801514,0.51678467
1603557880809,1122,-0.8312988,0.32562256,0.54364014
1603557880810,1123,-0.6796875,0.26556396,0.5973511
1603557880810,1124,-0.80810547,0.3522339,0.6046753
1603557880811,1125,-0.7265625,0.28582764,0.5739136
1603557880811,1126,-0.73461914,0.28289795,0.559021
1603557880811,1127,-0.71875,0.3258667,0.60150146
1603557880812,1128,-0.7277832,0.3287964,0.65008545
1603557880813,1129,-0.6867676,0.29632568,0.62493896
1603557880813,1130,-0.7492676,0.31658936,0.60272217
1603557880814,1131,-0.7080078,0.25872803,0.6273804
1603557880815,1132,-0.7531738,0.26849365,0.49945068
1603557880815,1133,-0.7866211,0.24847412,0.5531616
1603557880816,1134,-0.7937012,0.29901123,0.6185913
1603557880816,1135,-0.7182617,0.2682495,0.56414795
1603557880816,1136,-0.70703125,0.3143921,0.67230225
1603557880817,1137,-0.7067871,0.29486084,0.68573
1603557880817,1138,-0.6936035,0.28118896,0.5866089
1603557880818,1139,-0.689209,0.22015381,0.70428467
1603557880818,1140,-0.6672363,0.20892334,0.5465698
1603557880818,1141,-0.6621094,0.27996826,0.6408081
1603557880819,1142,-0.79833984,0.3817749,0.65179443
1603557880819,1143,-0.71728516,0.39031982,0.61151123
1603557880819,1144,-0.60253906,0.262146,0.64349365
1603557880820,1145,-0.7302246,0.30169678,0.67523193
1603557880821,1146,-0.70214844,0.2658081,0.65618896
1603557880821,1147,-0.6533203,0.20184326,0.5084839
1603557880822,1148,-0.7775879,0.33441162,0.6774292
1603557880822,1149,-0.6557617,0.3234253,0.65008545
1603557880822,1150,-0.6694336,0.30975342,0.63739014
1603557880822,1151,-0.73291016,0.2819214,0.66082764
1603557883620,1152,-0.6508789,0.1786499,0.6708374
1603557883621,1153,-0.7219238,0.25750732,0.7055054
1603557883621,1154,-0.6594238,0.30218506,0.72772217
1603557883622,1155,-0.5957031,0.22723389,0.65496826
1603557883622,1156,-0.7873535,0.28240967,0.65057373
1603557883623,1157,-0.7355957,0.215271,0.5922241
1603557883624,1158,-0.73291016,0.17059326,0.5951538
1603557883624,1159,-0.8339844,0.124694824,0.5741577
1603557883625,1160,-0.74072266,0.1708374,0.54974365
1603557883626,1161,-0.7180176,0.25653076,0.59661865
1603557883626,1162,-0.72631836,0.3114624,0.6630249
1603557883627,1163,-0.8010254,0.28485107,0.63690186
1603557883627,1164,-0.6904297,0.24359131,0.5934448
1603557883628,1165,-0.82958984,0.21624756,0.5626831
1603557883629,1166,-0.6501465,0.15179443,0.53045654
1603557883629,1167,-0.7836914,0.16546631,0.63446045
1603557883630,1168,-0.8017578,0.23284912,0.618103
1603557883630,1169,-0.7619629,0.19671631,0.60858154
1603557883630,1170,-0.75683594,0.23016357,0.588562
1603557883631,1171,-0.7416992,0.28094482,0.6281128
1603557883631,1172,-0.7858887,0.293396,0.55145264
1603557883631,1173,-0.7702637,0.3373413,0.5890503
1603557883631,1174,-0.7145996,0.21160889,0.62054443
1603557883632,1175,-0.7927246,0.19378662,0.6000366
1603557883632,1176,-0.82543945,0.15667725,0.5465698
1603557883633,1177,-0.77856445,0.14593506,0.54315186
1603557883633,1178,-0.8137207,0.1564331,0.59002686
1603557883633,1179,-0.85180664,0.1642456,0.5463257
1603557883634,1180,-0.8312988,0.13909912,0.576355
1603557883634,1181,-0.842041,0.15496826,0.571228
1603557883635,1182,-0.9411621,0.20648193,0.6552124
1603557883635,1183,-0.9645996,-0.042785645,0.70721436
1603557885870,1184,-1.0195312,-0.12384033,0.6102905
1603557885870,1185,-0.90649414,-0.21832275,0.37469482
1603557885871,1186,-0.78515625,-0.18878174,0.31463623
1603557885871,1187,-0.81933594,-0.09698486,0.3270874
1603557885872,1188,-0.94677734,0.023376465,0.31756592
1603557885873,1189,-0.9890137,0.13031006,0.32513428
1603557885873,1190,-1.0888672,0.22259521,0.38568115
1603557885874,1191,-1.0661621,0.23895264,0.39569092
1603557885875,1192,-0.91918945,0.29071045,0.42962646
1603557885875,1193,-0.94799805,0.25506592,0.44281006
1603557885876,1194,-0.984375,0.24481201,0.3661499
1603557885876,1195,-1.0581055,0.22015381,0.30950928
1603557885877,1196,-1.0673828,0.14715576,0.27435303
1603557885878,1197,-0.9963379,0.08905029,0.25482178
1603557885879,1198,-1.199707,-0.035217285,0.18890381
1603557885879,1199,-1.1054688,0.030944824,0.10418701
1603557885879,1200,-0.9831543,-0.0095825195,-0.0020141602
1603557885880,1201,-0.93188477,0.059753418,-0.07305908
1603557885880,1202,-1.1347656,0.17523193,-0.006164551
1603557885881,1203,-1.2365723,0.17010498,0.09075928
1603557885881,1204,-1.2092285,0.08050537,0.07684326
1603557885881,1205,-1.001709,-0.16998291,-0.10455322
1603557885882,1206,-0.99609375,-0.25689697,-0.044006348
1603557885882,1207,-1.1474609,-0.2617798,-0.066467285
1603557885883,1208,-1.076416,-0.11260986,0.01727295
1603557885883,1209,-1.0061035,-0.10040283,0.029724121
1603557885884,1210,-0.9472656,-0.12579346,-0.11578369
1603557885885,1211,-1.0141602,-0.20391846,-0.049621582
1603557885885,1212,-0.91430664,-0.4710083,-0.2234497
1603557885886,1213,-0.8696289,-0.489563,-0.17584229
1603557885886,1214,-0.8256836,-0.5828247,-0.26324463
1603557885887,1215,-0.9460449,-0.5239868,-0.21002197
1603557888495,1216,-0.88061523,-0.48638916,-0.16778564
1603557888495,1217,-0.8857422,-0.45880127,-0.21392822
1603557888496,1218,-0.85424805,-0.43243408,-0.22320557
1603557888497,1219,-0.88623047,-0.3916626,-0.3184204
1603557888498,1220,-0.9880371,-0.39019775,-0.17877197
1603557888499,1221,-1.1469727,-0.28399658,-0.07720947
1603557888500,1222,-1.123291,-0.16192627,0.28363037
1603557888500,1223,-0.7402344,-0.2210083,-0.20562744
1603557888501,1224,-1.3256836,-0.36114502,0.12884521
1603557888501,1225,-1.1330566,0.00579834,0.10345459
1603557888502,1226,-0.96484375,0.10394287,0.23187256
1603557888503,1227,-0.89282227,0.19110107,0.3505249
1603557888503,1228,-0.84033203,0.36663818,0.5199585
1603557888503,1229,-0.6298828,0.41497803,0.6581421
1603557888504,1230,-0.48486328,0.29193115,0.67718506
1603557888505,1231,-0.38598633,0.2789917,0.9574585
1603557888505,1232,-0.28979492,0.1708374,0.98236084
1603557888505,1233,-0.24291992,0.3517456,0.7719116
1603557888505,1234,0.014404297,0.21258545,0.9266968
1603557888506,1235,-0.099365234,0.26361084,0.8563843
1603557888506,1236,-0.14282227,0.28045654,0.87908936
1603557888507,1237,-0.17626953,0.30047607,0.9125366
1603557888507,1238,-0.13208008,0.1437378,0.89056396
1603557888508,1239,-0.11743164,0.26116943,0.8734741
1603557888508,1240,-0.041992188,0.18206787,0.8973999
1603557888509,1241,-0.15942383,0.070007324,0.95306396
1603557888509,1242,-0.55371094,0.309021,0.8341675
1603557888509,1243,-0.49389648,-0.0056762695,0.76068115
1603557888510,1244,-0.5131836,0.17889404,0.7914429
1603557888510,1245,-0.7890625,0.20257568,0.65423584
1603557888510,1246,-0.8088379,0.24212646,0.57806396
1603557888511,1247,-0.83447266,0.20306396,0.43255615
1603557891304,1248,-0.9733887,0.22894287,0.19256592
1603557891304,1249,-1.0996094,0.22454834,-0.08331299
1603557891305,1250,-1.2941895,0.25408936,-0.06793213
1603557891306,1251,-0.7319336,0.070007324,0.101501465
1603557891306,1252,-1.4716797,0.21820068,0.36688232
1603557891307,1253,-1.4682617,-0.13824463,-0.15118408
1603557891307,1254,-1.2097168,-0.22589111,-0.085998535
1603557891308,1255,-0.94311523,-0.00592041,0.3222046
1603557891308,1256,-0.8745117,-0.04815674,0.19573975
1603557891310,1257,-0.7636719,-0.049621582,0.20721436
1603557891310,1258,-0.6123047,0.0033569336,0.21380615
1603557891310,1259,-0.60131836,0.04852295,0.24066162
1603557891311,1260,-0.7373047,0.090270996,0.3143921
1603557891312,1261,-1.0241699,0.16229248,0.4064331
1603557891312,1262,-1.4042969,0.2477417,0.6942749
1603557891312,1263,-1.1359863,0.10272217,0.5204468
1603557891312,1264,-1.0722656,0.16033936,0.4899292
1603557891313,1265,-1.0681152,0.15228271,0.47943115
1603557891314,1266,-1.0524902,0.09710693,0.32928467
1603557891314,1267,-0.9897461,0.1305542,0.21429443
1603557891315,1268,-0.8828125,0.1227417,0.2189331
1603557891315,1269,-0.7873535,0.11126709,0.20428467
1603557891315,1270,-0.8520508,0.10736084,0.22454834
1603557891316,1271,-1.0002441,0.13372803,0.31536865
1603557891317,1272,-0.99658203,0.12542725,0.41815186
1603557891317,1273,-1.1328125,0.13690186,0.31610107
1603557891318,1274,-1.0231934,0.28997803,0.40203857
1603557891319,1275,-0.94921875,0.262146,0.47113037
1603557891319,1276,-0.8691406,0.16033936,0.5182495
1603557891319,1277,-0.97680664,0.12664795,0.58709717
1603557891319,1278,-1.2626953,0.058776855,0.5717163
1603557891320,1279,-1.1347656,0.061706543,0.4586792
1603557893725,1280,-1.2116699,-7.9345703E-4,0.291687
1603557893726,1281,-1.0822754,0.035583496,0.17449951
1603557893726,1282,-0.814209,0.12591553,0.10394287
1603557893727,1283,-0.74194336,0.13323975,0.12591553
1603557893728,1284,-0.8251953,0.15130615,0.1552124
1603557893728,1285,-1.1662598,0.1539917,0.1671753
1603557893730,1286,-1.269043,0.31292725,0.24066162
1603557893730,1287,-1.1625977,0.2616577,0.38641357
1603557893731,1288,-1.1091309,0.19671631,0.29412842
1603557893731,1289,-0.9621582,0.30999756,0.45916748
1603557893731,1290,-0.96240234,0.17816162,0.5031128
1603557893731,1291,-0.99902344,0.13031006,0.50286865
1603557893732,1292,-0.98876953,0.07098389,0.49676514
1603557893733,1293,-0.9313965,0.03363037,0.42718506
1603557893733,1294,-0.857666,0.039978027,0.36102295
1603557893733,1295,-0.8154297,0.07269287,0.3480835
1603557893733,1296,-0.7819824,0.12567139,0.34344482
1603557893733,1297,-0.8466797,0.15203857,0.3781128
1603557893734,1298,-0.9592285,0.17767334,0.43475342
1603557893734,1299,-0.97631836,0.1876831,0.48724365
1603557893734,1300,-1.0786133,0.17572021,0.5541382
1603557893735,1301,-1.1123047,0.14056396,0.5553589
1603557893735,1302,-1.1489258,0.11663818,0.5375366
1603557893736,1303,-1.019043,0.089538574,0.3793335
1603557893736,1304,-0.9772949,0.11248779,0.27337646
1603557893737,1305,-0.8508301,0.15106201,0.19329834
1603557893737,1306,-0.84155273,0.14935303,0.1408081
1603557893737,1307,-0.79711914,0.15765381,0.17547607
1603557893738,1308,-0.83496094,0.12249756,0.27874756
1603557893738,1309,-1.0102539,0.12030029,0.38616943
1603557893738,1310,-1.2419434,0.13128662,0.53167725
1603557893738,1311,-0.9855957,0.14129639,0.5770874
1603557896368,1312,-1.0224609,0.13372803,0.41741943
1603557896369,1313,-0.9663086,0.27508545,0.37054443
1603557896370,1314,-0.873291,0.24090576,0.36175537
1603557896370,1315,-0.80249023,0.1749878,0.3859253
1603557896371,1316,-0.80078125,0.11126709,0.46331787
1603557896372,1317,-0.92211914,0.08343506,0.4772339
1603557896373,1318,-1.0891113,0.14154053,0.48529053
1603557896373,1319,-1.1809082,0.16546631,0.56073
1603557896374,1320,-1.0959473,0.08831787,0.34710693
1603557896375,1321,-0.9938965,0.17303467,0.3143921
1603557896375,1322,-0.8925781,0.25701904,0.30828857
1603557896375,1323,-0.82055664,0.3690796,0.24163818
1603557896376,1324,-0.61938477,0.385437,0.31072998
1603557896376,1325,-0.62597656,0.43621826,0.36346436
1603557896376,1326,-0.67041016,0.42401123,0.34344482
1603557896377,1327,-0.7922363,0.48114014,0.41131592
1603557896377,1328,-0.78881836,0.72821045,0.5790405
1603557896378,1329,-0.67407227,0.5968628,0.5023804
1603557896378,1330,-0.7487793,0.6190796,0.43060303
1603557896379,1331,-0.5703125,0.55511475,0.4064331
1603557896379,1332,-0.48828125,0.5697632,0.43304443
1603557896380,1333,-0.49804688,0.56463623,0.47528076
1603557896380,1334,-0.61621094,0.63079834,0.5668335
1603557896380,1335,-0.6542969,0.63397217,0.5282593
1603557896381,1336,-0.7961426,0.5529175,0.49066162
1603557896381,1337,-0.86035156,0.49334717,0.5145874
1603557896382,1338,-0.9628906,0.50653076,0.80023193
1603557896382,1339,-0.92333984,0.74139404,1.7721558
1603557896382,1340,-0.28735352,0.74017334,1.2216187
1603557896382,1341,-0.10253906,0.8488159,0.7399292
1603557896383,1342,-0.033691406,0.7328491,0.057800293
1603557896384,1343,0.091796875,0.49139404,-0.12188721
1603557898807,1344,0.041748047,-0.08477783,0.2970581
1603557898808,1345,-0.025390625,-0.38043213,0.6884155
1603557898808,1346,0.07543945,-0.56451416,-0.3418579
1603557898809,1347,-0.07861328,0.9437866,-1.2051392
1603557898810,1348,-0.20019531,1.999939,0.10784912
1603557898810,1349,0.18969727,1.6976929,-0.030334473
1603557898811,1350,0.53686523,0.98187256,-0.7271118
1603557898811,1351,0.1784668,1.0448608,-0.15826416
1603557898811,1352,0.21386719,0.7938843,-0.43951416
1603557898812,1353,0.17749023,0.9437866,-0.17559814
1603557898812,1354,-0.6369629,1.0956421,0.2555542
1603557898812,1355,-0.44726562,0.5385132,0.22381592
1603557898813,1356,0.14794922,0.71502686,-0.6838989
1603557898813,1357,-0.16674805,1.2611694,-0.32305908
1603557898815,1358,-0.26660156,0.8829956,0.28167725
1603557898815,1359,-0.19628906,1.2335815,0.013366699
1603557898815,1360,-0.34472656,1.104187,0.3937378
1603557898815,1361,-0.0048828125,0.86639404,0.37078857
1603557898816,1362,0.1303711,0.27996826,0.43011475
1603557898817,1363,-0.38964844,0.32904053,-0.0134887695
1603557898817,1364,-1.3696289,0.56903076,0.07269287
1603557898817,1365,-1.5991211,0.09832764,0.7003784
1603557898817,1366,-1.0859375,0.24993896,0.6442261
1603557898818,1367,-0.7241211,0.68621826,0.7379761
1603557898818,1368,-0.55688477,0.9633179,0.69403076
1603557898819,1369,-0.31811523,0.79559326,0.44573975
1603557898819,1370,-0.32983398,0.8151245,0.32757568
1603557898819,1371,-0.58862305,0.8690796,0.38079834
1603557898819,1372,-0.4494629,0.74993896,0.29437256
1603557898820,1373,-0.33007812,0.8300171,0.10003662
1603557898820,1374,-0.39257812,0.88079834,-0.1104126
1603557898820,1375,-0.46679688,0.947937,-0.16046143
1603557901433,1376,-0.40820312,0.9735718,-0.11920166
1603557901434,1377,-0.22924805,0.8641968,0.12982178
1603557901434,1378,-0.16113281,0.8864136,0.29266357
1603557901436,1379,-0.20825195,0.98724365,0.1762085
1603557901438,1380,-0.32739258,0.8986206,0.17718506
1603557901439,1381,-0.3269043,0.6300659,0.2699585
1603557901440,1382,-0.3527832,0.7404175,0.2748413
1603557901441,1383,-0.47387695,0.94036865,0.53900146
1603557901442,1384,-0.5930176,0.777771,0.50994873
1603557901442,1385,-0.76586914,0.58148193,0.4899292
1603557901442,1386,-0.7546387,0.36297607,0.45135498
1603557901442,1387,-0.7648926,0.19085693,0.37200928
1603557901443,1388,-0.78515625,0.17791748,0.25872803
1603557901444,1389,-0.96069336,0.17523193,0.24310303
1603557901444,1390,-1.244873,0.21868896,0.23846436
1603557901445,1391,-1.6555176,0.3475952,0.33685303
1603557901445,1392,-1.3603516,0.30706787,0.3102417
1603557901445,1393,-1.0227051,0.3085327,0.32489014
1603557901446,1394,-0.82421875,0.27215576,0.23309326
1603557901446,1395,-0.8251953,0.24554443,0.28729248
1603557901447,1396,-1.0136719,0.20501709,0.37445068
1603557901447,1397,-0.96850586,0.09906006,0.37078857
1603557901448,1398,-0.8947754,0.11468506,0.35784912
1603557901448,1399,-0.89697266,0.11199951,0.37860107
1603557901448,1400,-1.0771484,0.15106201,0.48114014
1603557901449,1401,-0.7849121,0.2772827,0.4862671
1603557901449,1402,-1.067627,0.15545654,0.35101318
1603557901451,1403,-0.95825195,0.31707764,0.2670288
1603557901451,1404,-0.96533203,0.26239014,0.2489624
1603557901451,1405,-0.9543457,0.20965576,0.24798584
1603557901451,1406,-0.9296875,0.20379639,0.2645874
1603557901451,1407,-1.1755371,0.14398193,0.25115967
1603557904242,1408,-1.2016602,0.18670654,0.2633667
1603557904243,1409,-1.0957031,0.14764404,0.20159912
1603557904243,1410,-0.9897461,0.13787842,0.1642456
1603557904244,1411,-0.89819336,0.14959717,0.11859131
1603557904244,1412,-0.91137695,0.15447998,0.09124756
1603557904245,1413,-0.97924805,0.16375732,0.15838623
1603557904246,1414,-0.97509766,0.15985107,0.25506592
1603557904246,1415,-1.0524902,0.109313965,0.2670288
1603557904246,1416,-1.1176758,0.18841553,0.28656006
1603557904248,1417,-1.0224609,0.23602295,0.36688232
1603557904248,1418,-0.9748535,0.17938232,0.40911865
1603557904248,1419,-1.0004883,0.12908936,0.3842163
1603557904248,1420,-0.92700195,0.12249756,0.40301514
1603557904249,1421,-0.84521484,0.014343262,0.40740967
1603557904249,1422,-0.95751953,-0.02154541,0.3768921
1603557904249,1423,-0.8930664,0.070495605,0.3180542
1603557904250,1424,-0.8757324,0.117370605,0.3065796
1603557904250,1425,-0.9836426,0.13397217,0.30145264
1603557904250,1426,-0.98876953,0.17230225,0.2897339
1603557904251,1427,-1.0083008,0.17327881,0.309021
1603557904251,1428,-1.0063477,0.14324951,0.29852295
1603557904252,1429,-0.9597168,0.15814209,0.30316162
1603557904253,1430,-0.98168945,0.1486206,0.30706787
1603557904253,1431,-0.9790039,0.17718506,0.3168335
1603557904253,1432,-0.90771484,0.16937256,0.32513428
1603557904253,1433,-0.91430664,0.152771,0.34466553
1603557904253,1434,-0.9519043,0.1630249,0.3678589
1603557904254,1435,-0.9614258,0.1564331,0.37591553
1603557904255,1436,-0.94189453,0.14593506,0.35516357
1603557904255,1437,-0.9453125,0.16448975,0.32806396
1603557904255,1438,-0.9592285,0.18328857,0.32000732
1603557904255,1439,-0.939209,0.17132568,0.31707764
1603557906680,1440,-0.9333496,0.16082764,0.30413818
1603557906681,1441,-0.9362793,0.15765381,0.3053589
1603557906681,1442,-0.9523926,0.1539917,0.32440186
1603557906683,1443,-0.9692383,0.15863037,0.3295288
1603557906683,1444,-0.9770508,0.15692139,0.3348999
1603557906684,1445,-0.96850586,0.16497803,0.33294678
1603557906684,1446,-0.9941406,0.20233154,0.3361206
1603557906684,1447,-0.99975586,0.2975464,0.4069214
1603557906684,1448,-1.0334473,0.5060425,0.47747803
1603557906684,1449,-1.0158691,0.71502686,0.6102905
1603557906685,1450,-0.7258301,0.7814331,0.6437378
1603557906686,1451,-0.25048828,0.5289917,0.46990967
1603557906686,1452,-7.324219E-4,0.36297607,0.29730225
1603557906686,1453,0.06225586,0.49945068,0.3180542
1603557906687,1454,-0.04248047,0.6881714,0.48406982
1603557906687,1455,0.056152344,0.69281006,0.4491577
1603557906688,1456,0.053955078,0.7374878,0.4159546
1603557906688,1457,0.19311523,0.8287964,0.36151123
1603557906690,1458,0.24145508,0.82562256,0.38006592
1603557906690,1459,0.1381836,0.8883667,0.39715576
1603557906690,1460,-0.033935547,0.9262085,0.40057373
1603557906691,1461,-0.16259766,0.8798218,0.37322998
1603557906691,1462,-0.39526367,0.8600464,0.33880615
1603557906692,1463,-0.54785156,0.74554443,0.3007202
1603557906692,1464,-0.6604004,0.6449585,0.36566162
1603557906692,1465,-0.7739258,0.66326904,0.38323975
1603557906693,1466,-0.70581055,0.7418823,0.31829834
1603557906693,1467,-0.6352539,0.7369995,0.26483154
1603557906693,1468,-0.67285156,0.7225952,0.21307373
1603557906694,1469,-0.7092285,0.963562,0.29803467
1603557906694,1470,-0.6904297,0.65740967,0.2333374
1603557906695,1471,-0.7026367,0.6720581,0.3348999
