# Sensor position: Chest
# Sensor side: Right
# Activity type: Movement
# Activity code: 9
# Subject id: s1710228
timestamp,seq,accel_x,accel_y,accel_z
1603558484366,0,-0.011230469,-0.9573364,0.04925537
1603558484366,1,0.041748047,-1.0317993,0.043640137
1603558484368,2,0.07861328,-0.9890747,0.03338623
1603558484368,3,0.09423828,-1.0015259,0.046813965
1603558484370,4,0.032958984,-1.0278931,0.027282715
1603558484370,5,0.1159668,-1.0274048,0.08050537
1603558484370,6,0.05444336,-0.9951782,0.022888184
1603558484371,7,0.06518555,-1.0071411,0.04437256
1603558484372,8,0.08544922,-1.0256958,0.051940918
1603558484372,9,0.05493164,-1.0159302,0.04901123
1603558484373,10,0.06933594,-1.0115356,0.043640137
1603558484373,11,0.06640625,-1.0108032,0.035339355
1603558484374,12,0.07373047,-1.0117798,0.031188965
1603558484374,13,0.059570312,-1.0073853,0.019714355
1603558484375,14,0.0690918,-1.0256958,0.0033569336
1603558484375,15,0.061523438,-1.0005493,-0.008361816
1603558484376,16,0.099853516,-1.0401001,-0.027404785
1603558484376,17,0.067871094,-1.0147095,-0.027160645
1603558484377,18,0.08105469,-1.0061646,-0.07183838
1603558484377,19,0.0871582,-1.0281372,-0.090148926
1603558484378,20,0.07128906,-0.99664307,-0.124572754
1603558484378,21,0.048828125,-0.9841919,-0.14434814
1603558484379,22,-0.00390625,-0.956604,-0.18609619
1603558484380,23,-0.13354492,-0.96173096,-0.1765747
1603558484380,24,-0.19384766,-0.9956665,-0.026184082
1603558484380,25,-0.22949219,-1.1326294,0.022155762
1603558484381,26,-0.35351562,-0.8657837,-0.057434082
1603558484381,27,-0.35595703,-0.8291626,-0.13800049
1603558484382,28,-0.35302734,-0.76226807,-0.26202393
1603558484382,29,-0.44384766,-0.75177,-0.534729
1603558484383,30,-0.34033203,-0.98687744,-0.4319458
1603558484383,31,-0.41308594,-0.7276001,-0.46954346
1603558486989,32,-0.40673828,-0.9351196,-0.41363525
1603558486990,33,-0.39233398,-0.8587036,-0.42266846
1603558486990,34,-0.39746094,-0.86920166,-0.43585205
1603558486991,35,-0.46240234,-1.0613403,-0.3665161
1603558486991,36,-0.6809082,-1.6277466,-0.28936768
1603558486992,37,-0.07421875,-0.93170166,0.015563965
1603558486993,38,-0.2175293,-0.5701294,0.11517334
1603558486993,39,-0.08154297,-1.3259888,0.23187256
1603558486993,40,0.026367188,-0.7966919,0.2850952
1603558486994,41,0.06323242,-1.0254517,0.37908936
1603558486995,42,0.1965332,-0.79107666,0.29803467
1603558486995,43,0.13256836,-0.98321533,0.39300537
1603558486996,44,0.18701172,-0.86553955,0.41278076
1603558486996,45,0.12646484,-0.8909302,0.40496826
1603558486998,46,0.1105957,-0.8897095,0.3727417
1603558486998,47,0.10498047,-0.8743286,0.38616943
1603558486999,48,0.05810547,-0.9031372,0.42596436
1603558487001,49,0.11303711,-0.927063,0.35906982
1603558487002,50,0.06738281,-0.97369385,0.29241943
1603558487002,51,0.041259766,-0.93585205,0.17376709
1603558487002,52,-0.07885742,-0.93536377,0.08514404
1603558487002,53,-0.22021484,-1.0930786,0.038024902
1603558487003,54,-0.09448242,-1.1008911,-0.2041626
1603558487003,55,-0.31591797,-1.1192017,-0.38824463
1603558487004,56,-0.49487305,-1.190979,-0.6314087
1603558487004,57,-0.40527344,-1.1511841,-0.65411377
1603558487004,58,-0.39916992,-1.1223755,-0.5418091
1603558487005,59,-0.3881836,-0.7283325,-0.4319458
1603558487005,60,-0.19091797,-0.81451416,-0.38970947
1603558487006,61,-0.21777344,-0.7930298,-0.3262329
1603558487006,62,-0.14086914,-0.6499634,-0.3032837
1603558487007,63,-0.06347656,-0.7529907,-0.394104
1603558489616,64,-0.2084961,-0.9956665,-0.18511963
1603558489619,65,-0.16479492,-0.7359009,-0.036193848
1603558489620,66,-0.06518555,-1.3174438,0.11859131
1603558489620,67,-0.12573242,-0.78790283,0.09222412
1603558489620,68,-0.21533203,-1.0510864,0.031921387
1603558489620,69,0.009765625,-1.0999146,-0.06500244
1603558489621,70,-0.18530273,-0.9348755,-0.011047363
1603558489621,71,-0.011230469,-0.9944458,-0.12335205
1603558489622,72,-0.10961914,-1.0984497,-0.15362549
1603558489623,73,-0.037109375,-0.97076416,-0.24908447
1603558489623,74,-0.07714844,-1.0891724,-0.23077393
1603558489624,75,-0.038085938,-1.0181274,-0.24908447
1603558489625,76,-0.08984375,-0.95977783,-0.28326416
1603558489626,77,-0.17651367,-0.95391846,-0.24298096
1603558489626,78,-0.33032227,-1.0515747,-0.047180176
1603558489627,79,-0.16894531,-1.0496216,0.050720215
1603558489628,80,-0.20458984,-0.8335571,-0.06890869
1603558489628,81,-0.28100586,-0.8233032,-0.0491333
1603558489629,82,-0.35205078,-0.62579346,-0.11407471
1603558489630,83,-0.34155273,-0.6030884,-0.28424072
1603558489630,84,-0.33007812,-0.93170166,-0.42144775
1603558489631,85,-0.49536133,-1.0186157,-0.40045166
1603558489631,86,-0.4038086,-1.0535278,-0.48345947
1603558489631,87,-0.56640625,-1.1304321,-0.40264893
1603558489632,88,-0.38964844,-1.078186,-0.32720947
1603558489633,89,-0.44555664,-1.5003052,-0.28936768
1603558489635,90,-0.10229492,-0.81427,0.043640137
1603558489635,91,-0.030761719,-0.753479,0.018493652
1603558489635,92,-0.107421875,-1.2918091,0.16400146
1603558489635,93,0.084472656,-0.89801025,0.25653076
1603558489635,94,0.064453125,-0.8855591,0.3685913
1603558489636,95,0.1965332,-0.9204712,0.34051514
1603558492242,96,0.08642578,-0.9151001,0.40545654
1603558492242,97,0.12011719,-0.88067627,0.35858154
1603558492243,98,0.11987305,-0.90460205,0.4088745
1603558492244,99,0.13916016,-0.8418579,0.3949585
1603558492244,100,0.048828125,-0.9368286,0.44378662
1603558492247,101,0.1616211,-0.87091064,0.39300537
1603558492248,102,0.033691406,-0.9631958,0.22698975
1603558492248,103,-0.07055664,-0.96343994,0.08392334
1603558492249,104,-0.265625,-1.0383911,-0.016174316
1603558492249,105,-0.23657227,-0.95562744,-0.22174072
1603558492250,106,-0.4086914,-1.1521606,-0.45269775
1603558492251,107,-0.52978516,-1.321106,-0.5960083
1603558492251,108,-0.46850586,-0.9866333,-0.6062622
1603558492251,109,-0.42358398,-0.9522095,-0.5142212
1603558492251,110,-0.4338379,-0.85650635,-0.4902954
1603558492252,111,-0.27954102,-0.90093994,-0.4631958
1603558492252,112,-0.1538086,-0.74224854,-0.2991333
1603558492253,113,-0.0925293,-0.5628052,-0.30377197
1603558492253,114,-0.13476562,-0.85943604,-0.27227783
1603558492254,115,0.051513672,-0.9483032,-0.13848877
1603558492255,116,-0.076171875,-1.1355591,-0.12554932
1603558492255,117,-0.3618164,-1.0669556,-0.0713501
1603558492255,118,-0.13647461,-0.96173096,-0.10845947
1603558492256,119,-0.17651367,-0.99835205,0.015319824
1603558492257,120,-0.0029296875,-0.8447876,0.10614014
1603558492257,121,-0.012939453,-0.8713989,0.121520996
1603558492257,122,0.0068359375,-1.0327759,0.15545654
1603558492257,123,0.014404297,-1.0239868,0.16033936
1603558492257,124,0.2409668,-1.1414185,0.01361084
1603558492257,125,-0.103515625,-1.2324829,-0.1831665
1603558492258,126,0.20898438,-0.9102173,-0.06793213
1603558492258,127,0.11206055,-1.0110474,-0.2666626
1603558495242,128,0.18579102,-0.96881104,-0.22125244
1603558495243,129,0.059326172,-1.0130005,-0.23150635
1603558495244,130,0.09106445,-1.0535278,-0.21221924
1603558495245,131,0.056152344,-1.0664673,-0.11553955
1603558495245,132,0.07763672,-0.9819946,-0.07525635
1603558495246,133,0.076171875,-1.0188599,-0.034729004
1603558495247,134,0.19604492,-0.9373169,-0.012756348
1603558495248,135,0.1340332,-1.039856,0.005065918
1603558495248,136,0.09765625,-1.1936646,0.08270264
1603558495248,137,-0.05444336,-1.085022,-0.066223145
1603558495249,138,-0.049560547,-1.0159302,-0.09649658
1603558495250,139,-0.09765625,-1.0855103,-0.06744385
1603558495251,140,-0.047607422,-0.9663696,-0.027893066
1603558495252,141,-0.07739258,-0.9273071,-0.016418457
1603558495252,142,-0.11328125,-0.89556885,0.0038452148
1603558495252,143,-0.24707031,-0.9585571,0.024597168
1603558495254,144,-0.22827148,-1.0044556,0.046325684
1603558495254,145,-0.05883789,-1.3386841,-0.1453247
1603558495255,146,0.044921875,-0.96710205,-0.19317627
1603558495255,147,0.09667969,-1.000061,0.0014038086
1603558495255,148,-0.08496094,-0.98150635,-0.07623291
1603558495256,149,0.011230469,-0.8753052,-0.113342285
1603558495256,150,-0.29492188,-0.72662354,-0.27618408
1603558495256,151,-0.3166504,-0.6553345,-0.31427002
1603558495257,152,-0.58618164,-0.75665283,-0.378479
1603558495258,153,-0.55615234,-0.8023071,-0.3850708
1603558495258,154,-0.5107422,-0.7329712,-0.47052002
1603558495259,155,-0.54345703,-0.93463135,-0.43170166
1603558495260,156,-0.47973633,-0.78692627,-0.45465088
1603558495260,157,-0.36743164,-1.2901001,-0.51763916
1603558495260,158,-0.3864746,-1.343811,-0.32867432
1603558495261,159,-0.14453125,-1.3477173,-0.09918213
1603558497305,160,0.041015625,-0.6433716,0.0028686523
1603558497307,161,0.06591797,-0.9182739,0.10247803
1603558497308,162,0.09082031,-1.0662231,0.24554443
1603558497309,163,-0.021972656,-0.86920166,0.22210693
1603558497310,164,0.08178711,-1.0584106,0.31903076
1603558497311,165,0.30200195,-0.92315674,0.5285034
1603558497311,166,0.049804688,-0.7095337,0.4142456
1603558497313,167,0.13500977,-0.9299927,0.47479248
1603558497314,168,0.17382812,-0.8521118,0.44085693
1603558497315,169,0.13647461,-0.8833618,0.4015503
1603558497315,170,0.15063477,-0.9199829,0.38323975
1603558497316,171,0.14526367,-0.8887329,0.35125732
1603558497317,172,0.13916016,-0.9368286,0.338562
1603558497317,173,0.12841797,-0.92803955,0.34246826
1603558497318,174,0.15551758,-0.9055786,0.35101318
1603558497318,175,0.1508789,-0.9002075,0.3973999
1603558497319,176,0.23388672,-0.8640747,0.465271
1603558497319,177,0.17578125,-0.829895,0.4147339
1603558497320,178,0.028076172,-0.8435669,0.48651123
1603558497320,179,0.11621094,-0.9282837,0.33929443
1603558497320,180,-0.040283203,-0.991272,0.14935303
1603558497321,181,-0.045654297,-0.98321533,0.097595215
1603558497321,182,-0.030761719,-1.0125122,0.039733887
1603558497321,183,-0.19042969,-1.0222778,-0.09674072
1603558497322,184,-0.3046875,-1.1265259,-0.26715088
1603558497322,185,-0.35986328,-1.2073364,-0.44903564
1603558497323,186,-0.5793457,-1.0979614,-0.57037354
1603558497323,187,-0.5422363,-1.046936,-0.57110596
1603558497323,188,-0.5402832,-0.802063,-0.5042114
1603558497324,189,-0.37573242,-0.7966919,-0.4492798
1603558497324,190,-0.31958008,-0.9036255,-0.4019165
1603558497324,191,-0.20947266,-0.7119751,-0.30670166
1603558500117,192,-0.0949707,-0.6460571,-0.2781372
1603558500118,193,-0.08911133,-0.81817627,-0.22930908
1603558500118,194,-0.087402344,-0.8862915,-0.11505127
1603558500119,195,0.04345703,-1.0623169,-0.012756348
1603558500120,196,0.10180664,-1.1987915,-0.010070801
1603558500120,197,-0.09057617,-1.0488892,-0.006652832
1603558500121,198,-0.24926758,-0.9143677,-0.06866455
1603558500122,199,0.0036621094,-1.0674438,-5.493164E-4
1603558500123,200,0.0061035156,-0.8352661,0.074157715
1603558500123,201,0.018554688,-0.96051025,0.11419678
1603558500124,202,0.08129883,-0.991272,0.17669678
1603558500124,203,-0.07519531,-1.0298462,0.152771
1603558500125,204,0.016845703,-1.1795044,-0.22491455
1603558500125,205,0.059326172,-1.1704712,-0.20880127
1603558500126,206,0.068847656,-0.85235596,-0.19586182
1603558500128,207,0.014892578,-0.9920044,-0.21661377
1603558500129,208,0.07397461,-1.0188599,-0.13800049
1603558500130,209,0.17895508,-1.0371704,-0.054504395
1603558500130,210,0.26123047,-1.0234985,-0.050354004
1603558500131,211,0.25341797,-1.0977173,-0.113586426
1603558500132,212,-0.0078125,-1.0947876,-0.020324707
1603558500132,213,-0.14135742,-1.0012817,0.0119018555
1603558500132,214,0.096191406,-1.0276489,0.07098389
1603558500133,215,0.1303711,-0.8772583,0.08685303
1603558500133,216,-0.024414062,-0.91778564,0.13983154
1603558500133,217,0.13452148,-0.86383057,0.12225342
1603558500133,218,0.14038086,-1.1946411,0.28631592
1603558500133,219,0.017578125,-1.4258423,0.10369873
1603558500134,220,0.18676758,-0.73760986,-0.16558838
1603558500135,221,-0.2368164,-1.1790161,0.105651855
1603558500135,222,0.29663086,-0.614563,-0.046203613
1603558500135,223,-0.061523438,-1.1130981,0.038269043
1603558502554,224,0.18481445,-0.8870239,0.08343506
1603558502555,225,0.12768555,-1.2258911,0.21331787
1603558502556,226,0.14282227,-1.2127075,-0.016174316
1603558502557,227,-0.41015625,-0.8731079,-0.17218018
1603558502558,228,-0.06542969,-1.1560669,-0.07354736
1603558502559,229,-0.18017578,-0.6814575,-0.039611816
1603558502560,230,-0.061767578,-0.8418579,0.008239746
1603558502561,231,-0.0925293,-0.9668579,-0.035461426
1603558502562,232,-0.34399414,-0.96661377,-0.2642212
1603558502562,233,-0.19311523,-1.1743774,-0.47906494
1603558502563,234,-0.29956055,-0.9260864,-0.6345825
1603558502563,235,-0.1940918,-1.1211548,-0.5689087
1603558502563,236,-0.1665039,-0.704895,-0.5532837
1603558502564,237,-0.22460938,-0.8567505,-0.6157837
1603558502564,238,-0.30981445,-0.8394165,-0.5808716
1603558502565,239,-0.3713379,-0.8250122,-0.6902466
1603558502565,240,-0.75341797,-0.8154907,-0.40338135
1603558502566,241,-0.6894531,-0.5039673,-0.45465088
1603558502566,242,-0.8183594,-0.6314087,-0.4541626
1603558502566,243,-0.81518555,-0.56329346,-0.4295044
1603558502567,244,-0.7949219,-0.5601196,-0.41851807
1603558502567,245,-0.7714844,-0.5706177,-0.40875244
1603558502568,246,-0.86206055,-0.6062622,-0.44024658
1603558502569,247,-0.7844238,-0.69415283,-0.40118408
1603558502569,248,-0.76171875,-0.7835083,-0.37213135
1603558502570,249,-0.6726074,-0.8713989,-0.32232666
1603558502570,250,-0.43676758,-0.9258423,-0.29351807
1603558502570,251,-0.25561523,-0.8587036,-0.17877197
1603558502571,252,-0.013427734,-0.90509033,-0.16339111
1603558502571,253,-0.048583984,-0.987854,-0.020324707
1603558502572,254,0.088378906,-0.98272705,-0.074523926
1603558502572,255,-0.1081543,-1.071106,-0.024230957
1603558505176,256,0.01586914,-1.0073853,0.054870605
1603558505177,257,0.15576172,-0.97540283,0.12225342
1603558505178,258,0.19091797,-0.94976807,0.12200928
1603558505179,259,0.013183594,-1.0283813,0.054138184
1603558505179,260,0.010009766,-1.0132446,0.04046631
1603558505179,261,0.032714844,-1.0193481,0.032165527
1603558505180,262,-0.012939453,-1.0274048,0.09197998
1603558505181,263,-0.029785156,-0.9849243,0.15618896
1603558505181,264,-0.05517578,-0.9951782,0.17449951
1603558505182,265,-0.045898438,-1.0789185,0.18914795
1603558505182,266,-0.091552734,-0.95391846,0.18597412
1603558505183,267,-0.13256836,-1.0264282,0.21160889
1603558505183,268,-0.040771484,-0.9458618,0.17303467
1603558505183,269,-0.08984375,-0.97320557,0.21673584
1603558505184,270,-0.056152344,-0.94854736,0.22039795
1603558505186,271,-0.0234375,-0.99542236,0.24700928
1603558505187,272,0.052246094,-1.006897,0.2975464
1603558505188,273,-0.04321289,-0.9072876,0.26116943
1603558505188,274,0.0036621094,-0.93096924,0.26922607
1603558505189,275,-0.051757812,-0.9487915,0.27752686
1603558505189,276,-0.052978516,-0.9483032,0.28729248
1603558505189,277,-0.06347656,-1.0064087,0.22454834
1603558505190,278,-0.10595703,-1.130188,0.11956787
1603558505190,279,-0.13110352,-0.99102783,0.036071777
1603558505190,280,-0.14477539,-1.0083618,-0.03692627
1603558505191,281,-0.068603516,-1.013977,-0.10406494
1603558505191,282,-0.1274414,-1.0320435,-0.034484863
1603558505192,283,-0.11010742,-1.0064087,-0.06402588
1603558505192,284,-0.1340332,-1.0300903,-0.07550049
1603558505192,285,-0.17382812,-1.0269165,-0.12652588
1603558505193,286,-0.2277832,-0.99884033,-0.19293213
1603558505193,287,-0.38598633,-1.0774536,-0.043518066
1603558507806,288,-0.35668945,-0.8760376,-0.035949707
1603558507806,289,-0.52124023,-0.9512329,-0.020812988
1603558507807,290,-0.5461426,-0.87384033,0.0099487305
1603558507808,291,-0.58813477,-0.9043579,-0.0134887695
1603558507808,292,-0.57299805,-0.90411377,-0.046936035
1603558507809,293,-0.49487305,-0.92144775,-0.047912598
1603558507809,294,-0.4387207,-0.9702759,-0.01373291
1603558507810,295,-0.35424805,-0.95098877,-0.039611816
1603558507811,296,-0.29589844,-0.9534302,-0.004699707
1603558507812,297,-0.28930664,-0.96173096,0.0138549805
1603558507812,298,-0.21508789,-0.9920044,0.034362793
1603558507812,299,-0.083740234,-1.0361938,0.11248779
1603558507813,300,-0.041748047,-0.9985962,0.13006592
1603558507813,301,-0.012451172,-1.0090942,0.13665771
1603558507814,302,-0.07421875,-0.9763794,0.14129639
1603558507814,303,0.03881836,-1.0088501,0.15814209
1603558507814,304,-0.018798828,-0.9741821,0.16766357
1603558507815,305,-0.011230469,-1.0054321,0.13812256
1603558507816,306,-0.1430664,-1.031311,0.14227295
1603558507816,307,-0.12670898,-1.0271606,0.11810303
1603558507817,308,-0.11303711,-1.0320435,0.06072998
1603558507817,309,-0.17602539,-1.0098267,0.05682373
1603558507818,310,-0.1965332,-0.9902954,0.051208496
1603558507818,311,-0.17919922,-1.003479,0.05218506
1603558507819,312,-0.20092773,-0.9927368,0.074157715
1603558507820,313,-0.17871094,-1.0029907,0.101501465
1603558507820,314,-0.16577148,-0.9963989,0.10296631
1603558507820,315,-0.14135742,-0.9907837,0.09710693
1603558507821,316,-0.13208008,-0.9993286,0.1395874
1603558507821,317,-0.11035156,-1.0044556,0.1317749
1603558507821,318,-0.14477539,-1.0042114,0.09490967
1603558507822,319,-0.12939453,-1.0042114,0.07122803
1603558510428,320,-0.10180664,-0.99542236,0.053649902
1603558510428,321,-0.19384766,-0.96417236,0.0099487305
1603558510429,322,-0.2397461,-0.98394775,-0.006164551
1603558510430,323,-0.3149414,-0.95025635,-0.038146973
1603558510430,324,-0.32348633,-0.9468384,-0.045715332
1603558510431,325,-0.3996582,-0.9421997,-0.13604736
1603558510431,326,-0.4868164,-0.9697876,-0.14996338
1603558510432,327,-0.54052734,-0.97247314,-0.20489502
1603558510432,328,-0.53271484,-0.9265747,-0.2156372
1603558510433,329,-0.54174805,-0.8831177,-0.26470947
1603558510434,330,-0.5217285,-0.8328247,-0.30621338
1603558510434,331,-0.59472656,-0.8076782,-0.30499268
1603558510436,332,-0.5854492,-0.8340454,-0.33062744
1603558510436,333,-0.5554199,-0.8447876,-0.33111572
1603558510436,334,-0.49243164,-0.8809204,-0.35479736
1603558510437,335,-0.42089844,-0.850647,-0.34283447
1603558510437,336,-0.3310547,-1.0032349,-0.34014893
1603558510439,337,-0.35180664,-1.1243286,-0.34820557
1603558510439,338,-0.2644043,-0.94244385,-0.3538208
1603558510439,339,-0.14355469,-0.9439087,-0.29742432
1603558510440,340,-0.14233398,-0.95391846,-0.2649536
1603558510440,341,-0.20703125,-0.9138794,-0.22418213
1603558510441,342,-0.3527832,-0.9248657,-0.27642822
1603558510441,343,-0.2685547,-0.9089966,-0.25909424
1603558510442,344,-0.38208008,-0.8479614,-0.27667236
1603558510442,345,-0.4416504,-0.8960571,-0.29083252
1603558510443,346,-0.44091797,-0.9224243,-0.24957275
1603558510443,347,-0.4868164,-0.9368286,-0.378479
1603558510444,348,-0.50927734,-0.77349854,-0.3735962
1603558510445,349,-0.47192383,-0.7649536,-0.44781494
1603558510445,350,-0.50146484,-0.80010986,-0.5303345
1603558510445,351,-0.5600586,-0.8804321,-0.55474854
1603558512867,352,-0.67089844,-0.835022,-0.59161377
1603558512867,353,-0.60058594,-0.7305298,-0.61431885
1603558512868,354,-0.47875977,-0.7402954,-0.56451416
1603558512869,355,-0.6682129,-0.82818604,-0.44439697
1603558512872,356,-0.6081543,-0.8508911,-0.40948486
1603558512873,357,-0.5319824,-0.80670166,-0.31085205
1603558512873,358,-0.49194336,-0.8648071,-0.29351807
1603558512873,359,-0.40429688,-0.847229,-0.23370361
1603558512874,360,-0.2434082,-0.7485962,-0.15020752
1603558512874,361,-0.31103516,-1.0540161,-0.2156372
1603558512874,362,-0.18847656,-1.0073853,-0.09112549
1603558512874,363,0.025878906,-0.9871216,-0.17095947
1603558512875,364,-0.06762695,-1.0491333,-0.17388916
1603558512875,365,-0.047607422,-0.9793091,-0.1963501
1603558512876,366,0.01928711,-1.0169067,-0.19464111
1603558512876,367,0.0031738281,-0.9819946,-0.17852783
1603558512876,368,-0.040527344,-1.0108032,-0.19830322
1603558512877,369,-0.14331055,-0.9553833,-0.21392822
1603558512877,370,-0.35498047,-0.9558716,-0.27618408
1603558512877,371,-0.46972656,-0.89385986,-0.31378174
1603558512878,372,-0.5830078,-0.8286743,-0.36431885
1603558512878,373,-0.6447754,-0.8467407,-0.37335205
1603558512878,374,-0.6928711,-0.8049927,-0.3945923
1603558512879,375,-0.7702637,-0.72076416,-0.3826294
1603558512879,376,-0.73535156,-0.6799927,-0.38726807
1603558512880,377,-0.7102051,-0.69903564,-0.34039307
1603558512880,378,-0.62646484,-0.68634033,-0.2703247
1603558512881,379,-0.6989746,-0.70977783,-0.25054932
1603558512881,380,-0.6628418,-0.72052,-0.16729736
1603558512882,381,-0.734375,-0.88604736,-0.25616455
1603558512882,382,-0.27783203,-0.9446411,-0.4055786
1603558512883,383,-0.20336914,-0.9663696,-0.62677
1603558515492,384,-0.014404297,-0.94537354,-0.48321533
1603558515493,385,-0.2849121,-0.93585205,-0.44903564
1603558515494,386,-0.3955078,-1.0361938,-0.5532837
1603558515495,387,-0.17822266,-1.1260376,-0.553772
1603558515497,388,-0.012939453,-0.8423462,-0.49224854
1603558515498,389,-0.16601562,-0.83599854,-0.54351807
1603558515498,390,-0.10180664,-0.8184204,-0.56329346
1603558515499,391,-0.048828125,-0.8032837,-0.53204346
1603558515500,392,-0.084472656,-0.8772583,-0.51812744
1603558515500,393,-0.115478516,-0.96881104,-0.49005127
1603558515501,394,0.03881836,-1.0154419,-0.35577393
1603558515501,395,-0.104003906,-0.98223877,-0.4397583
1603558515503,396,0.06958008,-0.95562744,-0.37701416
1603558515503,397,-0.038085938,-1.0647583,-0.22491455
1603558515503,398,0.18164062,-1.0952759,-0.09527588
1603558515503,399,0.16845703,-1.12677,-0.04840088
1603558515504,400,-0.030761719,-0.8936157,-0.17510986
1603558515504,401,-0.13964844,-0.8875122,0.014587402
1603558515504,402,-0.11987305,-0.9360962,0.035583496
1603558515505,403,0.016113281,-0.98101807,0.11273193
1603558515506,404,0.13549805,-0.9229126,0.03289795
1603558515506,405,0.04345703,-1.0308228,0.089538574
1603558515506,406,0.045654297,-1.1326294,0.14544678
1603558515506,407,-0.25878906,-1.4043579,-0.0068969727
1603558515507,408,0.0029296875,-0.7739868,-0.12188721
1603558515507,409,-0.34887695,-1.1409302,-0.1663208
1603558515508,410,0.08544922,-0.8726196,-0.14776611
1603558515508,411,-0.08325195,-0.9673462,-0.05987549
1603558515509,412,0.05834961,-0.90289307,-0.039123535
1603558515509,413,0.016601562,-1.0654907,0.07196045
1603558515509,414,0.029541016,-1.289856,0.001159668
1603558515510,415,-0.29711914,-1.1924438,-0.20098877
1603558518119,416,-0.079833984,-0.803772,-0.19781494
1603558518119,417,-0.09472656,-1.1292114,0.023620605
1603558518120,418,-7.324219E-4,-0.7852173,0.02508545
1603558518121,419,-0.04321289,-1.0435181,0.105895996
1603558518123,420,0.072753906,-0.88775635,0.1473999
1603558518123,421,-0.111083984,-0.97784424,0.16033936
1603558518123,422,0.015625,-1.1558228,0.07537842
1603558518123,423,-0.14038086,-1.1851196,-0.16192627
1603558518124,424,-0.055419922,-0.86798096,-0.08795166
1603558518125,425,-0.03930664,-1.1211548,-0.15777588
1603558518125,426,0.07836914,-0.9927368,-0.13311768
1603558518125,427,-0.004638672,-1.022522,-0.14556885
1603558518126,428,-0.032714844,-1.019104,-0.10015869
1603558518127,429,-0.024902344,-1.0796509,-0.04083252
1603558518128,430,-0.009277344,-1.0432739,-0.050354004
1603558518128,431,-0.052490234,-1.0427856,-0.020324707
1603558518129,432,-0.016113281,-1.0095825,-0.013244629
1603558518129,433,-0.0075683594,-1.0115356,0.023620605
1603558518130,434,-0.03857422,-0.98931885,0.054870605
1603558518130,435,-0.007080078,-0.9890747,0.11224365
1603558518131,436,0.018066406,-1.0317993,0.2243042
1603558518132,437,-0.033935547,-0.9998169,0.23480225
1603558518132,438,-0.009277344,-0.9265747,0.21990967
1603558518133,439,-0.040283203,-1.017395,0.19818115
1603558518133,440,-0.013671875,-0.97735596,0.16473389
1603558518134,441,-0.03955078,-1.0015259,0.17669678
1603558518134,442,-0.018798828,-0.9758911,0.18597412
1603558518135,443,-0.006591797,-1.017395,0.15985107
1603558518136,444,-0.038085938,-0.9976196,0.12420654
1603558518136,445,-0.06347656,-1.0151978,0.12713623
1603558518137,446,-0.045898438,-1.0042114,0.13006592
1603558518137,447,-0.052490234,-1.0071411,0.13348389
1603558520739,448,-0.038330078,-1.0073853,0.13250732
1603558520745,449,-0.056396484,-1.0027466,0.13909912
1603558520746,450,-0.06665039,-1.0083618,0.13250732
1603558520746,451,-0.087890625,-1.0032349,0.1305542
1603558520746,452,-0.08618164,-0.9985962,0.121032715
1603558520746,453,-0.083496094,-0.9968872,0.12249756
1603558520746,454,-0.09301758,-1.00177,0.14959717
1603558520746,455,-0.09350586,-1.0054321,0.12615967
1603558520746,456,-0.07006836,-1.008606,0.12322998
1603558520746,457,-0.09057617,-1.0090942,0.13128662
1603558520749,458,-0.10131836,-1.0281372,0.11395264
1603558520750,459,-0.07470703,-1.0383911,0.06732178
1603558520751,460,-0.0546875,-1.034729,0.06317139
1603558520751,461,-0.07299805,-1.0510864,0.0018920898
1603558520752,462,-0.068359375,-0.9456177,-0.020324707
1603558520752,463,-0.044433594,-1.0278931,0.042663574
1603558520752,464,0.012451172,-0.9788208,0.022888184
1603558520753,465,0.020263672,-1.0007935,0.028259277
1603558520754,466,-0.009033203,-1.0244751,0.02557373
1603558520758,467,0.01171875,-1.013977,0.019958496
1603558520758,468,0.022216797,-0.9890747,-0.0012817383
1603558520758,469,0.010009766,-1.0576782,0.019226074
1603558520759,470,0.03466797,-1.0481567,0.012390137
1603558520759,471,0.030761719,-1.03302,0.045837402
1603558520771,472,0.06982422,-0.98809814,0.093933105
1603558520771,473,0.0769043,-1.0303345,0.053894043
1603558520771,474,0.083740234,-1.0442505,0.11810303
1603558520771,475,0.08959961,-0.98321533,0.1227417
1603558520771,476,0.0871582,-1.0093384,0.09881592
1603558520771,477,0.04296875,-0.99664307,0.12176514
1603558520772,478,0.05493164,-0.9734497,0.11932373
1603558520772,479,0.017822266,-1.0186157,0.04901123
1603558523364,480,0.076171875,-0.98272705,0.06756592
1603558523364,481,-0.057373047,-1.00177,0.094177246
1603558523365,482,0.0063476562,-0.99835205,0.14837646
1603558523370,483,0.017822266,-1.1089478,0.18743896
1603558523370,484,-0.0056152344,-0.9692993,0.16571045
1603558523371,485,-0.052734375,-0.9834595,0.14007568
1603558523371,486,-0.057128906,-1.0083618,0.09490967
1603558523371,487,-0.0546875,-1.0088501,0.10638428
1603558523372,488,-0.04296875,-0.9949341,0.109802246
1603558523374,489,-0.030761719,-1.0095825,0.10443115
1603558523374,490,-0.049072266,-0.99835205,0.113464355
1603558523374,491,-0.0715332,-0.98394775,0.1239624
1603558523374,492,-0.11694336,-0.99786377,0.12884521
1603558523374,493,-0.0041503906,-1.0298462,0.14251709
1603558523374,494,-0.05126953,-0.9741821,0.13397217
1603558523375,495,-0.057128906,-0.9907837,0.13397217
1603558523375,496,-0.07128906,-0.98565674,0.1251831
1603558523376,497,-0.04321289,-1.0664673,0.05999756
1603558523380,498,-0.115722656,-1.0530396,-0.019836426
1603558523380,499,-0.067871094,-0.9758911,-0.09698486
1603558523380,500,-0.12963867,-1.0527954,-0.19415283
1603558523380,501,-0.084472656,-1.0010376,-0.20684814
1603558523380,502,-0.10449219,-1.0508423,-0.22247314
1603558523381,503,-0.052978516,-0.99786377,-0.2312622
1603558523381,504,-0.0871582,-1.0332642,-0.23687744
1603558523381,505,-0.076171875,-1.0188599,-0.2197876
1603558523382,506,-0.071777344,-1.03302,-0.20587158
1603558523382,507,-0.07104492,-1.0403442,-0.190979
1603558523382,508,-0.19067383,-1.0637817,-0.12799072
1603558523383,509,-0.22949219,-0.96588135,-0.034240723
1603558523383,510,-0.3623047,-0.98760986,-0.062561035
1603558523384,511,-0.29296875,-0.99884033,0.0072631836
1603558525803,512,-0.3955078,-0.8948364,0.011657715
1603558525806,513,-0.41845703,-0.9734497,0.0446167
1603558525806,514,-0.41015625,-0.94610596,0.08734131
1603558525806,515,-0.38330078,-0.93414307,0.08148193
1603558525807,516,-0.4243164,-0.90167236,0.07757568
1603558525808,517,-0.46264648,-0.928772,0.0692749
1603558525808,518,-0.41601562,-0.9512329,0.050476074
1603558525808,519,-0.42895508,-0.9368286,0.04925537
1603558525808,520,-0.4580078,-0.92193604,0.05657959
1603558525809,521,-0.45239258,-0.925354,0.050964355
1603558525809,522,-0.44335938,-0.93048096,0.050964355
1603558525809,523,-0.4609375,-0.9260864,0.050964355
1603558525810,524,-0.45996094,-0.92559814,0.047058105
1603558525811,525,-0.47583008,-0.92193604,0.051452637
1603558525811,526,-0.49438477,-0.9168091,0.057800293
1603558525811,527,-0.49804688,-0.91485596,0.06781006
1603558525812,528,-0.48535156,-0.8933716,0.070495605
1603558525812,529,-0.48388672,-0.90411377,0.073913574
1603558525813,530,-0.47265625,-0.9024048,0.08416748
1603558525813,531,-0.4650879,-0.9170532,0.1005249
1603558525814,532,-0.43847656,-0.9151001,0.10858154
1603558525814,533,-0.41430664,-0.92071533,0.11566162
1603558525815,534,-0.3852539,-0.92852783,0.13006592
1603558525816,535,-0.3491211,-0.9368286,0.15130615
1603558525816,536,-0.27319336,-1.0186157,0.09637451
1603558525816,537,-0.21044922,-1.0237427,-0.037902832
1603558525816,538,-0.06201172,-1.019104,-0.13702393
1603558525816,539,-0.17260742,-1.0918579,-0.109191895
1603558525817,540,-0.06323242,-1.0327759,-0.12799072
1603558525817,541,-0.024169922,-1.0425415,-0.04937744
1603558525817,542,-0.030029297,-1.0171509,-0.03765869
1603558525818,543,-0.03881836,-1.0435181,-0.018127441
1603558528619,544,0.0043945312,-1.0005493,-0.0178833
1603558528619,545,-0.068115234,-1.0584106,0.039489746
1603558528619,546,-0.010253906,-0.99957275,0.07928467
1603558528620,547,0.018798828,-0.99664307,0.07757568
1603558528621,548,-0.0056152344,-1.0234985,0.12957764
1603558528621,549,-0.021972656,-0.98931885,0.12762451
1603558528621,550,-0.018798828,-1.0078735,0.15618896
1603558528622,551,2.4414062E-4,-1.0120239,0.1671753
1603558528623,552,-0.03564453,-0.97442627,0.13690186
1603558528624,553,-0.03100586,-0.9993286,0.14300537
1603558528624,554,-0.026855469,-0.9812622,0.15692139
1603558528625,555,-0.048339844,-1.0183716,0.14300537
1603558528626,556,-0.050048828,-1.0027466,0.12664795
1603558528627,557,-0.059814453,-0.9741821,0.12835693
1603558528627,558,-0.06298828,-0.9758911,0.12420654
1603558528629,559,0.005126953,-1.0403442,0.12640381
1603558528629,560,0.035888672,-1.0222778,0.14422607
1603558528629,561,-0.044189453,-0.960022,0.18719482
1603558528630,562,-0.045654297,-0.97979736,0.19500732
1603558528630,563,-0.07495117,-0.9859009,0.19818115
1603558528630,564,-0.09667969,-0.97491455,0.21087646
1603558528631,565,-0.088134766,-1.006897,0.16668701
1603558528631,566,-0.084228516,-1.0022583,0.0836792
1603558528631,567,0.068359375,-0.9678345,0.0446167
1603558528632,568,0.030517578,-1.0740356,-0.026428223
1603558528633,569,0.064208984,-1.0344849,-0.09283447
1603558528633,570,0.083496094,-1.0459595,-0.0713501
1603558528633,571,0.03564453,-1.0283813,-0.10821533
1603558528633,572,0.0769043,-1.0337524,-0.08673096
1603558528635,573,0.07006836,-1.0081177,-0.13067627
1603558528635,574,0.068847656,-1.0098267,-0.16314697
1603558528635,575,0.08544922,-0.9915161,-0.15289307
1603558531054,576,0.16967773,-0.9956665,-0.17242432
1603558531055,577,0.14526367,-1.013977,-0.2107544
1603558531056,578,0.12109375,-1.0234985,-0.21514893
1603558531058,579,0.15014648,-0.9898071,-0.23565674
1603558531059,580,0.23706055,-1.0127563,-0.21832275
1603558531059,581,0.20019531,-1.0234985,-0.18609619
1603558531059,582,0.32226562,-1.1780396,-0.18585205
1603558531060,583,-0.23242188,-1.1069946,0.04119873
1603558531060,584,-0.12792969,-1.0603638,0.05316162
1603558531061,585,-0.12524414,-0.9060669,0.14886475
1603558531061,586,0.046142578,-0.7612915,0.17474365
1603558531062,587,0.012451172,-0.8928833,0.13812256
1603558531062,588,-0.14355469,-0.87677,0.25091553
1603558531063,589,-0.12890625,-0.9585571,0.37298584
1603558531063,590,-0.12597656,-1.1055298,0.29193115
1603558531064,591,0.014892578,-1.4668579,-0.28424072
1603558531064,592,0.04321289,-0.9224243,-0.23345947
1603558531065,593,0.08569336,-0.99957275,-0.34918213
1603558531065,594,0.2055664,-0.96588135,-0.28668213
1603558531066,595,0.028320312,-0.99786377,-0.2954712
1603558531066,596,0.18066406,-0.9824829,-0.26153564
1603558531066,597,0.059570312,-1.0037231,-0.26226807
1603558531067,598,0.1459961,-0.9212036,-0.2539673
1603558531069,599,0.055419922,-0.9595337,-0.2522583
1603558531069,600,0.123046875,-1.008606,-0.24713135
1603558531069,601,0.12646484,-1.0271606,-0.29473877
1603558531069,602,0.06201172,-0.9866333,-0.30133057
1603558531069,603,-0.021972656,-1.0881958,-0.19024658
1603558531070,604,-0.17456055,-1.0557251,-0.046936035
1603558531071,605,-0.14746094,-0.94976807,0.013122559
1603558531071,606,-0.20214844,-0.99224854,0.026062012
1603558531071,607,-0.10229492,-0.9475708,0.07611084
1603558533680,608,-0.11694336,-0.9277954,0.13861084
1603558533680,609,-0.17114258,-1.0911255,0.21282959
1603558533681,610,0.017578125,-0.89630127,0.21307373
1603558533681,611,-0.06274414,-1.0283813,0.21795654
1603558533682,612,-0.109375,-1.2151489,0.12176514
1603558533683,613,-0.03857422,-0.83184814,-0.04888916
1603558533683,614,0.018310547,-1.1682739,0.018005371
1603558533684,615,0.0847168,-0.84210205,-0.031066895
1603558533685,616,0.11035156,-1.1387329,-0.05670166
1603558533685,617,0.111816406,-1.0828247,-0.09136963
1603558533686,618,0.13183594,-1.2105103,0.024841309
1603558533686,619,-0.19873047,-0.92144775,0.047058105
1603558533686,620,-0.25708008,-0.95196533,0.008239746
1603558533687,621,-0.38476562,-1.039856,0.13079834
1603558533688,622,-0.21508789,-0.95025635,0.13763428
1603558533688,623,-0.16235352,-0.9458618,0.113220215
1603558533689,624,-0.28271484,-1.0300903,0.13275146
1603558533689,625,-0.3010254,-0.956604,0.15008545
1603558533690,626,-0.25976562,-0.98321533,0.13201904
1603558533690,627,-0.28637695,-0.94610596,0.1486206
1603558533691,628,-0.3166504,-0.88653564,0.14300537
1603558533692,629,-0.33789062,-0.8357544,0.15911865
1603558533692,630,-0.27392578,-1.0332642,0.1461792
1603558533692,631,0.07861328,-1.5169067,-0.038879395
1603558533692,632,0.23364258,-0.9456177,-0.24493408
1603558533693,633,0.016845703,-1.0178833,-0.09136963
1603558533693,634,-0.045166016,-0.91290283,-0.09234619
1603558533694,635,0.17993164,-1.0501099,-0.038391113
1603558533694,636,0.048583984,-1.0720825,-0.15655518
1603558533694,637,-0.17700195,-1.0413208,-0.08892822
1603558533695,638,-0.13598633,-1.0166626,0.19989014
1603558533695,639,-0.15258789,-1.0593872,0.090270996
1603558536305,640,-0.23657227,-1.0564575,0.11468506
1603558536305,641,-0.20043945,-0.9182739,0.14349365
1603558536307,642,-0.2631836,-0.9273071,0.11639404
1603558536308,643,-0.24316406,-0.9915161,0.14276123
1603558536309,644,-0.30200195,-0.95513916,0.14935303
1603558536309,645,-0.26342773,-0.91656494,0.14251709
1603558536310,646,-0.25341797,-0.9336548,0.15057373
1603558536311,647,-0.2836914,-0.89385986,0.11395264
1603558536312,648,-0.09667969,-1.109436,0.093444824
1603558536312,649,0.12011719,-1.0857544,0.0016479492
1603558536313,650,0.024902344,-1.1306763,0.0065307617
1603558536313,651,0.072753906,-0.9536743,-0.019836426
1603558536313,652,0.05078125,-1.0962524,-0.047912598
1603558536314,653,0.03125,-1.0122681,-0.015197754
1603558536314,654,0.088378906,-0.9644165,-0.08502197
1603558536315,655,-0.115234375,-1.0718384,0.023132324
1603558536315,656,0.0087890625,-0.95098877,0.101257324
1603558536316,657,-0.109375,-1.1065063,0.21307373
1603558536316,658,-0.028808594,-1.031311,0.22113037
1603558536317,659,-0.0793457,-0.9204712,0.21356201
1603558536317,660,-0.05419922,-0.93414307,0.21380615
1603558536318,661,-0.09106445,-0.92388916,0.21014404
1603558536318,662,-0.043701172,-1.0234985,0.32073975
1603558536319,663,-0.04248047,-1.0374146,0.3102417
1603558536319,664,-0.09423828,-1.3416138,0.13568115
1603558536320,665,0.03149414,-0.8201294,-0.17559814
1603558536320,666,-0.0769043,-1.0425415,-0.21466064
1603558536320,667,0.14379883,-0.98883057,-0.144104
1603558536321,668,-0.016601562,-0.96832275,-0.051818848
1603558536321,669,-0.068603516,-1.0308228,-0.1116333
1603558536321,670,0.052001953,-1.1182251,-0.0791626
1603558536322,671,0.10913086,-0.9522095,-0.18365479
1603558538742,672,-0.13842773,-1.2351685,0.023132324
1603558538742,673,-0.1977539,-0.9800415,-0.026428223
1603558538743,674,-0.29223633,-0.86505127,0.04559326
1603558538743,675,-0.1508789,-1.0432739,0.070007324
1603558538744,676,-0.059570312,-0.9299927,0.11224365
1603558538746,677,-0.17138672,-0.98687744,0.16571045
1603558538746,678,-0.20092773,-0.99957275,0.1942749
1603558538746,679,-0.107666016,-1.03302,0.18670654
1603558538747,680,-0.07373047,-1.2803345,0.011169434
1603558538748,681,-0.018798828,-0.81988525,-0.2144165
1603558538748,682,0.05078125,-1.1355591,-0.11236572
1603558538749,683,0.10498047,-0.85113525,-0.1428833
1603558538749,684,0.09082031,-1.1060181,-0.09185791
1603558538750,685,0.06201172,-0.97662354,-0.11993408
1603558538750,686,0.103759766,-1.1616821,-0.11773682
1603558538750,687,0.26293945,-1.0261841,-0.1831665
1603558538751,688,-0.106933594,-1.194397,0.008483887
1603558538752,689,-0.23828125,-0.9241333,0.007507324
1603558538752,690,-0.20800781,-0.95635986,0.015808105
1603558538752,691,-0.20825195,-0.91851807,0.05706787
1603558538752,692,-0.28881836,-1.1011353,0.054382324
1603558538753,693,-0.21557617,-0.98687744,-0.0134887695
1603558538753,694,-0.24536133,-1.0354614,0.027038574
1603558538754,695,-0.15527344,-0.9812622,0.04437256
1603558538754,696,-0.23144531,-0.97979736,0.08709717
1603558538755,697,-0.2109375,-0.9048462,0.06121826
1603558538755,698,-0.13427734,-0.89678955,-0.022766113
1603558538756,699,-0.3034668,-1.010315,-0.012512207
1603558538756,700,0.11035156,-1.3328247,-0.13092041
1603558538757,701,0.10571289,-1.1018677,-0.15264893
1603558538757,702,0.24707031,-1.0547485,-0.049865723
1603558538758,703,0.18188477,-0.90826416,-0.074523926
1603558541364,704,0.17700195,-1.0547485,-0.09844971
1603558541364,705,0.08203125,-1.0349731,-0.15484619
1603558541365,706,-0.02709961,-1.0401001,-0.144104
1603558541366,707,-0.040283203,-0.95098877,-0.2107544
1603558541366,708,-0.16772461,-1.0737915,-0.07891846
1603558541366,709,-0.064697266,-1.0606079,0.25164795
1603558541366,710,-0.14257812,-1.0217896,0.10076904
1603558541367,711,-0.24633789,-1.1567993,0.15081787
1603558541367,712,-0.20117188,-0.81427,0.11395264
1603558541368,713,-0.24291992,-1.0110474,0.12200928
1603558541369,714,-0.15942383,-1.0169067,0.10858154
1603558541369,715,-0.22851562,-0.9456177,0.10638428
1603558541370,716,-0.22802734,-1.0217896,0.15228271
1603558541370,717,-0.21777344,-0.92315674,0.1473999
1603558541370,718,-0.2668457,-0.9429321,0.062927246
1603558541370,719,-0.012451172,-1.0847778,-0.15484619
1603558541371,720,0.0871582,-1.1221313,-0.08746338
1603558541371,721,0.15014648,-0.9126587,-0.15924072
1603558541371,722,0.010253906,-1.161438,-0.22515869
1603558541372,723,0.047851562,-1.0169067,-0.16168213
1603558541372,724,0.029541016,-1.024231,-0.101867676
1603558541374,725,0.12548828,-1.0493774,-0.12188721
1603558541374,726,0.05517578,-1.0010376,-0.08013916
1603558541374,727,0.09326172,-1.0291138,-0.07574463
1603558541374,728,0.12915039,-1.0183716,-0.018859863
1603558541376,729,0.03515625,-0.95025635,0.016540527
1603558541376,730,0.1274414,-1.000061,-0.054992676
1603558541377,731,-0.3059082,-0.9155884,0.09515381
1603558541377,732,0.03100586,-1.0637817,0.22821045
1603558541377,733,-0.10058594,-1.2727661,0.24749756
1603558541377,734,-0.13085938,-0.9614868,0.19085693
1603558541377,735,-0.07324219,-0.7666626,0.13934326
1603558543993,736,-0.26171875,-0.9314575,0.050720215
1603558543994,737,0.021972656,-1.0615845,-0.07623291
1603558543995,738,-4.8828125E-4,-0.9121704,-0.12823486
1603558543996,739,0.25073242,-1.2783813,-0.074035645
1603558543997,740,0.13745117,-1.4588013,-0.01739502
1603558543998,741,0.025146484,-1.0508423,-0.018859863
1603558543999,742,0.038330078,-0.7984009,0.059753418
1603558543999,743,-0.21606445,-0.77593994,-0.10699463
1603558544000,744,-0.4802246,-0.91192627,-0.08111572
1603558544001,745,-0.1472168,-0.85406494,-0.03717041
1603558544001,746,-0.39916992,-1.0274048,0.062683105
1603558544001,747,-0.16967773,-1.0994263,0.05682373
1603558544002,748,-0.14770508,-1.0005493,0.19256592
1603558544002,749,0.021972656,-1.0586548,0.16253662
1603558544002,750,0.111816406,-1.1387329,0.21966553
1603558544003,751,0.27905273,-1.0877075,0.04119873
1603558544003,752,0.30615234,-1.003479,0.04949951
1603558544004,753,0.24145508,-0.9729614,-0.027160645
1603558544005,754,0.072753906,-0.90826416,-0.29986572
1603558544005,755,0.0036621094,-0.97442627,-0.11431885
1603558544006,756,-0.32495117,-0.9365845,0.010681152
1603558544007,757,0.018310547,-0.93634033,-0.05718994
1603558544008,758,0.11328125,-0.97125244,-0.04522705
1603558544009,759,0.12695312,-1.3110962,-0.23297119
1603558544009,760,0.20141602,-1.12677,-0.17681885
1603558544009,761,0.21362305,-1.0901489,-0.3352661
1603558544009,762,0.06201172,-0.9456177,-0.21832275
1603558544009,763,-0.12426758,-1.010315,-0.050354004
1603558544009,764,-0.12670898,-1.0110474,-0.15118408
1603558544009,765,-0.5949707,-0.92559814,-0.034973145
1603558544010,766,-0.24243164,-1.0823364,0.10345459
1603558544010,767,-0.109375,-1.0186157,0.1930542
1603558546804,768,0.08569336,-0.95684814,0.22137451
1603558546804,769,0.234375,-0.91534424,0.121032715
1603558546806,770,0.12939453,-0.8789673,0.04119873
1603558546806,771,0.114990234,-0.97369385,0.15985107
1603558546808,772,-0.12060547,-1.4234009,0.3217163
1603558546808,773,0.118652344,-0.925354,-0.19610596
1603558546809,774,-0.100097656,-1.2752075,0.12249756
1603558546810,775,-0.053466797,-0.64849854,0.05218506
1603558546810,776,-0.20605469,-0.99005127,0.050720215
1603558546810,777,-0.06201172,-1.0669556,0.15594482
1603558546811,778,-0.21582031,-1.0247192,0.09173584
1603558546811,779,-0.26220703,-0.93707275,0.034851074
1603558546812,780,-0.18041992,-1.0991821,-0.013000488
1603558546812,781,0.118896484,-1.1555786,0.03363037
1603558546812,782,4.8828125E-4,-0.895813,0.028015137
1603558546812,783,-0.27270508,-1.0239868,0.013122559
1603558546814,784,-0.31762695,-1.0708618,0.038269043
1603558546814,785,-0.3684082,-0.9116821,0.008483887
1603558546814,786,-0.04321289,-0.94659424,-0.07281494
1603558546814,787,0.021484375,-1.0703735,0.070739746
1603558546815,788,0.16259766,-1.2341919,0.08782959
1603558546815,789,0.072753906,-1.104065,0.14105225
1603558546815,790,0.17504883,-1.0095825,-0.15679932
1603558546816,791,0.2939453,-1.06427,-0.25836182
1603558546816,792,-0.08227539,-0.78570557,-0.16217041
1603558546817,793,-0.22192383,-0.92559814,-0.010803223
1603558546817,794,-0.07495117,-1.078186,-0.0022583008
1603558546818,795,-0.18383789,-1.0906372,-0.045959473
1603558546818,796,0.15454102,-0.9187622,-0.22784424
1603558546819,797,-0.004638672,-1.0444946,-0.20953369
1603558546819,798,0.14624023,-1.1343384,0.054138184
1603558546819,799,0.23461914,-1.2776489,-0.1843872
1603558549243,800,2.4414062E-4,-1.036438,-0.1843872
1603558549244,801,-0.14819336,-0.9338989,-0.13433838
1603558549244,802,-0.27441406,-0.95562744,-0.041809082
1603558549246,803,-0.24975586,-0.99664307,0.16131592
1603558549247,804,-0.3815918,-0.89849854,0.10662842
1603558549248,805,-0.28295898,-0.98687744,0.11029053
1603558549251,806,-0.06933594,-1.1060181,0.15496826
1603558549251,807,-0.0026855469,-0.9680786,0.12347412
1603558549251,808,-0.011474609,-0.9849243,0.15765381
1603558549252,809,0.10888672,-1.1109009,0.28826904
1603558549252,810,0.1171875,-1.0542603,0.22991943
1603558549253,811,0.03100586,-0.88946533,0.20599365
1603558549253,812,0.049072266,-0.9885864,0.07513428
1603558549255,813,0.08081055,-0.91485596,0.12542725
1603558549255,814,0.09423828,-0.98150635,0.04168701
1603558549255,815,0.19018555,-1.0933228,0.14105225
1603558549256,816,0.11279297,-1.0852661,0.074645996
1603558549257,817,0.03173828,-1.0559692,0.085632324
1603558549257,818,-0.041259766,-1.053772,0.17840576
1603558549258,819,-0.055419922,-1.0264282,0.16229248
1603558549260,820,-0.15405273,-0.91412354,0.14227295
1603558549260,821,-0.19970703,-0.95684814,0.15325928
1603558549260,822,-0.18457031,-0.9829712,0.074157715
1603558549261,823,-0.16699219,-1.0779419,0.07342529
1603558549262,824,0.107177734,-1.0684204,0.13226318
1603558549262,825,0.11669922,-1.0408325,0.098083496
1603558549262,826,0.23144531,-0.9729614,0.10321045
1603558549263,827,0.45507812,-0.9360962,0.18035889
1603558549263,828,0.69970703,-1.2214966,-0.09136963
1603558549263,829,0.076660156,-0.8399048,-0.9534302
1603558549263,830,-1.4428711,-0.6123657,0.36468506
1603558549264,831,1.3681641,-1.5188599,-0.9561157
1603558551679,832,-1.840332,-0.661438,-0.15533447
1603558551679,833,-0.025390625,-1.2122192,-0.008117676
1603558551680,834,-0.6530762,-0.89312744,0.028503418
1603558551680,835,0.044677734,-0.99005127,-0.038146973
1603558551681,836,0.09350586,-1.0601196,-0.08453369
1603558551681,837,0.13549805,-1.0691528,-0.058410645
1603558551682,838,0.27929688,-0.8447876,-0.07501221
1603558551683,839,0.123291016,-0.8755493,-0.27105713
1603558551684,840,0.14892578,-1.0508423,-0.22125244
1603558551685,841,0.17333984,-1.2249146,-0.29718018
1603558551685,842,0.09033203,-1.1306763,-0.17462158
1603558551686,843,-0.068115234,-1.0098267,-0.19659424
1603558551687,844,-0.0793457,-0.9248657,-0.085998535
1603558551687,845,-0.32592773,-1.1506958,0.07196045
1603558551687,846,-0.0690918,-1.1497192,0.12689209
1603558551688,847,-0.41137695,-0.9209595,0.18304443
1603558551688,848,-0.27783203,-0.76153564,0.16619873
1603558551689,849,-0.22485352,-0.91778564,0.1671753
1603558551689,850,-0.3425293,-0.960022,0.12445068
1603558551690,851,-0.32739258,-0.87384033,0.14276123
1603558551690,852,-0.3630371,-1.0335083,0.20062256
1603558551690,853,-0.17529297,-1.0740356,0.21746826
1603558551691,854,-0.16064453,-0.9949341,0.101501465
1603558551692,855,-0.0126953125,-0.97003174,0.12005615
1603558551692,856,0.14624023,-1.0576782,0.093933105
1603558551693,857,0.17895508,-1.0540161,-0.05206299
1603558551693,858,0.26171875,-1.0671997,0.035095215
1603558551693,859,0.076416016,-0.9463501,0.024597168
1603558551694,860,-0.0234375,-0.9570923,0.043395996
1603558551694,861,-0.041748047,-1.0288696,0.0053100586
1603558551695,862,-0.18334961,-1.0481567,0.04534912
1603558551695,863,0.025146484,-1.0108032,0.16156006
1603558554303,864,-0.15820312,-1.0957642,0.12005615
1603558554304,865,-0.31591797,-0.9768677,0.020690918
1603558554304,866,-0.35961914,-0.9439087,-0.034729004
1603558554304,867,-0.14013672,-1.0730591,-0.10284424
1603558554305,868,-0.051757812,-0.9783325,0.05657959
1603558554306,869,0.05883789,-1.0200806,0.050476074
1603558554306,870,0.16748047,-1.010315,0.14129639
1603558554307,871,0.29418945,-0.86553955,0.20794678
1603558554307,872,0.028564453,-1.1660767,0.09197998
1603558554308,873,0.18554688,-1.0757446,0.113220215
1603558554308,874,0.19067383,-0.99468994,-0.040100098
1603558554309,875,-0.061279297,-1.0930786,-0.06451416
1603558554309,876,0.07836914,-1.0108032,0.10882568
1603558554310,877,0.2019043,-0.79034424,-0.03717041
1603558554310,878,0.063964844,-1.0200806,0.009216309
1603558554311,879,0.059326172,-1.0933228,0.008972168
1603558554311,880,-0.17700195,-1.2490845,0.047546387
1603558554312,881,0.045654297,-0.7449341,-0.10797119
1603558554312,882,-0.13867188,-1.1809692,-0.12432861
1603558554313,883,-0.17675781,-0.89923096,-0.15167236
1603558554313,884,-0.26464844,-1.0144653,-0.21759033
1603558554313,885,-0.3876953,-0.9258423,-0.20343018
1603558554314,886,-0.3383789,-0.98272705,-0.082092285
1603558554314,887,-0.24121094,-1.0684204,-0.1765747
1603558554315,888,-0.118896484,-0.944397,-0.2000122
1603558554315,889,-0.16772461,-1.117981,-0.16998291
1603558554316,890,-0.028564453,-1.0286255,-0.14898682
1603558554316,891,-0.109375,-1.0322876,-0.16021729
1603558554316,892,-0.040527344,-1.0298462,-0.2029419
1603558554317,893,-0.12719727,-0.89849854,-0.31158447
1603558554317,894,-0.296875,-0.71417236,-0.22003174
1603558554318,895,-0.39282227,-0.829895,-0.14874268
1603558556928,896,-0.23632812,-0.7402954,-0.16485596
1603558556929,897,-0.36254883,-0.58551025,-0.30255127
1603558556930,898,-0.5419922,-0.7012329,-0.29595947
1603558556930,899,-0.4255371,-0.4631958,-0.46588135
1603558556931,900,-0.55688477,-1.013977,-0.5003052
1603558556932,901,-0.545166,-0.6904907,-0.58551025
1603558556932,902,-0.6254883,-1.0437622,-0.6799927
1603558556933,903,-0.8227539,-0.82891846,-0.7661743
1603558556933,904,-0.88012695,-0.7974243,-1.0154419
1603558556933,905,-0.8796387,-0.6333618,-1.5935669
1603558556934,906,-0.6044922,-0.37457275,-1.0159302
1603558556935,907,-0.10131836,-0.23370361,-0.5322876
1603558556935,908,-0.73339844,0.047790527,-0.14996338
1603558556935,909,-0.65185547,0.52093506,-0.4336548
1603558556936,910,-0.38110352,0.17108154,-0.55548096
1603558556936,911,-0.40795898,-0.4644165,-0.50909424
1603558556937,912,-1.1188965,0.109069824,-0.9817505
1603558556938,913,-0.41601562,-0.3110962,-0.98883057
1603558556938,914,-0.7910156,-0.2468872,-0.9458618
1603558556939,915,-0.6828613,-0.22662354,-0.92926025
1603558556940,916,-0.50024414,-0.39874268,-0.9517212
1603558556940,917,-0.68847656,-0.39483643,-1.006897
1603558556940,918,-0.53637695,-0.5046997,-1.1296997
1603558556940,919,-0.7019043,-0.42852783,-1.0559692
1603558556941,920,-0.6743164,-0.39849854,-1.0654907
1603558556942,921,-0.68408203,-0.34454346,-1.0940552
1603558556942,922,-0.46728516,-0.32989502,-1.1235962
1603558556942,923,-0.6960449,-0.50616455,-1.24469
1603558556942,924,-0.3840332,0.6112671,-0.76519775
1603558556943,925,-0.12475586,0.035583496,-0.105773926
1603558556943,926,-0.21020508,-0.4331665,-0.39727783
1603558556943,927,-0.3515625,-0.08917236,-0.40899658
1603558559554,928,-0.42382812,0.030456543,-0.62457275
1603558559555,929,-1.1027832,-0.45513916,-0.9595337
1603558559556,930,-0.795166,-0.6104126,-0.96588135
1603558559558,931,-0.8039551,-1.0725708,-0.76348877
1603558559558,932,-0.61572266,-0.89923096,-0.583313
1603558559559,933,-0.60717773,-0.954895,-0.5828247
1603558559559,934,-0.7114258,-1.4417114,-0.67315674
1603558559559,935,-0.56103516,-1.2376099,-0.4343872
1603558559560,936,-0.4958496,-1.3963013,-0.40167236
1603558559560,937,-0.45410156,-1.5256958,-0.3328247
1603558559561,938,-0.33740234,-1.05719,-0.56427
1603558559561,939,-0.2019043,0.322937,-0.047668457
1603558559561,940,0.060302734,0.030212402,-0.18145752
1603558559563,941,-0.045410156,-0.27593994,0.0040893555
1603558559564,942,-0.10180664,0.109802246,-0.093811035
1603558559564,943,-0.19555664,0.01361084,-0.12213135
1603558559564,944,-0.037841797,-1.2383423,-0.5137329
1603558559564,945,-0.58569336,-1.9998169,-0.3171997
1603558559564,946,-0.2770996,-0.8189087,-0.3411255
1603558559565,947,-0.21728516,-1.0532837,-0.35235596
1603558559565,948,-0.38476562,-0.7041626,-0.46246338
1603558559566,949,-0.23803711,-0.9927368,-0.3406372
1603558559566,950,-0.5510254,-0.90411377,-0.3171997
1603558559567,951,-0.44555664,-1.1143188,-0.34527588
1603558559567,952,-0.35498047,-1.1690063,-0.4595337
1603558559568,953,-0.4189453,-1.4343872,-0.5244751
1603558559568,954,-0.4399414,-1.2195435,-0.44293213
1603558559569,955,-0.29101562,-0.8423462,-0.33135986
1603558559569,956,-0.22192383,-0.6777954,-0.36553955
1603558559569,957,-0.35668945,-0.7246704,-0.28375244
1603558559570,958,-0.4020996,-0.72125244,-0.42510986
1603558559570,959,-0.8430176,-0.7588501,-1.6594849
1603558562179,960,-0.5588379,-0.5820923,-1.4724731
1603558562179,961,-0.63916016,0.21356201,-0.71832275
1603558562179,962,-0.41308594,-0.004211426,-0.552063
1603558562180,963,-0.25610352,-0.08770752,-0.32525635
1603558562180,964,-0.49072266,0.2140503,-0.64068604
1603558562182,965,-0.2980957,0.39276123,-0.736145
1603558562183,966,-0.6425781,0.2616577,-0.70635986
1603558562183,967,-0.23364258,-0.128479,-0.5545044
1603558562183,968,-0.7722168,-0.6958618,-0.8076782
1603558562183,969,-0.6921387,-0.07720947,-0.9746704
1603558562184,970,-0.88134766,-0.87091064,-1.1453247
1603558562184,971,-0.6201172,-0.46392822,-1.0647583
1603558562184,972,-0.8105469,-0.6026001,-1.048645
1603558562185,973,-0.638916,-0.4290161,-1.0276489
1603558562185,974,-0.7380371,-0.51812744,-1.0388794
1603558562186,975,-0.7138672,-0.6123657,-1.1680298
1603558562186,976,-0.44750977,0.7272339,-0.83306885
1603558562187,977,-0.53930664,0.17108154,-0.2962036
1603558562187,978,0.00390625,-0.33258057,-0.38555908
1603558562188,979,-0.3942871,-0.0491333,-0.3574829
1603558562188,980,-0.4753418,0.13397217,-0.4993286
1603558562189,981,-0.49560547,0.1593628,-1.0230103
1603558562189,982,-0.8852539,-0.25811768,-1.0508423
1603558562189,983,-0.68481445,-0.38043213,-0.98150635
1603558562190,984,-0.84277344,-0.78082275,-0.96539307
1603558562190,985,-0.59936523,-0.956604,-0.8369751
1603558562191,986,-0.57470703,-1.1157837,-0.64849854
1603558562191,987,-0.6376953,-1.206604,-0.5667114
1603558562191,988,-0.52734375,-1.0964966,-0.4343872
1603558562192,989,-0.42211914,-1.2324829,-0.32403564
1603558562192,990,-0.3779297,-1.5366821,-0.32061768
1603558562193,991,-0.3244629,-1.5413208,-0.4187622
1603558564805,992,-0.33544922,-0.79815674,-0.255188
1603558564806,993,-0.049072266,0.66522217,-0.24224854
1603558564807,994,-0.10571289,-0.32891846,-0.085754395
1603558564808,995,0.042236328,-0.21710205,-0.009094238
1603558564809,996,-0.15649414,0.13739014,-0.113342285
1603558564809,997,0.0126953125,-0.17852783,-0.12164307
1603558564809,998,-0.36743164,-1.9998169,0.41082764
1603558564810,999,0.06225586,-1.5684204,0.20965576
1603558564811,1000,0.11352539,-1.4390259,0.06732178
1603558564811,1001,-0.2121582,-0.76275635,-0.04473877
1603558564811,1002,-0.078125,-0.94122314,0.01727295
1603558564812,1003,0.037353516,-0.75909424,-0.057434082
1603558564812,1004,-0.07373047,-1.2085571,0.007507324
1603558564813,1005,-0.38208008,-1.0027466,0.1071167
1603558564814,1006,-0.17041016,-1.0149536,-0.046447754
1603558564814,1007,-0.31396484,-0.9649048,-0.016174316
1603558564815,1008,-0.15332031,-1.0256958,0.036315918
1603558564815,1009,-0.20800781,-0.96295166,0.05999756
1603558564816,1010,-0.2536621,-0.95758057,0.09075928
1603558564816,1011,-0.33764648,-0.9500122,0.10321045
1603558564817,1012,-0.45043945,-0.913147,0.085632324
1603558564817,1013,-0.33007812,-1.0166626,0.08319092
1603558564818,1014,-0.1171875,-1.1692505,-0.10064697
1603558564818,1015,0.14477539,-1.2664185,-0.18511963
1603558564818,1016,0.013916016,-0.90631104,0.02508545
1603558564819,1017,0.03955078,-0.7620239,-0.06793213
1603558564820,1018,0.061035156,-1.164856,-0.0095825195
1603558564820,1019,0.06665039,-0.99224854,0.085632324
1603558564820,1020,0.040527344,-1.2007446,0.070007324
1603558564820,1021,0.05126953,-1.250061,0.023864746
1603558564821,1022,-0.1394043,-0.6416626,-0.11480713
1603558564821,1023,0.0024414062,-1.3567505,-0.023742676
1603558567242,1024,-0.0871582,-0.79644775,0.074645996
1603558567244,1025,0.032958984,-0.9314575,0.050231934
1603558567245,1026,-0.016113281,-0.9199829,0.050720215
1603558567245,1027,-0.12475586,-1.0471802,0.08270264
1603558567248,1028,0.060058594,-1.2935181,-0.16217041
1603558567248,1029,-7.324219E-4,-0.98443604,-0.39263916
1603558567248,1030,-0.007080078,-1.0098267,-0.17193604
1603558567250,1031,0.09301758,-0.9859009,-0.18048096
1603558567250,1032,0.0073242188,-0.95440674,-0.20953369
1603558567250,1033,-0.037353516,-1.0508423,-0.20733643
1603558567251,1034,-0.001953125,-1.0527954,-0.059387207
1603558567251,1035,0.12036133,-0.9795532,-0.04815674
1603558567251,1036,0.13989258,-0.9649048,-0.06866455
1603558567252,1037,0.1484375,-0.9102173,-0.14141846
1603558567252,1038,0.23242188,-1.0979614,-0.06011963
1603558567252,1039,-0.12939453,-1.003479,-0.054260254
1603558567253,1040,-0.46020508,-0.7385864,-0.13189697
1603558567253,1041,-0.50439453,-0.7427368,-0.25860596
1603558567254,1042,-0.4074707,-0.6880493,-0.128479
1603558567254,1043,-0.28710938,-0.5757446,-0.25689697
1603558567254,1044,-0.30078125,-0.64312744,-0.23248291
1603558567255,1045,-0.35302734,-0.8584595,-0.4319458
1603558567255,1046,-0.47705078,-1.3484497,-0.37042236
1603558567255,1047,-0.35742188,-1.3198853,-0.33624268
1603558567256,1048,-0.27197266,-1.2002563,-0.31207275
1603558567256,1049,-0.31591797,-1.0982056,-0.55181885
1603558567256,1050,-0.2290039,-1.3760376,-0.62677
1603558567257,1051,-0.19750977,-0.59161377,-0.5088501
1603558567257,1052,-0.21655273,-0.8272095,-0.54693604
1603558567258,1053,-0.20703125,-0.5803833,-0.7439575
1603558567258,1054,-0.4794922,-0.6987915,-0.7654419
1603558567258,1055,-0.44213867,-0.7024536,-0.8555298
1603558570241,1056,-0.39038086,-0.48516846,-1.0159302
1603558570241,1057,-0.91552734,-0.070129395,-0.736145
1603558570241,1058,-0.5148926,-0.09259033,-0.78985596
1603558570242,1059,-0.69506836,-0.10455322,-0.8545532
1603558570242,1060,-0.5991211,-0.09283447,-0.8069458
1603558570243,1061,-0.7687988,-0.128479,-0.8052368
1603558570243,1062,-0.64038086,-0.15118408,-0.73223877
1603558570244,1063,-0.6113281,-0.14019775,-0.82940674
1603558570244,1064,-0.81274414,-0.16851807,-0.7227173
1603558570245,1065,-0.9248047,-0.10748291,-0.65460205
1603558570246,1066,-0.5961914,-0.10479736,-0.75616455
1603558570247,1067,-0.74731445,-0.24127197,-0.7498169
1603558570248,1068,-0.73339844,-0.11260986,-0.74957275
1603558570248,1069,-0.73291016,-0.27423096,-0.72320557
1603558570248,1070,-0.69189453,-0.27105713,-0.81329346
1603558570248,1071,-0.6621094,-0.51934814,-0.8518677
1603558570249,1072,-0.6623535,-0.6963501,-0.5601196
1603558570250,1073,-0.4650879,-0.50128174,-0.6621704
1603558570250,1074,-0.4050293,-0.7695923,-0.5718384
1603558570250,1075,-0.48266602,-0.65948486,-0.51397705
1603558570251,1076,-0.48461914,-0.74786377,-0.5635376
1603558570251,1077,-0.46435547,-0.78570557,-0.57037354
1603558570251,1078,-0.42919922,-0.7605591,-0.66485596
1603558570252,1079,-0.3942871,-0.7625122,-0.76104736
1603558570252,1080,-0.36206055,-0.6272583,-0.7918091
1603558570252,1081,-0.49291992,-0.43414307,-0.78497314
1603558570253,1082,-0.5444336,-0.34991455,-0.88653564
1603558570253,1083,-0.6484375,-0.12750244,-0.8164673
1603558570254,1084,-0.49121094,-0.26641846,-0.8604126
1603558570254,1085,-0.6904297,-0.28375244,-0.8098755
1603558570255,1086,-0.60058594,-0.24395752,-0.8916626
1603558570255,1087,-0.32885742,-0.21466064,-0.79278564
1603558572491,1088,-0.40649414,-0.2913208,-0.9404907
1603558572492,1089,-0.54541016,-0.09649658,-1.0615845
1603558572494,1090,-0.7390137,-0.26812744,-0.91241455
1603558572495,1091,-0.4987793,-0.27130127,-0.81329346
1603558572496,1092,-0.6755371,-0.24859619,-0.82769775
1603558572498,1093,-0.41015625,-0.17730713,-0.7564087
1603558572498,1094,-0.5270996,-0.4343872,-0.76641846
1603558572498,1095,-0.83081055,-0.31793213,-0.7661743
1603558572499,1096,-0.5546875,-0.33062744,-0.69976807
1603558572499,1097,-0.703125,-0.18341064,-0.88116455
1603558572500,1098,-0.35986328,-0.2300415,-0.91656494
1603558572500,1099,-0.4326172,-0.43292236,-1.031311
1603558572501,1100,-0.38427734,-0.425354,-0.847229
1603558572503,1101,-0.24707031,-0.52423096,-0.928772
1603558572503,1102,-0.29467773,-0.4866333,-0.911438
1603558572503,1103,-0.23510742,-0.60284424,-0.81866455
1603558572503,1104,-0.15771484,-0.6121216,-0.75201416
1603558572505,1105,-0.19238281,-0.7300415,-0.769104
1603558572505,1106,-0.106933594,-0.850647,-0.6836548
1603558572505,1107,-0.10131836,-0.9248657,-0.5991821
1603558572505,1108,-0.15185547,-0.8948364,-0.48492432
1603558572506,1109,-0.26391602,-0.8518677,-0.39068604
1603558572506,1110,-0.3046875,-0.9221802,-0.32989502
1603558572506,1111,-0.2746582,-0.7000122,-0.38580322
1603558572506,1112,-0.38549805,-0.76226807,-0.5615845
1603558572507,1113,-0.6296387,-0.8152466,-0.5354614
1603558572507,1114,-0.70336914,-0.8062134,-0.5288696
1603558572507,1115,-0.9362793,-0.7173462,-0.8220825
1603558572508,1116,-0.33569336,-0.31793213,-0.7295532
1603558572509,1117,-0.7258301,-0.4439087,-0.7632446
1603558572509,1118,-0.33520508,-0.3743286,-0.7346802
1603558572509,1119,-0.5751953,-0.39508057,-0.8164673
1603558575303,1120,-0.50341797,-0.3665161,-0.80426025
1603558575305,1121,-0.29614258,-0.3867798,-0.9026489
1603558575305,1122,-0.8059082,-0.32769775,-0.9158325
1603558575305,1123,0.018554688,-0.22247314,-0.944397
1603558575305,1124,-0.8869629,-0.2786255,-0.9336548
1603558575306,1125,-0.27001953,-0.25958252,-1.0366821
1603558575306,1126,-0.24414062,-0.41412354,-0.9439087
1603558575308,1127,-0.25634766,-0.4500122,-0.85235596
1603558575308,1128,-0.30322266,-0.40338135,-0.93829346
1603558575308,1129,-0.17504883,-0.34014893,-0.87164307
1603558575309,1130,-0.5102539,-0.3032837,-0.78448486
1603558575310,1131,-0.7199707,-0.16925049,-0.82037354
1603558575310,1132,-0.5307617,-0.5396118,-1.1240845
1603558575310,1133,-0.65283203,-0.30059814,-1.1106567
1603558575311,1134,-0.52490234,-0.6655884,-1.0420532
1603558575311,1135,-0.8557129,-0.7114868,-0.8867798
1603558575311,1136,-0.6113281,-0.6819458,-0.8623657
1603558575311,1137,-0.4086914,-0.64263916,-0.8772583
1603558575312,1138,-0.47338867,-0.848938,-0.72979736
1603558575312,1139,-0.30029297,-0.8513794,-0.44610596
1603558575312,1140,-0.26293945,-0.55670166,-0.5574341
1603558575313,1141,-0.7661133,-0.7661743,-0.1873169
1603558575313,1142,-0.39501953,-0.4517212,-0.14605713
1603558575313,1143,-0.18041992,-0.46466064,-0.32843018
1603558575314,1144,-0.46923828,-0.7605591,-0.0049438477
1603558575314,1145,-0.41308594,-1.1785278,0.090270996
1603558575315,1146,-0.2578125,-1.048645,0.20135498
1603558575315,1147,-0.17041016,-0.7329712,0.2033081
1603558575315,1148,-0.27539062,-0.9692993,0.22381592
1603558575315,1149,-0.15258789,-1.1206665,0.04144287
1603558575316,1150,-0.072021484,-1.300354,-0.2781372
1603558575316,1151,0.18530273,-0.8101196,-0.3928833
1603558577722,1152,0.28930664,-1.1721802,-0.159729
1603558577723,1153,0.22436523,-0.9883423,-0.19317627
1603558577724,1154,0.037353516,-0.7490845,0.0016479492
1603558577725,1155,0.14086914,-0.70562744,-0.17633057
1603558577726,1156,0.64331055,-1.0564575,-0.75372314
1603558577727,1157,-0.029296875,-1.3760376,-0.04107666
1603558577728,1158,0.33813477,-0.77349854,-0.41729736
1603558577728,1159,0.12231445,-1.0540161,-0.26202393
1603558577729,1160,0.099121094,-0.9963989,-0.25152588
1603558577730,1161,-0.017822266,-1.0029907,-0.18292236
1603558577730,1162,-0.19824219,-1.0945435,-0.17218018
1603558577730,1163,0.1977539,-0.9561157,-0.1843872
1603558577731,1164,0.18725586,-1.079895,-0.046447754
1603558577731,1165,-0.20654297,-1.0859985,0.015563965
1603558577731,1166,-0.20385742,-0.9512329,-0.06085205
1603558577732,1167,-0.26782227,-1.0872192,0.27191162
1603558577732,1168,-0.21557617,-0.91900635,0.21942139
1603558577732,1169,-0.6333008,-0.78326416,0.20062256
1603558577733,1170,-0.40014648,-0.66241455,0.19500732
1603558577733,1171,-0.8625488,-0.6819458,0.30828857
1603558577733,1172,-0.71484375,-0.770813,0.15447998
1603558577734,1173,-0.5720215,-0.8101196,0.27874756
1603558577734,1174,-0.6323242,-0.75372314,0.24798584
1603558577735,1175,-0.60058594,-0.6380005,0.21820068
1603558577735,1176,-0.50097656,-0.80963135,0.057556152
1603558577736,1177,-0.41259766,-0.8928833,0.14398193
1603558577736,1178,-0.30932617,-1.0161743,0.094177246
1603558577737,1179,-0.20019531,-1.3838501,-0.2000122
1603558577737,1180,-0.37426758,-0.9717407,-0.37799072
1603558577737,1181,-0.005126953,-1.2549438,-0.41534424
1603558577737,1182,0.051757812,-0.9944458,-0.30426025
1603558577738,1183,0.06713867,-0.9536743,-0.26397705
1603558580176,1184,0.057128906,-0.8987427,-0.16680908
1603558580176,1185,0.09326172,-0.8689575,-0.144104
1603558580176,1186,0.20800781,-0.99786377,-0.13482666
1603558580177,1187,0.12426758,-1.1443481,-0.04840088
1603558580177,1188,0.18457031,-0.975647,-0.120910645
1603558580178,1189,-0.09643555,-1.1199341,0.05291748
1603558580178,1190,-0.29052734,-0.47052002,-0.09063721
1603558580179,1191,-0.28759766,-0.69976807,-0.13531494
1603558580180,1192,-0.22338867,-0.7510376,-0.19366455
1603558580180,1193,-0.5144043,-1.468811,-0.40264893
1603558580180,1194,-0.5830078,-1.9998169,-0.24053955
1603558580180,1195,-0.09033203,-1.9998169,-0.24053955
1603558580181,1196,-0.33618164,-1.6397095,-0.07891846
1603558580181,1197,-0.17602539,1.1381226,-0.39752197
1603558580181,1198,0.08569336,-0.71539307,0.15594482
1603558580182,1199,-0.16967773,0.2074585,-0.1260376
1603558580183,1200,-0.107177734,-0.031066895,-0.16217041
1603558580183,1201,-0.043945312,-0.016906738,-0.19537354
1603558580183,1202,-0.12597656,-0.027160645,-0.09283447
1603558580183,1203,-0.4609375,-1.9998169,-0.046936035
1603558580184,1204,0.0075683594,-1.9998169,0.051696777
1603558580185,1205,-0.265625,-1.2002563,-6.1035156E-5
1603558580185,1206,-0.083740234,-1.4483032,0.039001465
1603558580185,1207,-0.09350586,-1.1541138,0.04168701
1603558580186,1208,0.07714844,-0.49371338,-0.25372314
1603558580186,1209,-0.75341797,-1.0327759,-0.22418213
1603558580186,1210,-0.46557617,-1.0232544,-0.2625122
1603558580187,1211,-0.43652344,-1.0794067,-0.09625244
1603558580187,1212,-0.19921875,-0.7354126,-0.054016113
1603558580188,1213,-0.109375,-0.7451782,-0.031799316
1603558580188,1214,-0.068603516,-0.88409424,0.02947998
1603558580189,1215,-0.25463867,-0.88531494,-0.04449463
1603558582988,1216,-0.21459961,-1.1721802,-0.3591919
1603558582988,1217,-0.008300781,-1.0964966,-0.43414307
1603558582989,1218,-0.06298828,-1.0403442,-0.4439087
1603558582990,1219,-0.079589844,-0.9143677,-0.3567505
1603558582990,1220,-0.44750977,-0.79229736,-0.43829346
1603558582991,1221,-0.13134766,-0.87164307,-0.3526001
1603558582991,1222,-0.07714844,-0.9522095,-0.4788208
1603558582992,1223,-0.15161133,-0.960022,-0.5991821
1603558582993,1224,-0.43945312,-0.8765259,-0.6680298
1603558582993,1225,-0.20581055,-0.8364868,-0.5664673
1603558582994,1226,-0.1875,-0.86920166,-0.6289673
1603558582995,1227,-0.12548828,-0.85650635,-0.61553955
1603558582995,1228,-0.29711914,-0.82037354,-0.57281494
1603558582996,1229,-0.3466797,-0.72320557,-0.3591919
1603558582996,1230,-0.7583008,-1.1172485,-0.34552002
1603558582996,1231,-0.59814453,-1.0147095,-0.43511963
1603558582998,1232,-0.5600586,-0.89556885,-0.394104
1603558582999,1233,-0.45776367,-0.72540283,-0.37213135
1603558582999,1234,-0.4711914,-0.6734009,-0.41461182
1603558582999,1235,-0.7199707,-0.76763916,-0.553772
1603558582999,1236,-0.14160156,-1.0857544,-0.34332275
1603558582999,1237,-0.5842285,-0.8115845,-0.31793213
1603558582999,1238,-0.20996094,-0.972229,-0.38238525
1603558583000,1239,-0.46533203,-0.89801025,-0.36090088
1603558583001,1240,-0.32104492,-0.84332275,-0.43170166
1603558583001,1241,-0.44384766,-0.93536377,-0.43145752
1603558583001,1242,-0.4013672,-0.7803345,-0.41485596
1603558583001,1243,-0.38964844,-0.8233032,-0.3538208
1603558583001,1244,-0.5358887,-0.9221802,-0.3423462
1603558583003,1245,-0.38745117,-0.87384033,-0.4336548
1603558583003,1246,-0.64331055,-0.95977783,-0.41412354
1603558583004,1247,-0.43798828,-0.6939087,-0.36871338
1603558585805,1248,-0.5349121,-0.83599854,-0.3587036
1603558585805,1249,-0.60009766,-0.7901001,-0.35333252
1603558585807,1250,-0.62768555,-0.8526001,-0.32965088
1603558585808,1251,-0.5744629,-0.8135376,-0.28619385
1603558585809,1252,-0.55322266,-0.80963135,-0.2822876
1603558585810,1253,-0.71899414,-0.911438,-0.43389893
1603558585811,1254,-0.40429688,-0.942688,-0.47955322
1603558585813,1255,-0.5,-0.71588135,-0.5462036
1603558585813,1256,-0.3647461,-0.7932739,-0.48687744
1603558585814,1257,-0.33081055,-0.77471924,-0.47491455
1603558585814,1258,-0.48095703,-0.88653564,-0.4517212
1603558585814,1259,-0.40478516,-0.87872314,-0.4187622
1603558585815,1260,-0.49145508,-0.81866455,-0.6091919
1603558585815,1261,-0.5366211,-0.78863525,-0.57769775
1603558585816,1262,-0.68896484,-0.75567627,-0.427063
1603558585816,1263,-0.32543945,-0.92633057,-0.39630127
1603558585817,1264,-0.39575195,-0.68536377,-0.2666626
1603558585817,1265,-0.49291992,-0.8814087,-0.26324463
1603558585817,1266,-0.671875,-0.9133911,-0.48638916
1603558585818,1267,-0.31274414,-0.80474854,-0.7752075
1603558585818,1268,-0.28588867,-0.8870239,-0.64727783
1603558585818,1269,-0.33935547,-0.8880005,-0.47540283
1603558585819,1270,-0.2680664,-0.8496704,-0.49761963
1603558585819,1271,-0.36791992,-0.7942505,-0.4487915
1603558585819,1272,-0.40429688,-0.8303833,-0.4649048
1603558585820,1273,-0.39624023,-0.85528564,-0.45318604
1603558585820,1274,-0.51660156,-0.9817505,-0.5459595
1603558585821,1275,-0.40454102,-0.80181885,-0.4282837
1603558585821,1276,-0.59765625,-0.7788696,-0.38482666
1603558585821,1277,-0.42236328,-0.82281494,-0.3875122
1603558585822,1278,-0.5029297,-0.7427368,-0.39898682
1603558585822,1279,-0.52563477,-0.86309814,-0.2744751
1603558588054,1280,-0.5788574,-0.8015747,-0.30377197
1603558588055,1281,-0.6220703,-0.8255005,-0.6543579
1603558588056,1282,-0.25952148,-0.9636841,-0.53253174
1603558588057,1283,-0.55322266,-0.86553955,-0.4776001
1603558588059,1284,-0.21118164,-0.89801025,-0.44366455
1603558588059,1285,-0.43041992,-0.7102661,-0.43023682
1603558588060,1286,-0.48364258,-0.8726196,-0.41412354
1603558588060,1287,-0.45922852,-0.9019165,-0.4043579
1603558588061,1288,-0.49926758,-0.8428345,-0.52056885
1603558588061,1289,-0.5800781,-0.81866455,-0.46905518
1603558588061,1290,-0.5666504,-0.850647,-0.3892212
1603558588061,1291,-0.38793945,-0.78790283,-0.35040283
1603558588062,1292,-0.5354004,-0.85479736,-0.29742432
1603558588062,1293,-0.43359375,-0.9163208,-0.3069458
1603558588062,1294,-0.65625,-0.8381958,-0.56817627
1603558588063,1295,9.765625E-4,-0.878479,-0.68463135
1603558588063,1296,-0.65649414,-0.9175415,-0.4824829
1603558588063,1297,-0.24584961,-0.77008057,-0.48028564
1603558588064,1298,-0.34545898,-0.78570557,-0.4541626
1603558588064,1299,-0.47607422,-0.9417114,-0.35992432
1603558588064,1300,-0.46972656,-0.9558716,-0.30767822
1603558588065,1301,-0.3947754,-0.8496704,-0.42218018
1603558588066,1302,-0.4362793,-0.8208618,-0.5654907
1603558588066,1303,-0.7199707,-0.8789673,-0.40338135
1603558588068,1304,-0.41015625,-0.8640747,-0.35040283
1603558588069,1305,-0.43579102,-0.83917236,-0.25567627
1603558588069,1306,-0.45996094,-0.9312134,-0.24542236
1603558588069,1307,-0.5053711,-0.7583618,-0.36480713
1603558588069,1308,-0.27319336,-0.78863525,-0.74664307
1603558588070,1309,-0.48510742,-1.100647,-0.39996338
1603558588070,1310,-0.20385742,-0.8110962,-0.34161377
1603558588070,1311,-0.29248047,-0.8296509,-0.38946533
1603558590867,1312,-0.48901367,-0.9060669,-0.3303833
1603558590868,1313,-0.501709,-1.1008911,-0.28424072
1603558590869,1314,-0.24438477,-0.8064575,-0.46636963
1603558590870,1315,-0.5925293,-0.86309814,-0.53082275
1603558590871,1316,-0.5336914,-0.9458618,-0.3887329
1603558590872,1317,-0.4873047,-0.8135376,-0.34576416
1603558590872,1318,-0.43041992,-0.8074341,-0.31402588
1603558590872,1319,-0.40649414,-0.83917236,-0.28619385
1603558590872,1320,-0.52734375,-0.9360962,-0.27667236
1603558590872,1321,-0.45092773,-0.8616333,-0.41290283
1603558590874,1322,-0.6035156,-0.8040161,-0.5647583
1603558590874,1323,-0.36157227,-0.74224854,-0.74420166
1603558590874,1324,-0.39233398,-0.7095337,-0.5628052
1603558590874,1325,-0.41308594,-0.6958618,-0.7346802
1603558590875,1326,-0.31054688,-0.63897705,-0.74591064
1603558590875,1327,-0.31445312,-0.8543091,-0.6289673
1603558590875,1328,-0.3017578,-0.958313,-0.6194458
1603558590876,1329,-0.18554688,-0.9661255,-0.57403564
1603558590877,1330,-0.24731445,-0.96466064,-0.46002197
1603558590877,1331,-0.08618164,-0.9273071,-0.41851807
1603558590878,1332,-0.10498047,-0.9048462,-0.41729736
1603558590879,1333,-0.034423828,-1.0093384,-0.38043213
1603558590879,1334,-0.14819336,-1.052063,-0.32281494
1603558590879,1335,-0.15478516,-0.90704346,-0.30767822
1603558590879,1336,-0.38623047,-1.0286255,-0.20391846
1603558590880,1337,-0.13378906,-0.83013916,-0.22076416
1603558590880,1338,-0.39013672,-0.9194946,-0.17926025
1603558590880,1339,-0.27929688,-0.8106079,-0.1572876
1603558590881,1340,-0.17993164,-0.55255127,-0.43536377
1603558590881,1341,-0.64990234,-1.0269165,-0.74053955
1603558590882,1342,-0.15332031,-0.92071533,-0.2979126
1603558590882,1343,-0.4790039,-0.4541626,-0.4336548
1603558593117,1344,-0.2541504,-0.7901001,-0.5039673
1603558593117,1345,-0.5131836,-0.8965454,-0.4866333
1603558593119,1346,-0.28344727,-1.1983032,-0.42730713
1603558593120,1347,-0.22851562,-1.0464478,-0.3579712
1603558593120,1348,-0.16552734,-1.0122681,-0.13726807
1603558593120,1349,-0.20263672,-1.7588501,0.08319092
1603558593121,1350,-0.0146484375,-0.4541626,0.18450928
1603558593123,1351,0.12841797,-0.91900635,0.45526123
1603558593123,1352,0.06347656,-1.1990356,0.6141968
1603558593123,1353,0.12939453,-0.56451416,0.293396
1603558593123,1354,0.12548828,-1.0471802,0.47357178
1603558593123,1355,0.1640625,-0.84039307,0.494812
1603558593124,1356,0.17407227,-0.8110962,0.49676514
1603558593125,1357,0.18383789,-0.87701416,0.49383545
1603558593126,1358,0.17260742,-0.8467407,0.5067749
1603558593126,1359,0.13012695,-0.819397,0.38812256
1603558593127,1360,0.092285156,-0.9468384,0.3895874
1603558593127,1361,0.16601562,-0.90704346,0.3776245
1603558593128,1362,0.08520508,-0.894104,0.3163452
1603558593129,1363,0.122802734,-0.8665161,0.3895874
1603558593130,1364,0.14208984,-0.8562622,0.42352295
1603558593130,1365,0.14208984,-0.87579346,0.4262085
1603558593130,1366,0.11816406,-0.9182739,0.34954834
1603558593130,1367,-0.047851562,-0.972229,0.1798706
1603558593130,1368,-0.06762695,-0.9265747,0.03753662
1603558593131,1369,-0.111083984,-1.0303345,-0.04156494
1603558593131,1370,-0.29638672,-1.1897583,-0.20367432
1603558593132,1371,-0.46728516,-1.0913696,-0.6314087
1603558593132,1372,-0.6010742,-1.2332153,-0.6560669
1603558593133,1373,-0.5961914,-0.9644165,-0.61138916
1603558593134,1374,-0.5534668,-0.8574829,-0.55010986
1603558593134,1375,-0.45239258,-0.78009033,-0.54351807
1603558595740,1376,-0.28027344,-0.72247314,-0.41241455
1603558595741,1377,-0.1875,-0.46392822,-0.30841064
1603558595742,1378,-0.087402344,-0.6030884,-0.32061768
1603558595742,1379,-0.18066406,-0.9109497,-0.237854
1603558595743,1380,-0.0637207,-0.9546509,-0.1428833
1603558595744,1381,0.11450195,-1.1707153,-0.093566895
1603558595745,1382,0.14208984,-1.1726685,-0.13336182
1603558595746,1383,-0.47607422,-0.96099854,-0.04522705
1603558595746,1384,0.028320312,-1.0288696,-0.124816895
1603558595747,1385,-0.13867188,-0.9343872,-0.013000488
1603558595747,1386,0.039794922,-0.9741821,-0.043273926
1603558595748,1387,0.107177734,-1.0903931,0.024108887
1603558595748,1388,0.13305664,-1.0198364,-0.24859619
1603558595750,1389,-0.021972656,-1.0154419,-0.5557251
1603558595750,1390,0.09277344,-1.1096802,-0.47857666
1603558595751,1391,0.107666016,-0.9841919,-0.49517822
1603558595751,1392,0.006591797,-1.0540161,-0.3250122
1603558595751,1393,0.12475586,-0.9702759,-0.19781494
1603558595751,1394,0.17358398,-1.0181274,-0.13214111
1603558595751,1395,0.26538086,-1.041565,-0.16558838
1603558595752,1396,-0.075927734,-1.0083618,-0.32867432
1603558595753,1397,-0.28173828,-0.9981079,-0.15899658
1603558595753,1398,-0.09448242,-1.1609497,-0.10675049
1603558595753,1399,-0.14160156,-1.0110474,0.010681152
1603558595753,1400,-0.013916016,-0.9702759,0.07537842
1603558595754,1401,-0.08081055,-0.99298096,0.066101074
1603558595754,1402,-0.2109375,-0.9541626,0.08343506
1603558595755,1403,0.023925781,-1.2371216,-0.13824463
1603558595755,1404,0.044189453,-1.0046997,-0.13775635
1603558595756,1405,0.13110352,-0.880188,-0.3381958
1603558595757,1406,0.07006836,-1.0188599,-0.2432251
1603558595757,1407,0.008544922,-0.9734497,-0.26202393
