# Sensor position: Wrist
# Sensor side: Right
# Activity type: Movement
# Activity code: 9
# Subject id: s1710228
timestamp,seq,accel_x,accel_y,accel_z
1603557423586,0,-0.9003906,-0.16265869,0.43499756
1603557423587,1,-0.90771484,-0.16656494,0.43182373
1603557423588,2,-0.9030762,-0.16119385,0.43377686
1603557423588,3,-0.91064453,-0.15704346,0.432312
1603557423589,4,-0.9042969,-0.1494751,0.4310913
1603557423589,5,-0.9025879,-0.15093994,0.4303589
1603557423590,6,-0.9094238,-0.1651001,0.43670654
1603557423590,7,-0.9042969,-0.16778564,0.43719482
1603557423591,8,-0.90356445,-0.1638794,0.43011475
1603557423592,9,-0.91137695,-0.15802002,0.43011475
1603557423592,10,-0.90722656,-0.15142822,0.43548584
1603557423592,11,-0.91381836,-0.15338135,0.4352417
1603557423593,12,-0.9104004,-0.159729,0.42938232
1603557423593,13,-0.91015625,-0.16217041,0.43304443
1603557423593,14,-0.91064453,-0.16412354,0.43206787
1603557423594,15,-0.9033203,-0.15777588,0.42523193
1603557423594,16,-0.91137695,-0.15826416,0.4237671
1603557423595,17,-0.91186523,-0.15435791,0.42694092
1603557423595,18,-0.9135742,-0.15435791,0.42718506
1603557423597,19,-0.91186523,-0.15631104,0.4303589
1603557423597,20,-0.9152832,-0.15679932,0.42694092
1603557423597,21,-0.9116211,-0.15582275,0.4303589
1603557423599,22,-0.91259766,-0.15948486,0.42352295
1603557423600,23,-0.9108887,-0.16021729,0.4232788
1603557423600,24,-0.9111328,-0.15631104,0.4286499
1603557423601,25,-0.9147949,-0.16168213,0.42596436
1603557423601,26,-0.9111328,-0.15386963,0.42816162
1603557423601,27,-0.91186523,-0.15631104,0.42840576
1603557423601,28,-0.91064453,-0.15386963,0.42474365
1603557423602,29,-0.91430664,-0.1506958,0.4257202
1603557423602,30,-0.9121094,-0.1531372,0.42767334
1603557423602,31,-0.9111328,-0.15679932,0.43060303
1603557426124,32,-0.91064453,-0.15362549,0.43182373
1603557426125,33,-0.9121094,-0.1506958,0.42962646
1603557426126,34,-0.91015625,-0.14508057,0.42718506
1603557426127,35,-0.91259766,-0.14556885,0.43011475
1603557426128,36,-0.91308594,-0.14849854,0.43841553
1603557426129,37,-0.90966797,-0.13848877,0.43988037
1603557426130,38,-0.91259766,-0.13214111,0.4352417
1603557426131,39,-0.88012695,-0.12042236,0.44696045
1603557426132,40,-0.9194336,-0.1272583,0.5170288
1603557426132,41,-0.86743164,-0.105041504,0.5465698
1603557426132,42,-0.8059082,-0.10675049,0.5248413
1603557426133,43,-0.8540039,-0.08135986,0.54071045
1603557426133,44,-0.79296875,-0.09136963,0.5309448
1603557426133,45,-0.75097656,-0.09234619,0.5153198
1603557426133,46,-0.82592773,-0.15826416,0.4159546
1603557426134,47,-0.9885254,-0.20050049,0.29388428
1603557426134,48,-1.0039062,-0.24127197,0.24041748
1603557426135,49,-1.0498047,-0.32818604,0.25604248
1603557426135,50,-0.97875977,-0.46343994,0.24359131
1603557426136,51,-0.83691406,-0.4295044,0.22137451
1603557426139,52,-0.6386719,-0.4661255,0.16448975
1603557426139,53,-0.62060547,-0.3772583,0.22283936
1603557426139,54,-0.68847656,-0.3670044,0.25701904
1603557426139,55,-0.86621094,-0.5791626,0.41131592
1603557426139,56,-0.9777832,-0.60479736,0.5651245
1603557426139,57,-1.0795898,-0.54229736,0.6244507
1603557426140,58,-1.1213379,-0.46759033,0.67108154
1603557426140,59,-0.82299805,-0.49102783,0.6520386
1603557426140,60,-0.67822266,-0.4043579,0.7284546
1603557426140,61,-0.3635254,-0.3411255,0.7374878
1603557426140,62,-0.17993164,-0.33380127,0.7723999
1603557426141,63,-0.33007812,-0.086242676,0.8895874
1603557428658,64,-0.34448242,-0.08721924,0.92645264
1603557428658,65,-0.3244629,0.07733154,0.920105
1603557428659,66,-0.31518555,0.07171631,0.89959717
1603557428660,67,-0.20263672,0.039733887,0.7963257
1603557428661,68,-0.09301758,0.010437012,0.94647217
1603557428663,69,-0.15356445,0.13934326,0.9689331
1603557428663,70,-0.3947754,0.062927246,0.8851929
1603557428665,71,-0.4868164,-0.019104004,0.86590576
1603557428665,72,-0.47875977,-0.101135254,0.81463623
1603557428665,73,-0.41088867,-0.20880127,0.68743896
1603557428670,74,-0.3244629,-0.28790283,0.82025146
1603557428670,75,-0.2607422,-0.40997314,0.92767334
1603557428670,76,-0.5505371,-0.7263794,0.6456909
1603557428670,77,-0.71606445,-0.44122314,0.75457764
1603557428670,78,-0.77905273,-0.6026001,0.6227417
1603557428671,79,-0.92626953,-0.6211548,0.4093628
1603557428671,80,-0.9050293,-0.506897,0.22235107
1603557428671,81,-0.89331055,-0.6958618,0.2789917
1603557428671,82,-1.0065918,-0.552063,0.36712646
1603557428671,83,-1.2385254,-0.17779541,0.34002686
1603557428671,84,-0.92700195,-0.13018799,0.062194824
1603557428672,85,-0.7348633,-0.1519165,0.19281006
1603557428674,86,-0.59277344,-0.15533447,0.20892334
1603557428674,87,-0.72875977,-0.270813,0.20916748
1603557428674,88,-0.9499512,-0.22686768,0.47332764
1603557428674,89,-0.9538574,-0.042053223,0.6000366
1603557428674,90,-0.92993164,-0.116760254,0.53045654
1603557428674,91,-0.85668945,-0.24151611,0.4569702
1603557428676,92,-0.64868164,-0.19805908,0.31976318
1603557428676,93,-0.46679688,-0.2564087,0.22088623
1603557428676,94,-0.68896484,-0.34527588,0.31903076
1603557428676,95,-0.7861328,-0.18878174,0.4118042
1603557431581,96,-0.76660156,-0.29864502,0.37127686
1603557431581,97,-1.2116699,-0.64801025,0.5985718
1603557431581,98,-0.94091797,-0.49908447,0.6984253
1603557431582,99,-0.72509766,-0.5767212,0.80926514
1603557431584,100,-0.69433594,-0.38531494,0.8895874
1603557431584,101,-0.8208008,-0.46392822,0.8317261
1603557431584,102,-0.5402832,-0.23834229,0.6168823
1603557431584,103,-0.36669922,-0.23272705,0.5524292
1603557431585,104,-0.5227051,-0.40948486,1.0465698
1603557431585,105,-0.51904297,-0.37677002,0.7716675
1603557431585,106,-0.45947266,-0.17901611,0.7531128
1603557431586,107,-0.45092773,-0.19439697,0.8119507
1603557431586,108,-0.3876953,-0.4031372,0.86395264
1603557431587,109,-0.34594727,-0.19561768,0.82611084
1603557431588,110,-0.36035156,-0.09942627,0.91571045
1603557431589,111,-0.3630371,-0.11553955,0.8497925
1603557431589,112,-0.28393555,-0.046936035,0.9154663
1603557431589,113,-0.32910156,-0.073791504,0.9179077
1603557431589,114,-0.42529297,-0.027404785,0.81903076
1603557431590,115,-0.47924805,-0.14215088,0.77752686
1603557431590,116,-0.4555664,-0.26885986,0.8373413
1603557431591,117,-0.4020996,-0.24517822,0.8287964
1603557431591,118,-0.45483398,-0.27667236,0.73968506
1603557431591,119,-0.49804688,-0.37408447,0.7374878
1603557431592,120,-0.5361328,-0.43658447,0.7055054
1603557431592,121,-0.5979004,-0.47027588,0.6107788
1603557431593,122,-0.86987305,-0.7415161,0.6576538
1603557431594,123,-0.8684082,-0.55010986,0.44647217
1603557431594,124,-0.9328613,-0.5720825,0.2477417
1603557431594,125,-1.0002441,-0.7781372,0.061950684
1603557431594,126,-0.98779297,-0.58184814,0.15863037
1603557431595,127,-1.0432129,-0.36260986,0.12689209
1603557433903,128,-1.0461426,-0.19268799,0.018005371
1603557433904,129,-0.76708984,-0.144104,0.04046631
1603557433904,130,-0.77685547,-0.13433838,0.17718506
1603557433905,131,-0.8457031,-0.057678223,0.18548584
1603557433907,132,-1.0004883,-0.021057129,0.2662964
1603557433908,133,-1.0861816,0.049743652,0.30194092
1603557433909,134,-0.873291,0.0060424805,0.29486084
1603557433909,135,-1.0046387,-0.049865723,0.31756592
1603557433910,136,-1.045166,-0.11212158,0.32855225
1603557433911,137,-0.9238281,-0.11431885,0.26483154
1603557433911,138,-0.74121094,-0.14727783,0.15716553
1603557433912,139,-0.58154297,-0.124572754,0.12762451
1603557433912,140,-0.7512207,-0.25836182,0.16644287
1603557433912,141,-0.9929199,-0.37554932,0.31195068
1603557433913,142,-1.2365723,-0.4998169,0.57366943
1603557433914,143,-1.0185547,-0.4277954,0.17449951
1603557433914,144,-0.907959,-0.5371704,0.31365967
1603557433914,145,-0.7644043,-0.5923462,0.50164795
1603557433915,146,-0.8730469,-0.6243286,0.55999756
1603557433915,147,-0.8666992,-0.6309204,0.50579834
1603557433915,148,-0.7233887,-0.40948486,0.46575928
1603557433916,149,-0.59936523,-0.48321533,0.5529175
1603557433917,150,-0.63500977,-0.5466919,0.68377686
1603557433918,151,-0.6381836,-0.4517212,0.713562
1603557433918,152,-0.5505371,-0.3369751,0.6959839
1603557433919,153,-0.5119629,-0.20074463,0.7645874
1603557433919,154,-0.48095703,-0.190979,0.793396
1603557433919,155,-0.4638672,-0.20977783,0.88983154
1603557433920,156,-0.30541992,-0.15899658,0.80340576
1603557433920,157,-0.1850586,-0.06890869,0.887146
1603557433920,158,-0.32128906,-0.14849854,1.0214233
1603557433920,159,-0.3630371,-0.19195557,0.87957764
1603557436828,160,-0.42456055,-0.16363525,0.83587646
1603557436829,161,-0.5124512,-0.1494751,0.6742554
1603557436829,162,-0.4465332,-0.24542236,0.8571167
1603557436831,163,-0.32543945,-0.27667236,0.88201904
1603557436831,164,-0.38720703,-0.3430786,0.7235718
1603557436832,165,-0.4494629,-0.36187744,0.74823
1603557436832,166,-0.52490234,-0.43218994,0.63934326
1603557436833,167,-0.92163086,-0.63482666,0.6847534
1603557436833,168,-0.91064453,-0.46832275,0.5668335
1603557436834,169,-0.9650879,-0.60528564,0.2970581
1603557436834,170,-0.97802734,-0.55303955,0.15472412
1603557436836,171,-0.92089844,-0.41461182,0.07147217
1603557436836,172,-1.0859375,-0.37335205,0.13519287
1603557436837,173,-1.4211426,-0.34405518,0.1317749
1603557436837,174,-0.5354004,0.15228271,-0.051330566
1603557436838,175,-0.70703125,0.19525146,0.24945068
1603557436838,176,-1.0317383,-0.32769775,0.2255249
1603557436839,177,-0.95947266,-0.22418213,0.30877686
1603557436839,178,-1.0651855,-0.49298096,0.5036011
1603557436839,179,-1.0625,-0.64923096,0.6425171
1603557436840,180,-0.84350586,-0.72857666,0.53778076
1603557436840,181,-0.6687012,-0.62994385,0.4022827
1603557436840,182,-0.41845703,-0.4907837,0.26727295
1603557436842,183,-0.43041992,-0.48565674,0.28411865
1603557436842,184,-0.48242188,-0.6074829,0.43450928
1603557436842,185,-0.44873047,-0.7156372,0.52996826
1603557436842,186,-0.45288086,-0.7703247,0.5907593
1603557436843,187,-0.37109375,-0.8274536,0.5985718
1603557436843,188,-0.20727539,-0.7827759,0.54730225
1603557436844,189,-0.22338867,-0.9338989,0.5524292
1603557436844,190,-0.16308594,-0.9199829,0.48406982
1603557436845,191,-0.12866211,-0.8574829,0.43426514
1603557438993,192,-0.13134766,-0.8555298,0.43426514
1603557438993,193,-0.040283203,-0.9534302,0.3764038
1603557438994,194,0.036865234,-1.1172485,0.37738037
1603557438994,195,-0.028564453,-1.0025024,0.293396
1603557438995,196,-0.0087890625,-0.5828247,0.17718506
1603557438996,197,-0.25756836,-0.54229736,0.14202881
1603557438996,198,-0.75561523,-0.6812134,0.3583374
1603557438998,199,-0.7492676,-0.46392822,0.40374756
1603557438998,200,-1.0866699,-0.32574463,0.58099365
1603557438999,201,-1.1713867,-0.46881104,0.63079834
1603557439000,202,-1.1696777,-0.36138916,0.6676636
1603557439000,203,-0.9394531,-0.4031372,0.5309448
1603557439001,204,-0.78393555,-0.4241333,0.43841553
1603557439001,205,-0.8647461,-0.4031372,0.40057373
1603557439003,206,-1.0141602,-0.42608643,0.3690796
1603557439003,207,-1.2641602,-0.4661255,0.39227295
1603557439003,208,-1.170166,-0.45074463,0.30999756
1603557439003,209,-1.125,-0.472229,0.25872803
1603557439004,210,-1.0842285,-0.33599854,0.24334717
1603557439004,211,-0.9824219,-0.31134033,0.19476318
1603557439004,212,-0.8154297,-0.37872314,0.17156982
1603557439004,213,-0.7402344,-0.45513916,0.28338623
1603557439005,214,-0.5534668,-0.5322876,0.5180054
1603557439005,215,-0.35742188,-0.60406494,0.71258545
1603557439006,216,-0.1508789,-0.8892212,0.77215576
1603557439006,217,-0.2409668,-1.0274048,0.74505615
1603557439007,218,-0.15917969,-0.9138794,0.6884155
1603557439007,219,-0.0925293,-0.6572876,0.39056396
1603557439008,220,-0.24682617,-0.58428955,0.19256592
1603557439008,221,-0.5637207,-0.4529419,0.04852295
1603557439008,222,-1.4624023,-0.25616455,0.19256592
1603557439009,223,-1.7648926,-0.6604614,0.23822021
1603557441721,224,-1.7050781,-0.5393677,0.57244873
1603557441722,225,-1.0871582,-0.5466919,0.74432373
1603557441722,226,-0.55029297,-1.5281372,-0.99005127
1603557441723,227,-0.43798828,-1.4365845,-0.12310791
1603557441724,228,0.24951172,-0.8057251,0.21063232
1603557441725,229,0.3798828,-0.9495239,0.047546387
1603557441725,230,0.5202637,-0.7842407,-0.3201294
1603557441726,231,-0.33544922,-0.85943604,0.89642334
1603557441727,232,-0.8129883,-0.012512207,0.48138428
1603557441727,233,0.78027344,-0.19805908,-0.49786377
1603557441728,234,0.83496094,-1.1409302,0.607605
1603557441728,235,0.6394043,-0.69317627,0.9154663
1603557441729,236,0.7619629,-0.6963501,0.40985107
1603557441729,237,0.6923828,-0.48345947,0.4220581
1603557441730,238,0.532959,-0.53375244,0.355896
1603557441730,239,0.032958984,-0.7131958,0.20013428
1603557441730,240,-0.66796875,-1.2739868,0.5397339
1603557441731,241,0.01953125,-0.98394775,0.29364014
1603557441731,242,0.22094727,-0.59332275,0.45257568
1603557441732,243,0.04638672,-0.4290161,0.5326538
1603557441733,244,-0.46166992,-0.4512329,0.4105835
1603557441733,245,-0.9602051,-0.66851807,0.3781128
1603557441734,246,-1.3522949,-0.46246338,0.8041382
1603557441734,247,-1.2568359,-0.6157837,0.6046753
1603557441734,248,-1.1398926,-0.7036743,0.31854248
1603557441736,249,-1.1000977,-0.66729736,-0.012512207
1603557441737,250,-1.046875,-0.4331665,0.14520264
1603557441737,251,-1.2226562,-0.487854,0.06488037
1603557441737,252,-1.0004883,-0.70269775,-0.074035645
1603557441737,253,-0.8300781,-0.97442627,0.137146
1603557441737,254,-0.79589844,-0.9209595,0.22991943
1603557441738,255,-0.8063965,-0.9480591,0.26483154
1603557444258,256,-0.24414062,-0.7930298,-0.11895752
1603557444258,257,0.75,-0.5811157,-0.34039307
1603557444259,258,-0.27001953,-1.0481567,0.34979248
1603557444259,259,-0.3605957,-0.82403564,0.8900757
1603557444261,260,0.34301758,-0.70025635,0.5350952
1603557444261,261,0.8063965,-0.68292236,0.16107178
1603557444262,262,0.2841797,-0.18096924,0.4911499
1603557444262,263,-0.15917969,-0.6970825,0.16156006
1603557444263,264,0.05908203,-1.0234985,0.1564331
1603557444263,265,0.33862305,-1.27594,0.4713745
1603557444264,266,0.038330078,-1.4143677,0.5392456
1603557444265,267,-0.032226562,-1.1987915,0.16326904
1603557444267,268,0.7570801,-0.0068969727,0.22698975
1603557444268,269,1.7033691,0.8829956,-0.18414307
1603557444268,270,0.7060547,-1.1484985,-0.03253174
1603557444268,271,-0.057861328,-1.2717896,0.62127686
1603557444268,272,0.37573242,0.15570068,0.7850952
1603557444268,273,0.34936523,-0.3460083,0.7157593
1603557444269,274,0.625,0.04486084,0.64276123
1603557444270,275,0.5944824,-0.22052002,0.6901245
1603557444270,276,0.55908203,-0.5393677,0.48968506
1603557444270,277,0.5854492,-0.4307251,0.6588745
1603557444270,278,0.5427246,-0.36016846,0.75897217
1603557444270,279,0.6513672,-0.34747314,0.524353
1603557444272,280,0.6694336,-0.44976807,0.479187
1603557444272,281,0.58251953,-0.48468018,0.5968628
1603557444272,282,0.39819336,-0.45343018,0.9135132
1603557444272,283,0.3461914,-0.34527588,0.9840698
1603557444272,284,0.47924805,-0.61968994,0.6991577
1603557444273,285,0.53393555,-0.71710205,0.6786499
1603557444273,286,0.7475586,-0.3904419,0.10418701
1603557444274,287,0.5888672,0.10345459,0.3373413
1603557446793,288,0.3642578,0.3607788,1.0951538
1603557446794,289,0.29956055,-0.33673096,1.1246948
1603557446795,290,0.46972656,-0.042053223,1.0621948
1603557446798,291,0.40356445,-0.018127441,0.9179077
1603557446798,292,0.32348633,-0.030578613,0.807312
1603557446798,293,0.30688477,0.06097412,0.73651123
1603557446799,294,0.3244629,0.062438965,0.7723999
1603557446800,295,0.30029297,0.06829834,0.77264404
1603557446801,296,0.30517578,0.25042725,0.77508545
1603557446801,297,0.32836914,0.33172607,0.7626343
1603557446802,298,0.35131836,0.48480225,0.6293335
1603557446802,299,0.38208008,0.6610718,0.63275146
1603557446803,300,0.36791992,0.19647217,0.9039917
1603557446803,301,0.47338867,0.26654053,0.8825073
1603557446803,302,0.4777832,0.32269287,0.732605
1603557446804,303,0.46899414,0.30291748,0.58636475
1603557446805,304,0.48608398,0.22332764,0.61517334
1603557446805,305,0.4711914,0.23480225,0.73968506
1603557446805,306,0.4663086,0.28875732,0.80462646
1603557446805,307,0.46606445,0.29364014,0.7785034
1603557446806,308,0.49902344,0.26068115,0.71087646
1603557446806,309,0.4958496,0.3126831,0.7362671
1603557446807,310,0.4482422,0.26263428,0.760437
1603557446807,311,0.4501953,0.30096436,0.72821045
1603557446807,312,0.49243164,0.32440186,0.71136475
1603557446808,313,0.48242188,0.3710327,0.6864624
1603557446808,314,0.4465332,0.33416748,0.7250366
1603557446808,315,0.46777344,0.33392334,0.744812
1603557446809,316,0.53100586,0.3287964,0.69329834
1603557446810,317,0.5605469,0.40130615,0.66156006
1603557446810,318,0.6032715,0.51849365,0.6273804
1603557446810,319,0.576416,0.3583374,0.6090698
1603557449329,320,0.5566406,0.46624756,0.43304443
1603557449329,321,0.5058594,0.38153076,0.28582764
1603557449330,322,0.2536621,0.04949951,0.23773193
1603557449330,323,-0.16064453,-0.2300415,0.49212646
1603557449331,324,-0.5822754,-0.120910645,0.87786865
1603557449332,325,-0.8154297,0.12054443,1.0075073
1603557449333,326,-1.1411133,0.35760498,1.2081909
1603557449334,327,-0.8522949,0.82806396,1.6066284
1603557449334,328,-0.24414062,0.38153076,1.1952515
1603557449334,329,0.013671875,-0.012512207,1.1752319
1603557449340,330,0.06323242,-0.37261963,0.93792725
1603557449340,331,-0.4951172,-0.4668579,1.2294312
1603557449340,332,-0.63549805,-0.6699829,1.1828003
1603557449340,333,-0.5761719,-0.8027954,0.91204834
1603557449340,334,-0.31054688,-0.6314087,0.48187256
1603557449340,335,-0.1015625,-0.32574463,0.2814331
1603557449340,336,0.021240234,-0.09967041,0.3324585
1603557449341,337,-0.064208984,-0.057434082,0.46600342
1603557449341,338,-0.41625977,-0.1272583,0.59539795
1603557449341,339,-0.7824707,-0.06036377,0.7182007
1603557449341,340,-1.1279297,0.014099121,0.88446045
1603557449342,341,-1.2214355,0.21136475,0.9706421
1603557449343,342,-1.1428223,0.21795654,0.9310913
1603557449343,343,-0.767334,0.1696167,0.8942261
1603557449343,344,-0.56689453,0.116882324,0.9984741
1603557449343,345,-0.5288086,-0.159729,0.9611206
1603557449344,346,-0.47265625,-0.11407471,0.6893921
1603557449344,347,-0.75219727,-0.2612915,0.5079956
1603557449345,348,-0.829834,-0.28985596,0.4225464
1603557449345,349,-0.7697754,-0.27618408,0.416687
1603557449346,350,-1.0134277,-0.41705322,0.5910034
1603557449346,351,-1.2006836,-0.8069458,0.51361084
1603557452059,352,-1.2243652,-1.1113892,0.4274292
1603557452060,353,-0.7192383,-1.079895,0.52215576
1603557452060,354,-0.12426758,-0.9812622,0.46380615
1603557452061,355,-0.1352539,-0.85772705,0.6195679
1603557452061,356,0.10668945,-0.6643677,0.5368042
1603557452061,357,0.24194336,-0.6057739,0.5946655
1603557452062,358,0.1640625,-0.411438,0.6029663
1603557452063,359,-0.022216797,-0.7876587,0.5939331
1603557452063,360,0.049072266,-1.0481567,0.5602417
1603557452064,361,0.2644043,-0.70391846,0.38006592
1603557452064,362,0.41235352,-0.19000244,0.18890381
1603557452064,363,0.2939453,-0.42633057,0.5939331
1603557452065,364,0.30810547,-0.7156372,0.78900146
1603557452065,365,0.58618164,-0.2498169,0.13201904
1603557452066,366,0.53027344,-0.3057251,0.5375366
1603557452067,367,0.27392578,-1.0620728,1.1310425
1603557452068,368,0.041015625,-0.45465088,0.7250366
1603557452068,369,0.013916016,0.011169434,-0.17095947
1603557452068,370,-0.05493164,-0.63848877,1.2748413
1603557452069,371,0.3701172,-1.0725708,0.8353882
1603557452069,372,0.13720703,-0.6734009,1.1310425
1603557452069,373,-0.025146484,-0.51397705,0.7247925
1603557452070,374,-0.0017089844,-0.87750244,0.41741943
1603557452071,375,-0.09448242,-0.78082275,0.74505615
1603557452071,376,0.18359375,-0.71295166,0.60150146
1603557452072,377,0.84277344,-0.38775635,0.40740967
1603557452072,378,0.38330078,-0.630188,0.4796753
1603557452073,379,-1.3022461,-1.2617798,0.5541382
1603557452073,380,-0.96728516,-0.9234009,0.24725342
1603557452073,381,-0.068359375,-0.79400635,0.39520264
1603557452073,382,-0.16845703,-0.7085571,0.7496948
1603557452074,383,-0.27954102,-0.83062744,0.7081909
1603557454595,384,-0.091308594,-1.2278442,0.015319824
1603557454596,385,0.03149414,-1.1504517,0.13885498
1603557454597,386,-0.19262695,-0.6499634,0.5951538
1603557454598,387,-0.22216797,-0.81085205,0.37322998
1603557454598,388,0.13500977,-0.8411255,0.4015503
1603557454599,389,0.1315918,-0.99591064,0.43865967
1603557454600,390,-0.080566406,-0.6646118,0.7680054
1603557454600,391,-0.08081055,-0.1026001,1.1344604
1603557454602,392,-0.0715332,-0.29473877,1.0441284
1603557454602,393,-0.13354492,-0.46661377,1.1720581
1603557454610,394,0.017578125,-0.26031494,0.8781128
1603557454611,395,0.057128906,-0.5911255,0.55218506
1603557454612,396,0.08496094,-0.24151611,0.6124878
1603557454612,397,0.08666992,-0.10308838,0.9887085
1603557454612,398,0.08618164,-0.38970947,0.84417725
1603557454612,399,-0.16088867,-0.72052,0.69647217
1603557454612,400,-0.19799805,-1.0466919,0.45257568
1603557454613,401,-0.009765625,-0.65582275,0.63201904
1603557454613,402,-0.0390625,-0.5029907,1.1984253
1603557454613,403,0.1430664,-0.60113525,1.0202026
1603557454613,404,0.33740234,-0.10211182,0.2850952
1603557454613,405,0.09277344,-0.17681885,0.93377686
1603557454613,406,-0.123046875,-1.2564087,1.072937
1603557454613,407,0.21142578,-0.7402954,0.6178589
1603557454613,408,0.30615234,-0.22296143,0.53826904
1603557454614,409,0.21728516,0.07366943,0.8319702
1603557454614,410,0.27001953,-0.0960083,0.795105
1603557454614,411,0.28637695,0.12982178,0.75701904
1603557454614,412,0.23706055,0.11468506,0.86102295
1603557454614,413,0.21557617,0.09661865,0.94207764
1603557454614,414,0.21166992,0.08758545,0.99554443
1603557454614,415,0.16992188,0.09832764,0.88568115
1603557457129,416,0.16333008,-0.22369385,0.807312
1603557457129,417,0.4345703,-0.48468018,0.65838623
1603557457130,418,0.75390625,-0.17901611,0.61102295
1603557457131,419,0.7597656,0.14447021,0.49212646
1603557457131,420,0.7163086,0.59198,0.52557373
1603557457133,421,0.5876465,0.65838623,0.60443115
1603557457134,422,0.28759766,0.8998413,0.1864624
1603557457134,423,0.25756836,-0.29156494,-0.9038696
1603557457134,424,0.20336914,-1.9998169,-0.28302002
1603557457136,425,-0.068115234,-1.354065,0.69696045
1603557457136,426,-0.29589844,-1.0889282,0.5619507
1603557457136,427,-0.34179688,-1.0425415,0.2489624
1603557457137,428,-0.3383789,-1.0828247,0.30194092
1603557457138,429,-0.34814453,-1.133606,0.117126465
1603557457139,430,0.6657715,-1.1907349,-1.2092896
1603557457139,431,0.79711914,-0.16851807,0.07513428
1603557457140,432,0.27441406,-0.46099854,0.4406128
1603557457141,433,-0.3623047,-0.7576294,-0.26763916
1603557457141,434,-0.8808594,-1.4920044,-0.1975708
1603557457141,435,-0.36621094,-1.8237915,-0.2654419
1603557457142,436,0.016357422,-0.3994751,0.16741943
1603557457142,437,-0.44482422,-0.48345947,0.90496826
1603557457143,438,-0.11035156,-0.7415161,0.20941162
1603557457143,439,-0.25732422,-0.722229,0.5897827
1603557457143,440,-0.35986328,-0.7341919,1.1796265
1603557457144,441,-0.28149414,-0.75128174,0.9332886
1603557457144,442,-0.50390625,-0.9241333,0.91986084
1603557457145,443,-0.31933594,-0.68829346,0.55267334
1603557457145,444,-0.024658203,-0.46051025,0.36102295
1603557457146,445,-0.07910156,-0.317688,0.40740967
1603557457146,446,-0.25878906,-0.1729126,0.53656006
1603557457147,447,-0.52783203,-0.030578613,0.607605
1603557459859,448,-0.7783203,-0.014709473,0.6437378
1603557459860,449,-1.1494141,0.12640381,0.87835693
1603557459860,450,-1.2565918,0.16107178,1.0060425
1603557459861,451,-1.1513672,0.12982178,0.8786011
1603557459861,452,-0.888916,-0.078186035,0.71746826
1603557459862,453,-0.7788086,-0.032287598,0.82977295
1603557459863,454,-0.6472168,-0.16143799,0.8019409
1603557459863,455,-0.5949707,-0.20050049,0.70233154
1603557459864,456,-0.66918945,-0.26812744,0.7025757
1603557459865,457,-0.7607422,-0.1951294,0.7223511
1603557459865,458,-0.72753906,-5.493164E-4,0.57489014
1603557459865,459,-0.7109375,-0.14068604,0.40667725
1603557459867,460,-0.65722656,-0.12945557,0.4887085
1603557459867,461,-0.5859375,-0.08795166,0.5180054
1603557459868,462,-0.67041016,-0.21270752,0.5494995
1603557459868,463,-0.98950195,-0.23248291,0.6732788
1603557459869,464,-1.1992188,-0.14068604,0.7826538
1603557459870,465,-0.95996094,-0.2793579,0.67596436
1603557459870,466,-0.9526367,-0.08526611,0.55804443
1603557459871,467,-0.8503418,-0.18878174,0.3912964
1603557459872,468,-0.7661133,-0.2774048,0.37445068
1603557459872,469,-0.6838379,-0.34161377,0.53411865
1603557459873,470,-0.7121582,-0.39605713,0.73114014
1603557459873,471,-0.69018555,-0.4788208,0.7892456
1603557459873,472,-0.5515137,-0.4824829,0.65838623
1603557459873,473,-0.5913086,-0.3772583,0.5504761
1603557459874,474,-0.41015625,-0.39630127,0.5507202
1603557459875,475,-0.44726562,-0.43511963,0.5231323
1603557459875,476,-0.44750977,-0.5132446,0.5397339
1603557459876,477,-0.6508789,-0.5393677,0.5375366
1603557459876,478,-0.763916,-0.5393677,0.51239014
1603557459876,479,-0.8425293,-0.62286377,0.45892334
1603557462391,480,-0.78930664,-0.5845337,0.5170288
1603557462391,481,-0.8198242,-0.6370239,0.54852295
1603557462392,482,-0.9367676,-0.68463135,0.5363159
1603557462393,483,-0.90478516,-0.8357544,0.68011475
1603557462393,484,-0.58203125,-0.87628174,0.7567749
1603557462394,485,-0.26733398,-0.784729,0.6954956
1603557462394,486,-0.050048828,-0.6531372,0.70477295
1603557462396,487,0.1706543,-0.51397705,0.6715698
1603557462396,488,0.3293457,-0.4006958,0.61395264
1603557462396,489,0.43286133,-0.3430786,0.6141968
1603557462398,490,0.53564453,-0.2354126,0.56951904
1603557462398,491,0.5864258,-0.09136963,0.57366943
1603557462398,492,0.59765625,0.026062012,0.5778198
1603557462398,493,0.5883789,0.1828003,0.56048584
1603557462399,494,0.63305664,0.22528076,0.57147217
1603557462399,495,0.6616211,0.2765503,0.5812378
1603557462400,496,0.64868164,0.2999878,0.5380249
1603557462400,497,0.6557617,0.38372803,0.51971436
1603557462400,498,0.6447754,0.41766357,0.51898193
1603557462401,499,0.6520996,0.42791748,0.49822998
1603557462401,500,0.6555176,0.45941162,0.4689331
1603557462401,501,0.6464844,0.4845581,0.4286499
1603557462403,502,0.6467285,0.513855,0.40740967
1603557462403,503,0.6555176,0.5270386,0.3973999
1603557462403,504,0.6533203,0.5661011,0.36029053
1603557462404,505,0.65527344,0.6029663,0.30755615
1603557462404,506,0.640625,0.60614014,0.25335693
1603557462405,507,0.6184082,0.62664795,0.18426514
1603557462405,508,0.60302734,0.65740967,0.1281128
1603557462405,509,0.5761719,0.6532593,0.11004639
1603557462405,510,0.5439453,0.65057373,0.07318115
1603557462406,511,0.5529785,0.6781616,0.08270264
1603557465123,512,0.58251953,0.62054443,0.11517334
1603557465124,513,0.5800781,0.57366943,0.21331787
1603557465125,514,0.5871582,0.46795654,0.23822021
1603557465125,515,0.51782227,0.2802124,0.35931396
1603557465127,516,0.49780273,0.08709717,0.48724365
1603557465127,517,0.43530273,-0.07183838,0.5009155
1603557465128,518,0.4165039,-0.3711548,0.49456787
1603557465129,519,0.1640625,-0.76763916,0.6034546
1603557465129,520,-0.12231445,-0.8982544,0.7213745
1603557465130,521,-0.3857422,-1.0042114,0.809021
1603557465137,522,-0.49194336,-0.97857666,0.8348999
1603557465137,523,-0.50097656,-0.84747314,0.75823975
1603557465137,524,-0.5415039,-0.77716064,0.6610718
1603557465137,525,-0.5944824,-0.7197876,0.5783081
1603557465137,526,-0.6245117,-0.6514282,0.5360718
1603557465137,527,-0.59106445,-0.6277466,0.5162964
1603557465137,528,-0.58251953,-0.64312744,0.5097046
1603557465137,529,-0.56103516,-0.6460571,0.53045654
1603557465137,530,-0.56884766,-0.65704346,0.54364014
1603557465138,531,-0.5546875,-0.6758423,0.5787964
1603557465138,532,-0.5397949,-0.7295532,0.62908936
1603557465138,533,-0.4868164,-0.7608032,0.70843506
1603557465138,534,-0.41625977,-0.79351807,0.7670288
1603557465138,535,-0.23657227,-0.7749634,0.7562866
1603557465138,536,-0.016845703,-0.7151489,0.7116089
1603557465138,537,0.11767578,-0.6096802,0.65789795
1603557465138,538,0.20532227,-0.53790283,0.64886475
1603557465139,539,0.28027344,-0.48980713,0.6390991
1603557465139,540,0.34521484,-0.4006958,0.666687
1603557465139,541,0.4243164,-0.28790283,0.715271
1603557465140,542,0.48217773,-0.25665283,0.6976929
1603557465142,543,0.5432129,-0.1453247,0.68304443
1603557467461,544,0.61499023,-0.010559082,0.713562
1603557467462,545,0.6188965,-0.008850098,0.7196655
1603557467462,546,0.66381836,0.1408081,0.68792725
1603557467463,547,0.6689453,0.19012451,0.6703491
1603557467463,548,0.6789551,0.29364014,0.59295654
1603557467464,549,0.65844727,0.38153076,0.4977417
1603557467464,550,0.63500977,0.46575928,0.42645264
1603557467465,551,0.6347656,0.53167725,0.40838623
1603557467466,552,0.6347656,0.5939331,0.32318115
1603557467466,553,0.60302734,0.65423584,0.24041748
1603557467467,554,0.56347656,0.65740967,0.15667725
1603557467467,555,0.5378418,0.7003784,0.078308105
1603557467468,556,0.51782227,0.71380615,-0.012512207
1603557467468,557,0.49926758,0.7301636,-0.06866455
1603557467468,558,0.5048828,0.7418823,-0.117004395
1603557467469,559,0.50341797,0.7484741,-0.13824463
1603557467469,560,0.49267578,0.73651123,-0.15802002
1603557467470,561,0.49316406,0.7404175,-0.12408447
1603557467470,562,0.501709,0.7164917,-0.11065674
1603557467471,563,0.5205078,0.680603,-0.017150879
1603557467472,564,0.50512695,0.6481323,0.059753418
1603557467472,565,0.51342773,0.55926514,0.17889404
1603557467472,566,0.5019531,0.48675537,0.3143921
1603557467472,567,0.43945312,0.081970215,0.44036865
1603557467473,568,0.48046875,-0.29229736,0.6251831
1603557467473,569,0.43676758,-0.5366821,0.7255249
1603557467474,570,0.4892578,-0.7893677,0.8925171
1603557467474,571,0.3720703,-0.8245239,0.89642334
1603557467475,572,0.28271484,-0.8430786,0.791687
1603557467476,573,0.23754883,-0.8049927,0.69451904
1603557467476,574,0.18286133,-0.8008423,0.6154175
1603557467476,575,0.15893555,-0.78009033,0.5853882
1603557470193,576,0.14526367,-0.76446533,0.5819702
1603557470195,577,0.13574219,-0.7744751,0.576355
1603557470195,578,0.13500977,-0.77423096,0.5778198
1603557470195,579,0.13671875,-0.76275635,0.5783081
1603557470197,580,0.13085938,-0.77716064,0.58880615
1603557470199,581,0.13598633,-0.7695923,0.586853
1603557470199,582,0.13842773,-0.77178955,0.5973511
1603557470199,583,0.14355469,-0.75787354,0.60443115
1603557470200,584,0.1459961,-0.7612915,0.59124756
1603557470201,585,0.16113281,-0.756897,0.588562
1603557470201,586,0.1784668,-0.76348877,0.6195679
1603557470202,587,0.21508789,-0.7595825,0.7111206
1603557470202,588,0.25561523,-0.7476196,0.76434326
1603557470202,589,0.3479004,-0.7654419,0.7814331
1603557470203,590,0.41259766,-0.75079346,0.7592163
1603557470203,591,0.4807129,-0.5742798,0.70843506
1603557470204,592,0.48754883,-0.33843994,0.588562
1603557470204,593,0.49951172,-0.06964111,0.51116943
1603557470205,594,0.5986328,0.1359253,0.54437256
1603557470205,595,0.6501465,0.20550537,0.5626831
1603557470205,596,0.67041016,0.30438232,0.5270386
1603557470206,597,0.6789551,0.3583374,0.55633545
1603557470207,598,0.6845703,0.43304443,0.4869995
1603557470207,599,0.6772461,0.51898193,0.38616943
1603557470208,600,0.64331055,0.5548706,0.33099365
1603557470208,601,0.6452637,0.586853,0.26507568
1603557470208,602,0.626709,0.6425171,0.15350342
1603557470208,603,0.58935547,0.6390991,0.10662842
1603557470208,604,0.5786133,0.6762085,0.03729248
1603557470209,605,0.5744629,0.6959839,-3.0517578E-4
1603557470209,606,0.57006836,0.7140503,-0.0020141602
1603557470209,607,0.5678711,0.74334717,-0.03692627
1603557472727,608,0.5708008,0.7218628,-0.027404785
1603557472728,609,0.5895996,0.7369995,-0.04864502
1603557472729,610,0.57470703,0.74676514,-0.06524658
1603557472730,611,0.5498047,0.7374878,-0.046203613
1603557472731,612,0.579834,0.76483154,-0.04840088
1603557472731,613,0.56396484,0.7626343,-0.07940674
1603557472731,614,0.5432129,0.75701904,-0.09552002
1603557472732,615,0.53149414,0.7616577,-0.14215088
1603557472733,616,0.5217285,0.7653198,-0.15826416
1603557472734,617,0.5078125,0.7704468,-0.18829346
1603557472734,618,0.49804688,0.76361084,-0.19683838
1603557472734,619,0.49365234,0.7723999,-0.22564697
1603557472735,620,0.48266602,0.7731323,-0.22125244
1603557472735,621,0.49682617,0.7836304,-0.21368408
1603557472736,622,0.501709,0.7704468,-0.24176025
1603557472737,623,0.47216797,0.7682495,-0.25421143
1603557472737,624,0.46362305,0.74505615,-0.2366333
1603557472737,625,0.44384766,0.7650757,-0.2979126
1603557472739,626,0.4194336,0.6815796,-0.20709229
1603557472739,627,0.43896484,0.6737671,-0.051574707
1603557472739,628,0.49658203,0.6054077,0.15814209
1603557472739,629,0.5397949,0.57025146,0.31951904
1603557472741,630,0.4248047,0.36029053,0.4821167
1603557472742,631,0.53100586,0.1005249,0.6246948
1603557472742,632,0.56152344,-0.0029907227,0.73773193
1603557472742,633,0.47216797,-0.16851807,0.7182007
1603557472742,634,0.35205078,-0.4163208,0.71795654
1603557472743,635,0.20825195,-0.65802,0.7555542
1603557472743,636,0.053955078,-0.67510986,0.8085327
1603557472743,637,-0.14672852,-0.6741333,0.78582764
1603557472744,638,-0.34692383,-0.7263794,0.71673584
1603557472744,639,-0.47875977,-0.6724243,0.6498413
1603557475262,640,-0.6303711,-0.6585083,0.6588745
1603557475263,641,-0.7060547,-0.6560669,0.62493896
1603557475264,642,-0.69921875,-0.614563,0.5939331
1603557475266,643,-0.6804199,-0.62335205,0.5409546
1603557475267,644,-0.65283203,-0.5755005,0.5848999
1603557475268,645,-0.64941406,-0.67144775,0.55682373
1603557475269,646,-0.63671875,-0.6021118,0.55584717
1603557475270,647,-0.7011719,-0.5540161,0.5758667
1603557475270,648,-0.72631836,-0.5449829,0.4940796
1603557475272,649,-0.7548828,-0.69610596,0.52752686
1603557475272,650,-0.62353516,-0.74468994,0.5385132
1603557475272,651,-0.55688477,-0.76934814,0.5458374
1603557475272,652,-0.4284668,-0.68878174,0.5270386
1603557475273,653,-0.33203125,-0.6477661,0.38128662
1603557475273,654,-0.38745117,-0.49664307,0.39544678
1603557475274,655,-0.47851562,-0.4800415,0.37713623
1603557475274,656,-0.46923828,-0.35430908,0.34613037
1603557475275,657,-0.7458496,-0.3574829,0.39031982
1603557475275,658,-1.3210449,-0.4126587,0.40960693
1603557475276,659,-1.3676758,-0.33917236,0.4598999
1603557475276,660,-1.1796875,-0.33306885,0.53411865
1603557475276,661,-1.078125,-0.23370361,0.5282593
1603557475277,662,-1.0024414,-0.41046143,0.5602417
1603557475278,663,-0.83203125,-0.59552,0.5985718
1603557475278,664,-0.63134766,-0.7192993,0.64837646
1603557475278,665,-0.45214844,-0.81866455,0.67108154
1603557475279,666,-0.25463867,-1.0237427,0.6039429
1603557475279,667,0.08691406,-0.8057251,0.36517334
1603557475279,668,0.33520508,-0.61676025,0.18572998
1603557475280,669,0.5197754,-0.4607544,0.14788818
1603557475280,670,0.5905762,-0.27886963,0.27166748
1603557475280,671,0.65966797,-0.4524536,0.26849365
1603557478382,672,0.7788086,-0.33380127,0.24456787
1603557478382,673,0.6928711,-0.36968994,0.3793335
1603557478383,674,0.75927734,-0.54278564,0.11199951
1603557478384,675,0.8293457,-0.43829346,0.21844482
1603557478384,676,0.83325195,-0.4673462,0.14398193
1603557478385,677,0.8305664,-0.31622314,0.09295654
1603557478385,678,0.8496094,-0.12579346,0.10443115
1603557478386,679,0.8557129,-0.06793213,0.15203857
1603557478386,680,0.8190918,-0.042541504,0.13519287
1603557478387,681,0.7883301,0.14422607,0.06365967
1603557478387,682,0.8605957,0.2958374,-0.038391113
1603557478388,683,0.92163086,0.25506592,0.0067749023
1603557478389,684,0.7675781,-0.032043457,0.06878662
1603557478389,685,0.5644531,-0.35064697,0.21502686
1603557478389,686,0.2668457,-0.43634033,0.3373413
1603557478390,687,-0.027832031,-0.60894775,0.6535034
1603557478390,688,-0.6359863,-0.7564087,1.1156616
1603557478390,689,-0.91503906,-0.8538208,1.3417358
1603557478391,690,-0.56274414,-0.6555786,1.0377808
1603557478391,691,-0.49975586,-0.78204346,0.9110718
1603557478391,692,-0.36914062,-0.6201782,0.71429443
1603557478392,693,-0.18774414,-0.50860596,0.5067749
1603557478392,694,-0.014404297,-0.62091064,0.46575928
1603557478393,695,0.16601562,-0.7334595,0.4882202
1603557478394,696,0.33740234,-0.8245239,0.48431396
1603557478394,697,0.6140137,-0.9751587,0.5421753
1603557478394,698,0.69384766,-0.8272095,0.48284912
1603557478394,699,0.53466797,-0.692688,0.3048706
1603557478394,700,0.41357422,-0.5635376,0.309021
1603557478395,701,0.3737793,-0.5462036,0.34320068
1603557478395,702,0.32861328,-0.65509033,0.39764404
1603557478396,703,0.25512695,-0.5733032,0.44232178
1603557480527,704,0.1940918,-0.552063,0.52557373
1603557480527,705,0.34692383,-0.8418579,0.68499756
1603557480529,706,0.29003906,-1.1008911,0.96258545
1603557480530,707,0.11254883,-0.6902466,0.5282593
1603557480530,708,0.13061523,-0.458313,0.38983154
1603557480530,709,0.25561523,-0.79644775,0.711853
1603557480531,710,0.43286133,-0.92803955,0.87615967
1603557480531,711,0.6015625,-0.7337036,0.7489624
1603557480532,712,0.55126953,-0.63775635,0.6889038
1603557480532,713,0.41796875,-0.5733032,0.555603
1603557480533,714,0.24584961,-0.50567627,0.4923706
1603557480534,715,0.20483398,-0.39483643,0.4015503
1603557480534,716,0.009521484,-0.5967407,0.41741943
1603557480535,717,-0.18310547,-0.5220337,0.42181396
1603557480535,718,-0.14428711,-0.6843872,0.49945068
1603557480536,719,-0.10913086,-1.305481,0.74920654
1603557480536,720,0.01586914,-1.1519165,0.746521
1603557480537,721,0.12792969,-1.1414185,0.50042725
1603557480537,722,0.15917969,-0.9751587,0.4459839
1603557480538,723,0.3227539,-0.737854,0.4303589
1603557480538,724,0.3786621,-1.0581665,0.49017334
1603557480539,725,0.30395508,-0.8230591,0.36590576
1603557480539,726,0.23608398,-0.67266846,0.25653076
1603557480540,727,0.08154297,-0.72247314,0.3053589
1603557480541,728,-0.055419922,-0.7539673,0.25653076
1603557480541,729,-0.026855469,-0.8555298,0.3632202
1603557480541,730,0.16455078,-0.76348877,0.46600342
1603557480542,731,0.22143555,-1.0476685,0.43743896
1603557480542,732,0.20288086,-1.2063599,0.49920654
1603557480542,733,0.546875,-1.1060181,0.5426636
1603557480542,734,0.6711426,-0.9180298,0.4491577
1603557480543,735,0.56689453,-0.7971802,0.23895264
1603557483259,736,0.40039062,-0.6289673,0.26263428
1603557483259,737,0.31152344,-0.5857544,0.27874756
1603557483261,738,0.2133789,-0.5745239,0.2970581
1603557483262,739,0.19262695,-0.5977173,0.30804443
1603557483262,740,0.079589844,-0.6709595,0.39715576
1603557483264,741,0.0087890625,-0.8250122,0.66326904
1603557483264,742,0.13696289,-1.1746216,0.90374756
1603557483265,743,0.19506836,-1.0789185,0.9713745
1603557483265,744,0.29467773,-0.7793579,0.7904663
1603557483266,745,0.3581543,-0.67437744,0.65667725
1603557483267,746,0.40844727,-0.42559814,0.5499878
1603557483268,747,0.38549805,-0.378479,0.46258545
1603557483268,748,0.3972168,-0.48150635,0.40472412
1603557483269,749,0.40429688,-0.6001587,0.43841553
1603557483270,750,0.35791016,-0.73028564,0.52142334
1603557483270,751,0.25585938,-0.75128174,0.47235107
1603557483270,752,0.2355957,-0.81500244,0.49822998
1603557483272,753,0.2998047,-0.7119751,0.61712646
1603557483272,754,0.30541992,-0.77227783,0.699646
1603557483272,755,0.25048828,-0.8220825,0.75408936
1603557483273,756,0.43017578,-0.66412354,0.6557007
1603557483274,757,0.64208984,-0.58428955,0.5519409
1603557483275,758,0.7854004,-0.7703247,0.6112671
1603557483276,759,0.69873047,-0.7593384,0.64642334
1603557483276,760,0.64038086,-0.49371338,0.49456787
1603557483276,761,0.5761719,-0.46759033,0.2345581
1603557483276,762,0.5239258,-0.59820557,0.109313965
1603557483277,763,0.47705078,-0.4668579,0.16668701
1603557483277,764,0.4555664,-0.4434204,0.30462646
1603557483277,765,0.46142578,-0.6638794,0.5946655
1603557483277,766,0.55908203,-0.8286743,0.90545654
1603557483277,767,0.5671387,-0.74053955,1.1554565
1603557485599,768,0.4350586,-0.50323486,0.9879761
1603557485599,769,0.31689453,-0.45733643,0.63739014
1603557485601,770,0.28100586,-0.49102783,0.48529053
1603557485602,771,0.2614746,-0.49005127,0.3895874
1603557485602,772,0.28393555,-0.46759033,0.39178467
1603557485603,773,0.27368164,-0.5132446,0.50775146
1603557485603,774,0.29614258,-0.69366455,0.6898804
1603557485604,775,0.46142578,-1.0073853,0.9310913
1603557485604,776,0.54174805,-1.0440063,1.0719604
1603557485605,777,0.4736328,-0.8760376,0.8788452
1603557485605,778,0.38134766,-0.6292114,0.5985718
1603557485606,779,0.3359375,-0.49395752,0.39056396
1603557485606,780,0.33520508,-0.36627197,0.2802124
1603557485607,781,0.39038086,-0.27716064,0.09320068
1603557485607,782,0.49267578,-0.42095947,0.14642334
1603557485608,783,0.7324219,-0.68096924,0.42913818
1603557485608,784,1.1826172,-0.597229,0.7626343
1603557485609,785,1.1877441,-0.47442627,0.81170654
1603557485610,786,0.7602539,-0.39312744,0.47161865
1603557485610,787,0.43823242,-0.32330322,0.22796631
1603557485610,788,0.22314453,-0.32061768,0.14031982
1603557485612,789,0.15893555,-0.37139893,0.07171631
1603557485612,790,0.19873047,-0.59332275,0.34613037
1603557485612,791,0.29101562,-0.76641846,0.88494873
1603557485612,792,0.23046875,-0.9883423,1.3063354
1603557485613,793,0.06542969,-0.9385376,1.4232788
1603557485614,794,-0.13085938,-0.6765747,1.1613159
1603557485615,795,-0.1784668,-0.42266846,0.79486084
1603557485615,796,-0.24023438,-0.3633423,0.6334839
1603557485615,797,-0.36328125,-0.3274536,0.61151123
1603557485615,798,-0.3671875,-0.24493408,0.5844116
1603557485615,799,-0.33618164,-0.21051025,0.63568115
1603557488328,800,-0.29492188,-0.24493408,0.7785034
1603557488329,801,-0.30932617,-0.395813,0.94451904
1603557488329,802,-0.38085938,-0.60894775,1.1923218
1603557488330,803,-0.4423828,-0.64923096,1.1056519
1603557488331,804,-0.24804688,-0.4121704,0.6869507
1603557488332,805,-0.19848633,-0.45391846,0.618103
1603557488333,806,-0.39672852,-0.5964966,0.76116943
1603557488333,807,-0.4091797,-0.6321411,0.7875366
1603557488333,808,-0.24365234,-0.5706177,0.7965698
1603557488334,809,-0.2763672,-0.5142212,0.9664917
1603557488335,810,-0.3642578,-0.66070557,1.1044312
1603557488335,811,-0.34033203,-0.7630005,1.0995483
1603557488336,812,-0.32226562,-0.6062622,0.9064331
1603557488337,813,-0.20703125,-0.3262329,0.51849365
1603557488338,814,-0.044433594,-0.2937622,0.4364624
1603557488338,815,-0.12768555,-0.4109497,0.6281128
1603557488339,816,-0.22094727,-0.38116455,0.5199585
1603557488339,817,-0.22827148,-0.4258423,0.53656006
1603557488340,818,-0.28808594,-0.6206665,1.0736694
1603557488340,819,-0.06958008,-0.35455322,1.7006226
1603557488340,820,-0.25390625,-0.022277832,1.6903687
1603557488341,821,-0.43188477,0.03314209,1.06781
1603557488341,822,-0.32739258,-0.074279785,0.55340576
1603557488342,823,-0.17553711,-0.25860596,0.416687
1603557488342,824,-0.111572266,-0.4517212,0.47479248
1603557488342,825,-0.087402344,-0.67852783,0.62908936
1603557488343,826,0.045410156,-0.68634033,0.75286865
1603557488343,827,0.017822266,-0.78741455,1.2391968
1603557488343,828,-0.17089844,-0.6506958,1.6242065
1603557488344,829,-0.25463867,-0.2695923,1.4467163
1603557488345,830,-0.4013672,-0.053771973,1.0604858
1603557488345,831,-0.32250977,-0.04473877,0.55218506
1603557491056,832,-0.24511719,-0.2588501,0.576355
1603557491057,833,-0.13964844,-0.44195557,0.6012573
1603557491058,834,0.030517578,-0.5042114,0.5372925
1603557491059,835,0.16992188,-0.6904907,0.7008667
1603557491059,836,0.16113281,-0.7268677,1.0636597
1603557491060,837,0.1303711,-0.5598755,1.4386597
1603557491060,838,-0.083984375,-0.49884033,1.5238647
1603557491061,839,-0.26342773,-0.2625122,1.2716675
1603557491061,840,-0.14648438,0.03656006,0.65545654
1603557491061,841,0.099853516,-0.23687744,0.46917725
1603557491062,842,0.23754883,-0.6460571,0.52264404
1603557491063,843,0.09375,-0.5679321,0.6154175
1603557491063,844,-4.8828125E-4,-0.41583252,0.61517334
1603557491064,845,0.0029296875,-0.3711548,0.67523193
1603557491064,846,0.061279297,-0.425354,0.83709717
1603557491065,847,0.080078125,-0.80010986,1.2799683
1603557491065,848,0.17675781,-0.9209595,1.3795776
1603557491065,849,0.13647461,-0.82232666,0.97698975
1603557491066,850,0.11328125,-0.6333618,0.50579834
1603557491066,851,0.106933594,-0.57647705,0.30682373
1603557491068,852,0.11743164,-0.55426025,0.36663818
1603557491068,853,0.13378906,-0.57281494,0.479187
1603557491068,854,0.16186523,-0.5808716,0.5062866
1603557491068,855,0.18164062,-0.83062744,0.758728
1603557491069,856,0.13964844,-0.97052,1.2150269
1603557491069,857,0.09814453,-0.8765259,1.2648315
1603557491069,858,-0.020996094,-0.6367798,0.94085693
1603557491070,859,-0.04736328,-0.30548096,0.5048218
1603557491070,860,-0.052246094,-0.2949829,0.5001831
1603557491071,861,-0.123291016,-0.52008057,0.6268921
1603557491071,862,-0.009521484,-0.5479126,0.6141968
1603557491071,863,0.1875,-0.49273682,0.73236084
1603557493396,864,0.3022461,-0.75738525,1.0944214
1603557493397,865,0.14648438,-0.83380127,1.3112183
1603557493398,866,0.05126953,-0.60821533,1.00531
1603557493399,867,0.008056641,-0.37677002,0.6264038
1603557493399,868,-0.045166016,-0.33721924,0.4413452
1603557493400,869,-0.092041016,-0.4307251,0.54730225
1603557493400,870,-0.14355469,-0.5095825,0.71209717
1603557493400,871,-0.114990234,-0.35943604,0.79559326
1603557493401,872,-0.07763672,-0.473938,0.9711304
1603557493401,873,0.03857422,-0.7630005,1.1972046
1603557493401,874,0.06933594,-0.8147583,1.0629272
1603557493402,875,0.10131836,-0.5046997,0.70843506
1603557493402,876,0.09667969,-0.31158447,0.48846436
1603557493403,877,0.045898438,-0.25128174,0.4442749
1603557493403,878,-0.16015625,-0.2786255,0.5050659
1603557493404,879,-0.40942383,-0.38824463,0.66815186
1603557493404,880,-0.58154297,-0.42437744,0.74993896
1603557493404,881,-0.8144531,-0.39361572,0.60198975
1603557493405,882,-1.1582031,-0.253479,0.7201538
1603557493405,883,-1.2355957,-0.062072754,0.77508545
1603557493406,884,-1.0510254,-0.07476807,0.51239014
1603557493406,885,-0.953125,-0.17779541,0.4076538
1603557493407,886,-0.97387695,-0.34649658,0.36029053
1603557493408,887,-0.9975586,-0.30670166,0.41278076
1603557493408,888,-0.94555664,-0.20953369,0.36932373
1603557493409,889,-0.9458008,-0.082336426,0.38372803
1603557493409,890,-0.8676758,-0.13873291,0.32513428
1603557493410,891,-0.8894043,-0.1194458,0.39031982
1603557493411,892,-0.87158203,-0.0960083,0.43743896
1603557493411,893,-0.8334961,-0.09942627,0.46575928
1603557493411,894,-0.888916,-0.10455322,0.48309326
1603557493411,895,-0.85498047,-0.18585205,0.47625732
1603557496126,896,-0.98168945,-0.21612549,0.5585327
1603557496126,897,-0.95166016,-0.117248535,0.4923706
1603557496127,898,-0.9250488,-0.14849854,0.40301514
1603557496128,899,-0.91308594,-0.23150635,0.3366089
1603557496128,900,-0.93310547,-0.21807861,0.33465576
1603557496128,901,-0.94799805,-0.17999268,0.3493042
1603557496129,902,-0.9272461,-0.13824463,0.38323975
1603557496129,903,-0.90600586,-0.16558838,0.3944702
1603557496130,904,-0.9055176,-0.15216064,0.41204834
1603557496130,905,-0.92407227,-0.14215088,0.4298706
1603557496130,906,-0.9211426,-0.17633057,0.41448975
1603557496131,907,-0.91625977,-0.20050049,0.42059326
1603557496131,908,-0.8930664,-0.19830322,0.43060303
1603557496131,909,-0.87719727,-0.21270752,0.37249756
1603557496132,910,-0.9140625,-0.24273682,0.38739014
1603557496133,911,-0.91503906,-0.21539307,0.40350342
1603557496133,912,-0.85302734,-0.13873291,0.39544678
1603557496133,913,-0.65112305,-0.1453247,0.34100342
1603557496133,914,-0.6442871,-0.077941895,0.34295654
1603557496134,915,-0.6882324,-0.1038208,0.3361206
1603557496135,916,-0.7729492,-0.070129395,0.37371826
1603557496135,917,-0.83862305,-0.08868408,0.38861084
1603557496135,918,-0.9157715,-0.05621338,0.47113037
1603557496135,919,-1.010498,-0.011779785,0.5722046
1603557496136,920,-0.9135742,0.002380371,0.60687256
1603557496136,921,-0.8220215,-0.015930176,0.6593628
1603557496137,922,-0.77246094,-0.023010254,0.73968506
1603557496137,923,-0.8220215,0.04852295,0.8134155
1603557496137,924,-0.8366699,0.12420654,0.79119873
1603557496138,925,-0.85424805,0.14007568,0.6264038
1603557496139,926,-0.9008789,0.06072998,0.13763428
1603557496139,927,-1.112793,0.27288818,1.0643921
1603557498663,928,-0.89453125,0.06463623,0.666687
1603557498664,929,-0.8261719,0.008728027,0.56585693
1603557498669,930,-0.8874512,-0.021057129,0.5031128
1603557498670,931,-0.9001465,-0.04815674,0.447937
1603557498671,932,-0.9370117,-0.042785645,0.39788818
1603557498671,933,-0.93408203,-0.035217285,0.35247803
1603557498671,934,-0.92163086,-0.10015869,0.40863037
1603557498671,935,-0.90600586,-0.13043213,0.43206787
1603557498672,936,-0.88012695,-0.17681885,0.4557495
1603557498672,937,-0.88012695,-0.19708252,0.4784546
1603557498673,938,-0.87719727,-0.21588135,0.47283936
1603557498673,939,-0.8840332,-0.20928955,0.45281982
1603557498674,940,-0.8876953,-0.2053833,0.44158936
1603557498674,941,-0.88623047,-0.20343018,0.44647217
1603557498674,942,-0.91918945,-0.23297119,0.4076538
1603557498675,943,-0.91259766,-0.18536377,0.4232788
1603557498675,944,-0.91552734,-0.097717285,0.43377686
1603557498675,945,-0.92333984,-0.06524658,0.4257202
1603557498676,946,-0.95703125,-0.08111572,0.39031982
1603557498676,947,-0.9250488,-0.02545166,0.3768921
1603557498676,948,-0.9289551,-0.03765869,0.37664795
1603557498678,949,-0.9465332,-0.03277588,0.40618896
1603557498678,950,-0.9326172,-0.05230713,0.39666748
1603557498679,951,-0.9338379,-0.024230957,0.4100952
1603557498679,952,-0.9055176,-0.030090332,0.46136475
1603557498686,953,-0.93652344,-0.074279785,0.52874756
1603557498687,954,-1.3835449,0.12371826,0.8041382
1603557498688,955,-1.3701172,0.24798584,0.60443115
1603557498689,956,-1.2678223,0.18182373,0.14837646
1603557498690,957,-1.1245117,0.27264404,0.26239014
1603557498693,958,-1.1442871,0.117370605,0.36151123
1603557498694,959,-1.0681152,0.054626465,0.35882568
1603557501199,960,-0.87280273,0.020935059,0.35614014
1603557501200,961,-0.7988281,-0.08331299,0.3373413
1603557501200,962,-0.6411133,-0.09039307,0.22528076
1603557501201,963,-0.35546875,-0.13604736,0.14300537
1603557501201,964,-0.5151367,-0.19317627,0.19232178
1603557501201,965,-0.83251953,-0.27520752,0.32781982
1603557501202,966,-0.8918457,-0.2678833,0.35443115
1603557501203,967,-0.9562988,-0.25372314,0.42108154
1603557501203,968,-1.0095215,-0.17779541,0.418396
1603557501205,969,-1.0063477,-0.18585205,0.38861084
1603557501205,970,-0.99487305,-0.14605713,0.36810303
1603557501205,971,-0.82299805,-0.19317627,0.3373413
1603557501205,972,-0.9025879,-0.3086548,0.3222046
1603557501206,973,-0.96313477,-0.25030518,0.31976318
1603557501207,974,-0.9824219,-0.2197876,0.31756592
1603557501208,975,-1.0024414,-0.19171143,0.3319702
1603557501208,976,-0.9296875,-0.19024658,0.38909912
1603557501209,977,-0.83569336,-0.18804932,0.48602295
1603557501209,978,-0.83447266,-0.21124268,0.54119873
1603557501210,979,-0.76831055,-0.27374268,0.56170654
1603557501210,980,-0.6477051,-0.29058838,0.58514404
1603557501211,981,-0.6738281,-0.32965088,0.55682373
1603557501211,982,-0.5263672,-0.29058838,0.385437
1603557501211,983,-0.59716797,-0.3255005,0.38226318
1603557501212,984,-0.7573242,-0.26568604,0.45013428
1603557501212,985,-0.857666,-0.19488525,0.53411865
1603557501213,986,-0.73706055,-0.12823486,0.5145874
1603557501213,987,-0.67407227,-0.0064086914,0.56536865
1603557501213,988,-0.7294922,-0.012023926,0.64105225
1603557501214,989,-0.7626953,-0.008361816,0.69989014
1603557501214,990,-0.6887207,0.06951904,0.7160034
1603557501214,991,-0.65063477,0.11566162,0.6298218
1603557503731,992,-0.72631836,0.124694824,0.64642334
1603557503731,993,-0.9946289,0.19720459,0.66522217
1603557503732,994,-1.1557617,0.16204834,0.5758667
1603557503733,995,-1.0725098,0.105651855,0.35028076
1603557503733,996,-1.2038574,-0.024963379,1.0006714
1603557503734,997,-0.89501953,-0.038635254,0.6613159
1603557503734,998,-0.8613281,-0.08795166,0.557312
1603557503737,999,-0.8522949,-0.042785645,0.5285034
1603557503737,1000,-0.8483887,-0.02178955,0.5648804
1603557503737,1001,-0.8474121,-0.06549072,0.52948
1603557503737,1002,-0.85058594,-0.066711426,0.54315186
1603557503737,1003,-0.8469238,-0.065979004,0.53656006
1603557503738,1004,-0.8378906,-0.07476807,0.5597534
1603557503738,1005,-0.8312988,-0.10040283,0.5648804
1603557503739,1006,-0.8173828,-0.12432861,0.57611084
1603557503739,1007,-0.8078613,-0.1416626,0.5807495
1603557503740,1008,-0.8000488,-0.1572876,0.59173584
1603557503740,1009,-0.7922363,-0.17852783,0.6078491
1603557503741,1010,-0.8071289,-0.175354,0.60809326
1603557503741,1011,-0.9165039,-0.10211182,0.6984253
1603557503741,1012,-1.3579102,-0.013977051,0.9244995
1603557503742,1013,-1.2636719,0.21600342,0.40863037
1603557503742,1014,-0.74072266,0.113464355,0.11077881
1603557503743,1015,-0.74438477,0.04144287,0.26922607
1603557503743,1016,-0.8312988,0.043884277,0.29486084
1603557503744,1017,-0.94750977,0.02947998,0.26507568
1603557503744,1018,-1.559082,-0.016174316,0.24090576
1603557503745,1019,-1.0473633,-0.13897705,0.34222412
1603557503745,1020,-0.7180176,-0.12188721,0.39886475
1603557503745,1021,-1.0671387,-0.22906494,0.46844482
1603557503746,1022,-1.3000488,-0.05645752,0.4298706
1603557503746,1023,-1.1821289,0.008239746,0.28240967
1603557506658,1024,-0.7878418,0.051940918,0.101989746
1603557506659,1025,-0.6550293,0.010192871,0.10369873
1603557506660,1026,-0.56591797,-0.051330566,0.16766357
1603557506660,1027,-0.545166,-0.11651611,0.21356201
1603557506661,1028,-0.7663574,-0.27349854,0.26385498
1603557506662,1029,-1.1943359,-0.27545166,0.37054443
1603557506662,1030,-1.0168457,-0.17340088,0.29852295
1603557506662,1031,-1.0893555,-0.09307861,0.2670288
1603557506663,1032,-0.9255371,-0.18829346,0.23944092
1603557506663,1033,-0.90722656,-0.2774048,0.24163818
1603557506664,1034,-0.9433594,-0.1897583,0.29608154
1603557506664,1035,-0.93359375,-0.21636963,0.34466553
1603557506665,1036,-0.9355469,-0.20635986,0.38787842
1603557506666,1037,-0.94921875,-0.19830322,0.4064331
1603557506666,1038,-0.954834,-0.19683838,0.4100952
1603557506666,1039,-0.9445801,-0.1819458,0.3986206
1603557506667,1040,-0.9291992,-0.1651001,0.3764038
1603557506667,1041,-0.9260254,-0.16241455,0.36419678
1603557506668,1042,-0.92163086,-0.16485596,0.36053467
1603557506668,1043,-0.9133301,-0.16412354,0.36224365
1603557506668,1044,-0.9082031,-0.17047119,0.37786865
1603557506669,1045,-0.9003906,-0.1897583,0.4257202
1603557506669,1046,-0.90405273,-0.17388916,0.41375732
1603557506669,1047,-0.8911133,-0.16607666,0.35125732
1603557506670,1048,-0.8720703,-0.18121338,0.24578857
1603557506671,1049,-1.0544434,-0.12945557,0.14593506
1603557506671,1050,-1.1398926,-0.14312744,0.09613037
1603557506671,1051,-1.0725098,-0.117004395,0.18060303
1603557506671,1052,-0.8535156,-0.11065674,0.22747803
1603557506672,1053,-0.7717285,-0.1428833,0.291687
1603557506672,1054,-0.94506836,-0.11016846,0.39764404
1603557506672,1055,-0.85058594,-0.1272583,0.41229248
1603557508997,1056,-0.72143555,-0.2991333,0.38690186
1603557508998,1057,-0.7458496,-0.3748169,0.4105835
1603557508999,1058,-0.9748535,-0.42193604,0.4171753
1603557508999,1059,-1.1218262,-0.579895,0.3217163
1603557509000,1060,-1.0756836,-0.7715454,0.32977295
1603557509000,1061,-1.0288086,-0.85406494,0.31878662
1603557509001,1062,-0.88964844,-0.8218384,0.3168335
1603557509003,1063,-0.37060547,-0.7070923,0.526062
1603557509003,1064,-0.1237793,-0.6194458,0.7633667
1603557509003,1065,-0.027832031,-0.41827393,0.75335693
1603557509004,1066,-0.3059082,-0.28253174,0.5187378
1603557509004,1067,-0.81811523,-0.27227783,0.63616943
1603557509006,1068,-1.0061035,-0.30645752,0.57440186
1603557509006,1069,-0.7578125,-0.40582275,0.6691284
1603557509007,1070,-0.08227539,-0.2625122,1.2409058
1603557509007,1071,-0.19140625,-0.004699707,1.0004272
1603557509008,1072,-0.50878906,-0.047912598,0.75653076
1603557509008,1073,-1.0336914,0.06390381,1.0421753
1603557509009,1074,-0.6376953,0.07659912,0.45037842
1603557509010,1075,-0.53100586,0.059509277,0.5602417
1603557509011,1076,-0.9057617,-0.26983643,1.0043335
1603557509011,1077,-0.39135742,-0.13043213,0.84051514
1603557509011,1078,-0.046875,0.11151123,0.97161865
1603557509011,1079,-0.38891602,0.25579834,0.868103
1603557509011,1080,-0.68310547,-0.67437744,0.8283081
1603557509012,1081,-0.74853516,-0.04522705,0.63861084
1603557509012,1082,-0.8886719,0.013122559,0.48114014
1603557509012,1083,-0.61376953,-0.050354004,0.7194214
1603557509012,1084,-0.13208008,0.15008545,0.79071045
1603557509013,1085,-1.1147461,0.12591553,1.4818726
1603557509013,1086,-1.2023926,-0.05621338,0.59490967
1603557509014,1087,-0.9650879,-0.055236816,0.5001831
1603557511924,1088,-0.8071289,-0.058898926,0.46575928
1603557511924,1089,-0.7495117,-0.003967285,0.6154175
1603557511924,1090,-0.7463379,-0.058410645,0.576355
1603557511925,1091,-0.7783203,-0.2210083,0.53338623
1603557511925,1092,-0.8352051,-0.21295166,0.55462646
1603557511926,1093,-0.76586914,-0.2000122,0.51312256
1603557511926,1094,-0.6760254,-0.20318604,0.5578003
1603557511926,1095,-0.6948242,-0.31134033,0.5787964
1603557511928,1096,-0.7751465,-0.38116455,0.65252686
1603557511928,1097,-0.8408203,-0.2937622,0.62957764
1603557511928,1098,-0.88134766,-0.21417236,0.5192261
1603557511929,1099,-0.8942871,-0.13043213,0.41107178
1603557511929,1100,-0.8457031,0.012145996,0.35272217
1603557511930,1101,-0.8757324,0.113708496,0.37371826
1603557511930,1102,-0.79345703,0.12982178,0.2753296
1603557511931,1103,-0.845459,0.08782959,0.12860107
1603557511932,1104,-0.9494629,0.11444092,-0.007385254
1603557511932,1105,-1.0500488,0.090270996,-0.124816895
1603557511933,1106,-1.0126953,0.14788818,-0.16973877
1603557511933,1107,-1.0253906,0.105895996,-0.2498169
1603557511935,1108,-1.0390625,0.16156006,-0.25372314
1603557511935,1109,-1.2670898,0.16229248,0.008483887
1603557511936,1110,-1.2404785,0.074157715,-0.06793213
1603557511936,1111,-1.0822754,-0.070129395,-0.0647583
1603557511937,1112,-0.9538574,0.17523193,-0.042785645
1603557511937,1113,-1.1330566,0.020935059,0.13128662
1603557511938,1114,-1.03125,-0.23858643,0.2958374
1603557511938,1115,-0.8522949,-0.0960083,0.51483154
1603557511938,1116,-0.7155762,-0.12017822,0.729187
1603557511938,1117,-0.7060547,-0.031311035,0.7321167
1603557511938,1118,-0.5595703,0.23162842,0.4960327
1603557511938,1119,-0.67041016,-0.09136963,1.0407104
1603557514261,1120,-0.3408203,-0.078186035,0.7892456
1603557514261,1121,-0.328125,-0.26885986,0.9718628
1603557514261,1122,-0.3635254,-0.2354126,1.043396
1603557514262,1123,-0.30004883,-0.23394775,1.1532593
1603557514262,1124,0.15039062,-0.19268799,0.95233154
1603557514262,1125,0.24487305,-0.16485596,0.70428467
1603557514263,1126,0.15405273,-0.061828613,0.5807495
1603557514264,1127,-0.09667969,-0.0051879883,0.5687866
1603557514264,1128,-0.35473633,0.06121826,0.7909546
1603557514264,1129,-0.43530273,0.13616943,0.9960327
1603557514265,1130,-0.5222168,0.18182373,1.0429077
1603557514265,1131,-0.46850586,0.13983154,0.8744507
1603557514266,1132,-0.48608398,-0.035461426,0.762146
1603557514266,1133,-0.46044922,-0.022521973,0.80877686
1603557514267,1134,-0.42456055,0.22821045,1.0634155
1603557514267,1135,-0.5053711,-0.1807251,0.7304077
1603557514267,1136,-0.8376465,-0.36138916,0.78289795
1603557514267,1137,-0.9970703,-0.25372314,0.53826904
1603557514268,1138,-0.97314453,-0.4541626,0.48431396
1603557514268,1139,-0.8864746,-0.6265259,0.26116943
1603557514269,1140,-0.92578125,-0.47247314,0.11981201
1603557514269,1141,-1.1149902,-0.48516846,0.08050537
1603557514270,1142,-1.4260254,-0.43170166,0.21624756
1603557514270,1143,-1.1320801,-0.034240723,0.034362793
1603557514270,1144,-0.7285156,0.028015137,0.10491943
1603557514271,1145,-0.6484375,-0.20098877,0.19989014
1603557514272,1146,-0.7463379,-0.3069458,0.11126709
1603557514272,1147,-0.79956055,-0.31011963,0.21160889
1603557514272,1148,-0.88623047,-0.27178955,0.45770264
1603557514272,1149,-0.9411621,-0.24371338,0.7970581
1603557514273,1150,-0.8261719,-0.34161377,1.0221558
1603557514273,1151,-0.7553711,-0.56695557,1.0292358
1603557516799,1152,-0.6779785,-0.7542114,0.8991089
1603557516799,1153,-0.69433594,-0.8106079,0.7037964
1603557516800,1154,-0.42895508,-0.7439575,0.5831909
1603557516800,1155,-0.23852539,-0.50567627,0.3768921
1603557516801,1156,-0.15551758,-0.45367432,0.3397827
1603557516801,1157,-0.07324219,-0.42095947,0.43475342
1603557516802,1158,0.0031738281,-0.46661377,0.5392456
1603557516802,1159,0.07055664,-0.4776001,0.7387085
1603557516803,1160,0.13330078,-0.6045532,0.8312378
1603557516803,1161,0.22167969,-0.6538696,0.8217163
1603557516804,1162,0.22729492,-0.611145,0.8187866
1603557516805,1163,0.24853516,-0.6602173,0.68573
1603557516805,1164,0.3774414,-0.6553345,0.65740967
1603557516806,1165,0.32006836,-0.50860596,0.69647217
1603557516806,1166,0.34643555,-0.4500122,0.7260132
1603557516807,1167,0.35668945,-0.46539307,0.74871826
1603557516807,1168,0.33544922,-0.46270752,0.75823975
1603557516808,1169,0.31518555,-0.51397705,0.7758179
1603557516808,1170,0.40893555,-0.4421997,0.75335693
1603557516809,1171,0.39526367,-0.42340088,0.77020264
1603557516809,1172,0.36157227,-0.36114502,0.793396
1603557516810,1173,0.31201172,-0.27374268,0.85980225
1603557516810,1174,0.1694336,-0.20074463,0.9411011
1603557516810,1175,0.07910156,-0.093811035,0.57684326
1603557516811,1176,0.043701172,0.07952881,0.32928467
1603557516811,1177,0.021240234,-0.09088135,0.8895874
1603557516811,1178,-0.19677734,-0.25201416,1.2018433
1603557516813,1179,-0.44433594,-0.13702393,1.236023
1603557516814,1180,-0.4128418,-0.11871338,1.2172241
1603557516814,1181,-0.4338379,-0.08404541,0.8817749
1603557516814,1182,-0.47070312,-0.07623291,0.88275146
1603557516814,1183,-0.39331055,-0.12188721,0.8920288
1603557519528,1184,-0.40844727,-0.14361572,0.89520264
1603557519529,1185,-0.45336914,-0.13653564,0.9225464
1603557519529,1186,-0.59350586,-0.20318604,0.63153076
1603557519529,1187,-0.7158203,-0.18023682,0.48675537
1603557519530,1188,-0.6623535,-0.39752197,0.28997803
1603557519530,1189,-0.7531738,-0.4817505,0.42767334
1603557519532,1190,-1.0,-0.48321533,0.82244873
1603557519532,1191,-1.104248,-0.34332275,0.9320679
1603557519532,1192,-1.1154785,-0.21490479,0.76898193
1603557519533,1193,-1.0002441,-0.08428955,0.6078491
1603557519534,1194,-0.83984375,-0.10772705,0.45721436
1603557519537,1195,-0.6965332,-0.19830322,0.45233154
1603557519537,1196,-0.6977539,-0.32476807,0.58221436
1603557519539,1197,-0.85180664,-0.3945923,0.635437
1603557519539,1198,-0.9189453,-0.37701416,0.6950073
1603557519540,1199,-0.70947266,-0.33673096,0.63616943
1603557519540,1200,-0.7697754,-0.3369751,0.5531616
1603557519541,1201,-0.7890625,-0.2625122,0.5680542
1603557519541,1202,-0.75439453,-0.13824463,0.6054077
1603557519541,1203,-0.6647949,0.020202637,0.670105
1603557519542,1204,-0.5805664,0.10247803,0.7321167
1603557519542,1205,-0.5974121,0.14886475,0.67230225
1603557519543,1206,-0.5883789,0.17523193,0.69866943
1603557519543,1207,-0.58618164,0.18450928,0.78948975
1603557519543,1208,-0.74902344,0.07342529,0.5961304
1603557519544,1209,-0.6921387,0.12005615,0.5824585
1603557519544,1210,-0.7368164,0.21624756,0.55926514
1603557519545,1211,-0.83935547,0.24822998,0.56951904
1603557519545,1212,-0.7927246,0.2850952,0.4821167
1603557519545,1213,-0.98779297,0.5038452,0.42230225
1603557519546,1214,-1.1291504,0.19085693,0.63031006
1603557519546,1215,-0.83813477,0.19647217,0.56365967
1603557521866,1216,-0.8466797,0.2111206,0.49163818
1603557521866,1217,-0.8486328,0.13372803,0.47698975
1603557521867,1218,-0.8557129,0.215271,0.49334717
1603557521868,1219,-0.86279297,0.15179443,0.5656128
1603557521869,1220,-0.8066406,0.15447998,0.47772217
1603557521869,1221,-0.8503418,0.17010498,0.62176514
1603557521870,1222,-0.82592773,0.1317749,0.48236084
1603557521870,1223,-0.81762695,0.25726318,0.5338745
1603557521870,1224,-0.81811523,0.24993896,0.5055542
1603557521871,1225,-0.83081055,0.24798584,0.5206909
1603557521872,1226,-0.80981445,0.2296753,0.5421753
1603557521872,1227,-0.80126953,0.19403076,0.4923706
1603557521873,1228,-0.8063965,0.2230835,0.5458374
1603557521873,1229,-0.8586426,0.17962646,0.62493896
1603557521874,1230,-0.79345703,0.16571045,0.44989014
1603557521874,1231,-0.8300781,0.14715576,0.58270264
1603557521875,1232,-0.8442383,0.12884521,0.56829834
1603557521875,1233,-0.8076172,0.09539795,0.52874756
1603557521876,1234,-0.80444336,0.08343506,0.633728
1603557521876,1235,-0.734375,0.1161499,0.56365967
1603557521877,1236,-0.7331543,0.14764404,0.6703491
1603557521877,1237,-0.7470703,0.16888428,0.67181396
1603557521878,1238,-0.74487305,0.008483887,0.67181396
1603557521878,1239,-0.77612305,0.06585693,0.68621826
1603557521879,1240,-0.77685547,0.008239746,0.6325073
1603557521879,1241,-0.80029297,0.06097412,0.66448975
1603557521879,1242,-0.8737793,4.272461E-4,0.56414795
1603557521880,1243,-0.43530273,-0.0029907227,0.5236206
1603557521880,1244,-0.50756836,-0.074523926,0.80755615
1603557521880,1245,-0.97265625,-0.17437744,0.79364014
1603557521881,1246,-0.7104492,-0.02545166,0.6359253
1603557521881,1247,-0.5930176,-0.1362915,0.8534546
1603557524598,1248,-0.51538086,-0.15338135,0.918396
1603557524600,1249,-0.56689453,-0.09844971,0.7892456
1603557524600,1250,-0.53466797,-0.062316895,0.8290405
1603557524601,1251,-0.5632324,-0.10699463,0.8016968
1603557524601,1252,-0.5930176,-0.19317627,0.838562
1603557524601,1253,-0.5559082,-0.04473877,0.6781616
1603557524602,1254,-0.6081543,-0.116760254,0.8800659
1603557524603,1255,-0.6140137,-0.085754395,0.73309326
1603557524603,1256,-0.63134766,-0.12579346,0.7645874
1603557524604,1257,-0.66625977,-0.09527588,0.68621826
1603557524604,1258,-0.75756836,-0.16314697,0.8121948
1603557524605,1259,-0.59399414,0.046569824,0.52679443
1603557524605,1260,-0.65649414,-0.05206299,0.77142334
1603557524606,1261,-0.66674805,0.008972168,0.7316284
1603557524608,1262,-0.63549805,0.0072631836,0.80340576
1603557524608,1263,-0.66748047,0.019714355,0.7201538
1603557524609,1264,-0.67285156,0.018249512,0.77948
1603557524609,1265,-0.74975586,0.014587402,0.6154175
1603557524609,1266,-0.7363281,-0.008361816,0.72698975
1603557524609,1267,-0.76171875,0.027526855,0.67230225
1603557524610,1268,-0.7475586,-0.0025024414,0.602478
1603557524610,1269,-0.8039551,-0.020812988,0.76190186
1603557524611,1270,-0.84228516,-0.051086426,0.9567261
1603557524612,1271,-0.49194336,-0.13800049,0.45794678
1603557524612,1272,-0.6784668,0.1605835,0.61224365
1603557524612,1273,-0.86279297,0.020202637,0.63153076
1603557524613,1274,-0.7077637,-0.051574707,0.7418823
1603557524614,1275,-0.7429199,-0.10211182,0.6793823
1603557524614,1276,-0.77734375,-0.016906738,0.63201904
1603557524614,1277,-0.79125977,-0.010314941,0.57196045
1603557524615,1278,-0.7817383,-0.1404419,0.67767334
1603557524615,1279,-0.7524414,-0.14849854,0.6351929
1603557527132,1280,-0.7282715,-0.121398926,0.6466675
1603557527132,1281,-0.76660156,-0.09039307,0.6259155
1603557527132,1282,-0.77783203,-0.12213135,0.67645264
1603557527133,1283,-0.732666,-0.113098145,0.66937256
1603557527133,1284,-0.72436523,-0.035461426,0.6246948
1603557527134,1285,-0.71313477,-0.055480957,0.71746826
1603557527135,1286,-0.71191406,-0.03302002,0.6786499
1603557527135,1287,-0.72021484,-0.03375244,0.6991577
1603557527136,1288,-0.76782227,-3.0517578E-4,0.6798706
1603557527136,1289,-0.7084961,-0.14337158,0.64520264
1603557527137,1290,-0.73095703,-0.090148926,0.7345581
1603557527137,1291,-0.7055664,-0.08477783,0.6835327
1603557527138,1292,-0.6972656,-0.13726807,0.7196655
1603557527139,1293,-0.670166,-0.16558838,0.73480225
1603557527140,1294,-0.67285156,-0.11090088,0.65252686
1603557527140,1295,-0.69140625,-0.1416626,0.7213745
1603557527140,1296,-0.7207031,-0.19122314,0.62249756
1603557527142,1297,-0.76000977,-0.17608643,0.48895264
1603557527142,1298,-0.40429688,-0.19854736,0.89471436
1603557527142,1299,-0.6538086,-0.028625488,0.76898193
1603557527143,1300,-0.53564453,-0.07476807,0.9869995
1603557527143,1301,-0.53808594,0.015075684,0.8019409
1603557527143,1302,-0.47753906,-0.06060791,0.8903198
1603557527143,1303,-0.44458008,-0.046447754,0.8602905
1603557527144,1304,-0.4580078,-0.0635376,0.8497925
1603557527144,1305,-0.50097656,-0.09820557,0.93792725
1603557527144,1306,-0.45483398,0.18206787,0.72943115
1603557527145,1307,-0.47460938,0.0927124,0.88323975
1603557527145,1308,-0.47485352,-0.026184082,0.8912964
1603557527146,1309,-0.47851562,-0.05279541,0.84539795
1603557527146,1310,-0.53881836,0.10858154,0.95648193
1603557527146,1311,-0.5883789,-0.028137207,0.7223511
1603557529668,1312,-0.58081055,0.06414795,0.75286865
1603557529668,1313,-0.6257324,-0.015686035,0.7704468
1603557529669,1314,-0.65625,0.023132324,0.6300659
1603557529670,1315,-0.6477051,0.054382324,0.8505249
1603557529671,1316,-0.64404297,0.07489014,0.7123413
1603557529671,1317,-0.70043945,0.059509277,0.7284546
1603557529671,1318,-0.69433594,0.16204834,0.6720581
1603557529672,1319,-0.74731445,0.15203857,0.6852417
1603557529673,1320,-0.7758789,0.18499756,0.5927124
1603557529673,1321,-0.7578125,0.06341553,0.6454468
1603557529674,1322,-0.77075195,0.22015381,0.56829834
1603557529675,1323,-0.73535156,0.28778076,0.6268921
1603557529675,1324,-0.70336914,0.23431396,0.7015991
1603557529675,1325,-0.7553711,0.22064209,0.65545654
1603557529675,1326,-0.8757324,0.22576904,0.5939331
1603557529676,1327,-0.78686523,0.17767334,0.56658936
1603557529677,1328,-0.8071289,0.08905029,0.42645264
1603557529677,1329,-0.86816406,0.1618042,0.5753784
1603557529678,1330,-0.8535156,0.042663574,0.605896
1603557529678,1331,-0.87280273,0.090026855,0.6539917
1603557529679,1332,-0.9091797,0.085876465,0.6141968
1603557529679,1333,-0.88134766,0.059509277,0.5890503
1603557529680,1334,-0.904541,-0.04840088,0.58099365
1603557529680,1335,-0.8972168,-0.10333252,0.50164795
1603557529681,1336,-0.9042969,-0.093566895,0.5831909
1603557529681,1337,-0.7993164,-0.089660645,0.55462646
1603557529681,1338,-0.7453613,-0.06695557,0.5062866
1603557529681,1339,-0.70043945,-0.03643799,0.51434326
1603557529682,1340,-0.6225586,-0.03643799,0.5097046
1603557529683,1341,-0.6113281,-0.10821533,0.5697632
1603557529683,1342,-0.7590332,-0.19195557,0.6508179
1603557529683,1343,-1.0776367,-0.237854,0.7206421
1603557532398,1344,-0.82006836,-0.27374268,0.58807373
1603557532399,1345,-0.82177734,-0.144104,0.5914917
1603557532400,1346,-0.7480469,-0.10748291,0.5348511
1603557532401,1347,-0.78564453,-0.19049072,0.56463623
1603557532401,1348,-0.8095703,-0.23150635,0.6119995
1603557532401,1349,-0.7817383,-0.21002197,0.5890503
1603557532403,1350,-0.80810547,-0.19537354,0.61395264
1603557532403,1351,-0.8405762,-0.22003174,0.6820679
1603557532403,1352,-0.8679199,-0.20367432,0.763855
1603557532404,1353,-0.8203125,-0.15020752,0.72869873
1603557532404,1354,-0.657959,-0.18389893,0.7645874
1603557532405,1355,-0.611084,-0.23297119,0.83929443
1603557532405,1356,-0.5539551,-0.30303955,0.88568115
1603557532406,1357,-0.4970703,-0.31915283,0.8966675
1603557532407,1358,-0.59106445,-0.2300415,0.8383179
1603557532408,1359,-0.57666016,-0.1873169,0.71551514
1603557532408,1360,-0.48364258,-0.069885254,0.62713623
1603557532409,1361,-0.517334,-0.022521973,0.61053467
1603557532409,1362,-0.5734863,0.010925293,0.701355
1603557532410,1363,-0.54907227,-0.04034424,0.7926636
1603557532410,1364,-0.6027832,-0.058898926,0.8361206
1603557532410,1365,-0.42333984,0.07977295,1.0177612
1603557532411,1366,-0.34716797,-0.10650635,0.94281006
1603557532411,1367,-0.50268555,-0.08380127,0.758728
1603557532411,1368,-0.5095215,-0.050598145,0.81658936
1603557532412,1369,-0.5148926,-0.031555176,0.8991089
1603557532412,1370,-0.40454102,-0.023498535,0.91619873
1603557532413,1371,-0.3449707,-0.022766113,0.87420654
1603557532413,1372,-0.3269043,-0.016662598,0.8695679
1603557532413,1373,-0.27856445,-0.05596924,0.94744873
1603557532414,1374,-0.27319336,-0.03253174,0.9191284
1603557532414,1375,-0.22631836,-0.10870361,1.0079956
1603557534932,1376,-0.23925781,-0.23712158,0.8895874
1603557534933,1377,-0.2163086,-0.6062622,0.97161865
1603557534934,1378,-0.05908203,-0.93951416,0.666687
1603557534936,1379,0.07861328,-0.9595337,0.42303467
1603557534937,1380,0.16259766,-0.54815674,0.52557373
1603557534937,1381,0.15771484,-0.7559204,0.34979248
1603557534939,1382,0.12451172,-1.0093384,0.14276123
1603557534940,1383,0.072509766,-0.9734497,0.16595459
1603557534941,1384,0.076416016,-0.9595337,0.16375732
1603557534941,1385,0.022705078,-1.0134888,0.2062378
1603557534942,1386,-0.026123047,-1.0015259,0.15423584
1603557534942,1387,-0.034423828,-0.9932251,0.16571045
1603557534943,1388,-0.009277344,-0.9805298,0.1708374
1603557534944,1389,-0.009277344,-0.9859009,0.25238037
1603557534944,1390,0.0026855469,-0.9920044,0.22845459
1603557534944,1391,0.009765625,-0.98321533,0.22479248
1603557534945,1392,0.014404297,-0.9795532,0.22528076
1603557534945,1393,0.0034179688,-0.99053955,0.22747803
1603557534945,1394,-0.018066406,-1.0007935,0.20013428
1603557534945,1395,0.020507812,-0.96099854,0.21820068
1603557534946,1396,0.03149414,-0.99005127,0.27069092
1603557534946,1397,0.025634766,-0.9824829,0.20965576
1603557534947,1398,-0.07788086,-1.1018677,0.24822998
1603557534947,1399,0.08862305,-1.0559692,0.18719482
1603557534948,1400,0.21313477,-0.87628174,0.38763428
1603557534949,1401,0.2956543,-0.75665283,0.42181396
1603557534949,1402,0.25585938,-0.84381104,0.41986084
1603557534949,1403,0.34057617,-0.7263794,0.3764038
1603557534950,1404,0.39501953,-0.31304932,0.39813232
1603557534950,1405,0.4326172,0.17547607,0.5975952
1603557534950,1406,-0.20800781,-0.016906738,1.072937
1603557534951,1407,-0.38549805,0.10394287,1.0111694
1603557537467,1408,-0.4765625,-0.19805908,1.0809937
1603557537469,1409,-0.43725586,0.08514404,1.1549683
1603557537470,1410,-0.3400879,-0.023986816,0.7555542
1603557537470,1411,-0.38745117,-0.10675049,0.8949585
1603557537471,1412,-0.38085938,-0.05596924,0.87127686
1603557537472,1413,-0.40356445,-0.13873291,1.0048218
1603557537473,1414,-0.34179688,-0.17730713,0.85687256
1603557537473,1415,-0.29492188,-0.27618408,0.8500366
1603557537474,1416,-0.31445312,-0.28668213,0.9032593
1603557537475,1417,-0.3095703,-0.33917236,0.8461304
1603557537475,1418,-0.3408203,-0.43658447,0.8217163
1603557537475,1419,-0.36987305,-0.52301025,0.78778076
1603557537476,1420,-0.43432617,-0.046691895,0.9447632
1603557537476,1421,-0.46533203,0.14520264,1.0578003
1603557537477,1422,-0.26513672,0.026550293,1.06073
1603557537477,1423,0.3322754,-0.11895752,1.0682983
1603557537478,1424,0.38720703,-0.46392822,0.9293823
1603557537478,1425,-0.019042969,-0.47052002,0.7518921
1603557537479,1426,-0.21191406,-0.2810669,0.9142456
1603557537479,1427,-0.14013672,-0.032287598,0.9164429
1603557537480,1428,-0.27539062,-0.0044555664,0.7926636
1603557537480,1429,-0.24121094,0.12030029,0.96087646
1603557537480,1430,-0.24316406,-0.0071411133,0.9689331
1603557537481,1431,-0.27270508,-0.019104004,0.9730835
1603557537481,1432,-0.30615234,-0.012756348,0.96624756
1603557537482,1433,-0.32763672,-0.012512207,0.92645264
1603557537482,1434,-0.37695312,-0.0134887695,0.8895874
1603557537482,1435,-0.3881836,0.018737793,0.8793335
1603557537482,1436,-0.44799805,0.03656006,0.84588623
1603557537483,1437,-0.57299805,-0.03302002,0.59539795
1603557537484,1438,-0.6394043,0.018737793,0.43328857
1603557537484,1439,-0.6870117,-0.074279785,0.5192261
1603557540389,1440,-0.79248047,-0.19586182,0.69647217
1603557540389,1441,-0.9433594,-0.37017822,0.82733154
1603557540390,1442,-0.9897461,-0.49005127,0.86102295
1603557540391,1443,-0.9741211,-0.46710205,0.7653198
1603557540392,1444,-0.9309082,-0.32037354,0.59588623
1603557540392,1445,-0.8532715,-0.18756104,0.45843506
1603557540392,1446,-0.91259766,-0.19268799,0.3685913
1603557540393,1447,-0.93847656,-0.29962158,0.38934326
1603557540394,1448,-0.92211914,-0.29327393,0.50164795
1603557540394,1449,-0.8671875,-0.22784424,0.59198
1603557540395,1450,-0.7763672,-0.16998291,0.56585693
1603557540395,1451,-0.88427734,-0.23175049,0.465271
1603557540396,1452,-0.9680176,-0.10064697,0.40960693
1603557540396,1453,-1.0556641,-0.14093018,0.38641357
1603557540397,1454,-0.9086914,-0.17071533,0.2970581
1603557540398,1455,-0.9584961,-0.15582275,0.3270874
1603557540398,1456,-0.9667969,-0.16290283,0.33709717
1603557540399,1457,-0.96118164,-0.22003174,0.3739624
1603557540399,1458,-0.9890137,-0.175354,0.39520264
1603557540400,1459,-0.9111328,-0.16412354,0.3817749
1603557540400,1460,-0.982666,-0.10821533,0.33953857
1603557540401,1461,-0.9345703,0.036071777,0.27947998
1603557540405,1462,-0.97631836,0.059509277,0.22015381
1603557540407,1463,-1.0102539,0.07269287,0.20013428
1603557540407,1464,-0.99487305,0.055358887,0.19036865
1603557540407,1465,-1.0141602,0.04949951,0.19281006
1603557540407,1466,-1.0266113,0.042419434,0.17694092
1603557540408,1467,-1.0241699,0.04437256,0.1696167
1603557540408,1468,-1.0158691,0.036071777,0.15447998
1603557540408,1469,-1.0214844,0.029968262,0.1539917
1603557540410,1470,-1.0151367,0.025817871,0.16253662
1603557540411,1471,-1.0244141,0.017028809,0.16815186
