# Sensor position: Front pocket (trouser)
# Sensor side: Right
# Activity type: Movement
# Activity code: 9
# Subject id: s1710228
timestamp,seq,accel_x,accel_y,accel_z
1603558026472,0,0.27246094,-0.96417236,-0.16729736
1603558026472,1,0.27905273,-0.9612427,-0.1663208
1603558026472,2,0.28295898,-0.9612427,-0.16461182
1603558026474,3,0.28173828,-0.9585571,-0.1675415
1603558026474,4,0.2722168,-0.9619751,-0.16778564
1603558026475,5,0.27954102,-0.96051025,-0.16827393
1603558026476,6,0.27685547,-0.9607544,-0.16583252
1603558026476,7,0.27514648,-0.9639282,-0.16485596
1603558026477,8,0.2800293,-0.9612427,-0.1638794
1603558026477,9,0.2783203,-0.9624634,-0.16705322
1603558026479,10,0.28564453,-0.96099854,-0.16583252
1603558026480,11,0.28393555,-0.9595337,-0.16070557
1603558026480,12,0.296875,-0.96099854,-0.14556885
1603558026481,13,0.28710938,-0.9612427,-0.15435791
1603558026481,14,0.20678711,-0.99957275,-0.112854004
1603558026482,15,0.30664062,-0.92437744,-0.20050049
1603558026483,16,0.19482422,-0.9846802,-0.16436768
1603558026483,17,0.40356445,-0.8862915,-0.18902588
1603558026483,18,0.45117188,-0.9055786,-0.23321533
1603558026483,19,0.30004883,-0.9710083,-0.19366455
1603558026484,20,0.40551758,-0.91192627,-0.24517822
1603558026485,21,0.36621094,-0.90826416,-0.27642822
1603558026485,22,0.38305664,-0.90216064,-0.28692627
1603558026485,23,0.36791992,-0.9143677,-0.26715088
1603558026486,24,0.37329102,-0.9368286,-0.20098877
1603558026486,25,0.27539062,-1.0256958,-0.105285645
1603558026487,26,0.15405273,-1.138977,-0.078430176
1603558026487,27,0.4326172,-0.88360596,0.13201904
1603558026487,28,0.5241699,-0.848938,0.16912842
1603558026487,29,0.29125977,-0.76568604,0.066589355
1603558026488,30,0.3383789,-0.7979126,0.11444092
1603558026488,31,0.23095703,-0.90997314,0.018981934
1603558028911,32,0.1796875,-1.0894165,0.13763428
1603558028912,33,0.12646484,-1.0984497,0.12420654
1603558028912,34,0.25390625,-0.95562744,-0.043273926
1603558028912,35,0.27905273,-0.973938,-0.14459229
1603558028914,36,0.40625,-0.93048096,-0.17266846
1603558028915,37,0.30200195,-0.9915161,-0.124816895
1603558028918,38,0.3630371,-0.8855591,-0.19805908
1603558028918,39,0.43676758,-0.972229,-0.057434082
1603558028918,40,0.18847656,-0.9182739,-0.17437744
1603558028920,41,0.44726562,-0.99005127,-0.04058838
1603558028920,42,0.3930664,-0.8320923,-0.043273926
1603558028921,43,0.49780273,-0.95758057,-0.010314941
1603558028921,44,0.4375,-0.9924927,0.008728027
1603558028921,45,0.3017578,-0.88360596,0.22918701
1603558028922,46,0.703125,-0.52130127,0.15667725
1603558028926,47,0.26904297,-0.7202759,0.005065918
1603558028926,48,0.48168945,-1.0901489,0.47650146
1603558028926,49,0.24804688,-1.0010376,0.20843506
1603558028927,50,0.9147949,-0.8508911,-0.09967041
1603558028927,51,0.27270508,-0.71710205,0.097839355
1603558028927,52,0.6447754,-0.86016846,-0.030334473
1603558028927,53,0.579834,-0.79278564,0.07098389
1603558028927,54,0.53149414,-0.6958618,0.23699951
1603558028927,55,0.56030273,-0.6260376,0.30633545
1603558028927,56,0.7133789,-0.5393677,0.3937378
1603558028927,57,0.7397461,-0.39239502,0.5504761
1603558028929,58,0.53466797,-0.22515869,0.7470093
1603558028931,59,0.62890625,-0.012512207,0.8908081
1603558028931,60,0.5839844,-0.19781494,0.71502686
1603558028932,61,0.4338379,0.030944824,0.6403198
1603558028932,62,0.8059082,0.13665771,0.5861206
1603558028932,63,0.57421875,-0.053527832,0.7875366
1603558031535,64,0.6279297,-0.0178833,0.66937256
1603558031536,65,0.70336914,0.029968262,0.66619873
1603558031538,66,0.6608887,0.007019043,0.64056396
1603558031538,67,0.63793945,0.030212402,0.652771
1603558031540,68,0.62475586,0.06097412,0.66815186
1603558031541,69,0.63549805,0.09051514,0.65008545
1603558031541,70,0.66503906,0.09832764,0.6408081
1603558031541,71,0.64746094,0.08441162,0.6522827
1603558031541,72,0.638916,0.066345215,0.6625366
1603558031542,73,0.61157227,0.06878662,0.6803589
1603558031543,74,0.6269531,0.07147217,0.67303467
1603558031544,75,0.60595703,0.082214355,0.65448
1603558031545,76,0.66259766,0.07098389,0.6478882
1603558031545,77,0.6503906,0.08709717,0.6156616
1603558031545,78,0.69628906,0.018737793,0.6107788
1603558031546,79,0.6845703,-0.007873535,0.6637573
1603558031547,80,0.64038086,0.020690918,0.70184326
1603558031548,81,0.6196289,0.036071777,0.6622925
1603558031549,82,0.5566406,0.02508545,0.6984253
1603558031549,83,0.50878906,-0.07281494,0.7172241
1603558031550,84,0.8496094,-0.0569458,0.7069702
1603558031550,85,0.717041,-0.19000244,0.84002686
1603558031551,86,0.72509766,-0.4055786,0.62542725
1603558031551,87,0.67041016,-0.4812622,0.37835693
1603558031552,88,0.6201172,-0.44244385,0.3222046
1603558031552,89,0.42919922,-0.72979736,0.293396
1603558031553,90,0.5007324,-0.7930298,0.19012451
1603558031553,91,0.30444336,-0.91119385,-0.07476807
1603558031553,92,0.35791016,-0.91900635,-0.062805176
1603558031553,93,0.18286133,-0.89801025,-0.13433838
1603558031553,94,0.43139648,-1.0130005,-0.1729126
1603558031554,95,0.35009766,-1.1865845,-0.15411377
1603558033992,96,0.24584961,-1.0376587,-0.07891846
1603558033992,97,0.024902344,-0.88531494,-0.29449463
1603558033994,98,-0.04663086,-0.9937134,-0.19561768
1603558033994,99,0.1694336,-0.9627075,-0.08648682
1603558033994,100,0.047851562,-1.0071411,-0.08013916
1603558033995,101,0.19238281,-0.9807739,-0.1843872
1603558033996,102,0.25756836,-0.9993286,-0.16070557
1603558033996,103,0.17138672,-0.9673462,-0.22589111
1603558033997,104,0.25048828,-0.92803955,-0.3171997
1603558033997,105,0.26098633,-0.9661255,-0.2876587
1603558033998,106,0.28198242,-0.909729,-0.28204346
1603558033999,107,0.29296875,-0.9819946,-0.24078369
1603558034000,108,0.3227539,-0.96343994,-0.2420044
1603558034000,109,0.3581543,-0.90093994,-0.25445557
1603558034000,110,0.24511719,-0.9043579,-0.26641846
1603558034001,111,0.2565918,-0.9956665,-0.26983643
1603558034001,112,0.3095703,-1.1838989,-0.022766113
1603558034002,113,0.38842773,-0.8526001,0.2555542
1603558034002,114,0.033447266,-0.5640259,0.0368042
1603558034003,115,0.5654297,-0.7649536,0.39227295
1603558034003,116,0.41796875,-0.96295166,0.3065796
1603558034005,117,0.907959,-0.58795166,0.29803467
1603558034005,118,0.3918457,-0.56866455,0.42156982
1603558034005,119,0.7038574,-0.46295166,0.6342163
1603558034005,120,0.7624512,-0.25616455,0.74139404
1603558034006,121,0.7314453,-0.29180908,0.8161011
1603558034006,122,0.3251953,-0.053771973,0.61517334
1603558034008,123,0.80737305,0.16131592,0.6051636
1603558034008,124,0.6472168,0.07537842,0.6762085
1603558034008,125,0.6660156,0.028503418,0.6010132
1603558034008,126,0.70336914,0.041931152,0.6625366
1603558034008,127,0.66845703,0.043395996,0.63079834
1603558036803,128,0.6176758,0.07611084,0.64520264
1603558036804,129,0.65722656,0.08123779,0.6276245
1603558036804,130,0.6828613,0.08880615,0.6256714
1603558036805,131,0.70336914,0.082214355,0.6173706
1603558036805,132,0.6887207,0.062927246,0.62054443
1603558036806,133,0.6767578,0.050720215,0.6364136
1603558036807,134,0.6972656,0.10736084,0.60809326
1603558036807,135,0.63427734,0.11053467,0.57684326
1603558036807,136,0.68115234,0.08270264,0.61883545
1603558036808,137,0.6894531,0.028747559,0.6732788
1603558036808,138,0.64160156,0.024108887,0.67401123
1603558036809,139,0.62158203,0.047058105,0.61517334
1603558036809,140,0.5810547,0.04095459,0.60491943
1603558036810,141,0.7216797,0.039978027,0.6671753
1603558036810,142,0.73168945,-0.4024048,0.81365967
1603558036810,143,0.8027344,-0.4619751,0.66326904
1603558036811,144,0.72558594,-0.5354614,0.42938232
1603558036811,145,0.62158203,-0.5322876,0.3156128
1603558036813,146,0.51000977,-0.5977173,0.2543335
1603558036813,147,0.5070801,-0.72613525,0.062194824
1603558036813,148,0.33691406,-0.7683716,-0.047180176
1603558036813,149,0.38208008,-0.99102783,-0.23468018
1603558036814,150,0.48706055,-0.98687744,-0.24102783
1603558036815,151,0.3647461,-1.0044556,-0.24371338
1603558036816,152,0.09448242,-1.2722778,0.09295654
1603558036816,153,0.26904297,-1.0266724,-0.39434814
1603558036816,154,0.079833984,-0.7859497,-0.2144165
1603558036816,155,0.1430664,-0.8555298,-0.14385986
1603558036817,156,0.09814453,-0.9212036,0.034118652
1603558036817,157,0.26391602,-1.0623169,0.2645874
1603558036817,158,0.09301758,-1.0581665,-0.3411255
1603558036818,159,0.025390625,-1.0430298,-0.17559814
1603558039243,160,0.13745117,-1.0125122,-0.06524658
1603558039243,161,0.4008789,-0.89801025,-0.37213135
1603558039244,162,0.23779297,-0.94488525,-0.28326416
1603558039244,163,0.26342773,-1.0020142,-0.2805786
1603558039245,164,0.31982422,-0.927063,-0.33868408
1603558039245,165,0.29956055,-0.93096924,-0.31695557
1603558039246,166,0.3491211,-0.94122314,-0.23394775
1603558039248,167,0.27734375,-0.954895,-0.300354
1603558039248,168,0.29516602,-0.9522095,-0.30743408
1603558039248,169,0.30810547,-0.9212036,-0.2925415
1603558039248,170,0.30004883,-0.9224243,-0.2942505
1603558039249,171,0.17773438,-1.0737915,-0.3069458
1603558039250,172,-0.0056152344,-1.0720825,0.051940918
1603558039250,173,0.6320801,-1.0532837,0.33685303
1603558039250,174,0.44384766,-0.61724854,0.041931152
1603558039251,175,0.13256836,-0.78863525,0.14984131
1603558039251,176,0.04272461,-0.99005127,-0.13092041
1603558039251,177,0.2265625,-0.97003174,0.016540527
1603558039252,178,0.5031738,-0.99053955,0.16278076
1603558039252,179,0.3876953,-0.9746704,0.06317139
1603558039252,180,0.4951172,-1.0813599,0.019470215
1603558039253,181,0.36572266,-0.8743286,-0.20098877
1603558039253,182,0.52856445,-0.91973877,0.07244873
1603558039255,183,0.48901367,-0.7546997,0.057556152
1603558039255,184,0.46289062,-0.8208618,0.1317749
1603558039255,185,0.43701172,-0.861145,0.17913818
1603558039255,186,0.56884766,-0.6448364,0.25579834
1603558039256,187,0.7480469,-0.56427,0.43988037
1603558039256,188,0.6022949,-0.40826416,0.49627686
1603558039256,189,0.5563965,-0.27618408,0.74383545
1603558039257,190,0.77197266,-0.030578613,0.8661499
1603558039257,191,0.63916016,-0.2053833,0.5795288
1603558041870,192,0.6635742,0.074157715,0.60443115
1603558041870,193,0.66064453,0.078552246,0.70477295
1603558041871,194,0.54003906,-0.02520752,0.74017334
1603558041871,195,0.66845703,0.021911621,0.6481323
1603558041872,196,0.63793945,0.08782959,0.602478
1603558041872,197,0.6894531,0.07220459,0.6432495
1603558041873,198,0.6386719,0.059509277,0.6359253
1603558041874,199,0.68774414,0.082214355,0.6227417
1603558041876,200,0.6767578,0.070739746,0.6415405
1603558041876,201,0.6496582,0.06878662,0.64349365
1603558041877,202,0.6723633,0.06732178,0.6425171
1603558041877,203,0.6723633,0.061462402,0.65008545
1603558041877,204,0.65527344,0.05999756,0.6437378
1603558041878,205,0.6044922,0.08465576,0.6207886
1603558041879,206,0.69311523,0.08050537,0.63494873
1603558041886,207,0.67456055,0.055114746,0.63983154
1603558041886,208,0.6538086,0.009460449,0.6390991
1603558041886,209,0.62475586,0.024108887,0.67645264
1603558041887,210,0.5498047,0.0065307617,0.6954956
1603558041887,211,0.49536133,-0.03765869,0.73480225
1603558041887,212,0.6550293,-0.07183838,0.69744873
1603558041888,213,0.9003906,-0.109436035,0.7369995
1603558041888,214,0.7241211,-0.32720947,0.8278198
1603558041888,215,0.7121582,-0.39190674,0.52093506
1603558041888,216,0.5629883,-0.4578247,0.33416748
1603558041888,217,0.5500488,-0.68463135,0.2489624
1603558041888,218,0.4638672,-0.7930298,0.15106201
1603558041889,219,0.33740234,-0.7998657,0.0033569336
1603558041889,220,0.46044922,-0.8477173,-0.12896729
1603558041889,221,0.34155273,-0.960022,-0.2288208
1603558041889,222,0.21777344,-0.9937134,-0.27593994
1603558041889,223,0.27075195,-0.97906494,-0.31939697
1603558044494,224,0.32617188,-1.0425415,-0.105773926
1603558044495,225,0.5102539,-1.0869751,-0.022766113
1603558044496,226,0.1940918,-1.0713501,0.06048584
1603558044497,227,0.068115234,-1.2590942,-0.13409424
1603558044499,228,0.2397461,-0.8501587,-0.11236572
1603558044500,229,0.12402344,-0.87164307,-0.03692627
1603558044500,230,0.19628906,-0.753479,0.07928467
1603558044501,231,0.35717773,-0.6956177,0.13079834
1603558044501,232,0.7739258,-0.98443604,0.42474365
1603558044503,233,0.19189453,-0.90631104,0.0014038086
1603558044503,234,0.43115234,-1.2717896,-0.19708252
1603558044504,235,0.017333984,-0.8640747,-0.4492798
1603558044504,236,0.35498047,-0.913147,-0.38897705
1603558044505,237,0.33618164,-0.9121704,-0.2883911
1603558044506,238,0.31640625,-0.90338135,-0.3604126
1603558044506,239,0.24316406,-0.97003174,-0.22515869
1603558044506,240,0.34448242,-0.96343994,-0.4319458
1603558044507,241,0.45703125,-0.9458618,-0.41241455
1603558044507,242,0.07470703,-1.1577759,-0.24420166
1603558044508,243,-0.18896484,-1.0151978,-0.2564087
1603558044508,244,0.080078125,-0.92852783,-0.2786255
1603558044508,245,0.57470703,-0.8320923,-0.08526611
1603558044509,246,0.28564453,-0.98883057,0.18621826
1603558044509,247,0.30200195,-0.87677,-0.050354004
1603558044510,248,0.4025879,-0.7827759,0.11907959
1603558044510,249,0.32910156,-0.9282837,0.20355225
1603558044511,250,0.3815918,-1.0374146,0.08441162
1603558044512,251,0.21386719,-1.0071411,-0.0569458
1603558044512,252,0.35131836,-0.86798096,-0.63067627
1603558044513,253,0.36279297,-0.895813,-0.24713135
1603558044513,254,0.40600586,-0.88360596,-0.26470947
1603558044513,255,0.45385742,-0.8374634,-0.27349854
1603558047490,256,0.4111328,-0.848938,-0.2852173
1603558047490,257,0.37158203,-0.96539307,-0.3045044
1603558047491,258,0.54785156,-1.1355591,-0.31329346
1603558047492,259,0.8210449,-0.9507446,0.0072631836
1603558047492,260,0.27954102,-1.1328735,-0.07501221
1603558047492,261,0.14672852,-1.253479,-0.159729
1603558047492,262,0.23266602,-0.77227783,-0.2107544
1603558047493,263,0.12548828,-0.5874634,-0.097717285
1603558047494,264,0.43066406,-0.6489868,0.0368042
1603558047494,265,1.0129395,-0.9920044,0.56414795
1603558047494,266,0.28686523,-1.1924438,0.12640381
1603558047495,267,-0.36132812,-1.0100708,-0.5852661
1603558047496,268,0.8935547,-0.80133057,-0.4505005
1603558047496,269,0.12963867,-0.99298096,-0.25030518
1603558047500,270,0.42041016,-0.8345337,-0.19586182
1603558047500,271,0.33447266,-0.9385376,-0.1638794
1603558047502,272,0.4350586,-1.081604,-0.13653564
1603558047502,273,0.9958496,-0.9751587,0.152771
1603558047504,274,0.3786621,-1.1936646,-0.4463501
1603558047504,275,0.12451172,-1.0610962,-0.30841064
1603558047504,276,0.15112305,-0.8911743,-0.2637329
1603558047504,277,0.075683594,-0.8274536,-0.117004395
1603558047504,278,0.19799805,-0.75665283,0.05267334
1603558047505,279,0.3947754,-0.9885864,-0.10308838
1603558047505,280,0.28198242,-1.2901001,-0.058898926
1603558047505,281,0.19848633,-1.0256958,-0.18121338
1603558047505,282,0.4802246,-0.88897705,-0.18096924
1603558047506,283,0.2121582,-0.9077759,-0.1482544
1603558047506,284,0.5175781,-0.9578247,-0.16925049
1603558047506,285,0.30493164,-0.94244385,-0.16998291
1603558047506,286,0.29052734,-0.98394775,-0.14703369
1603558047506,287,0.34716797,-0.9180298,-0.1026001
1603558049555,288,0.37182617,-0.9517212,-0.0064086914
1603558049556,289,0.24902344,-0.97540283,0.019714355
1603558049556,290,0.23242188,-0.9717407,-0.028869629
1603558049556,291,0.23217773,-0.9468384,-0.0335083
1603558049557,292,0.2644043,-0.98150635,-0.017150879
1603558049558,293,0.26123047,-0.958313,-0.010803223
1603558049558,294,0.3017578,-0.9585571,-0.03765869
1603558049559,295,0.26098633,-0.9651489,-0.051330566
1603558049559,296,0.27416992,-0.9993286,-0.061584473
1603558049560,297,0.28076172,-0.9697876,-0.09039307
1603558049561,298,0.29736328,-0.9644165,-0.07574463
1603558049561,299,0.2956543,-0.96295166,-0.061340332
1603558049563,300,0.29296875,-0.97784424,-0.06842041
1603558049563,301,0.2475586,-1.0064087,-0.05255127
1603558049563,302,0.27319336,-0.9717407,-0.08721924
1603558049563,303,0.2915039,-0.9710083,-0.051330566
1603558049564,304,0.27172852,-0.9607544,-0.04156494
1603558049564,305,0.25268555,-0.9529419,0.015808105
1603558049565,306,0.2890625,-0.9636841,-0.010314941
1603558049565,307,0.25756836,-0.95806885,0.06048584
1603558049566,308,0.22436523,-0.9849243,0.042175293
1603558049566,309,0.26879883,-0.9751587,0.016540527
1603558049566,310,0.21875,-0.97906494,0.0048217773
1603558049567,311,0.14013672,-1.0125122,-0.0029907227
1603558049567,312,0.18359375,-0.99957275,-0.013244629
1603558049567,313,0.1694336,-0.9963989,-0.035949707
1603558049568,314,0.1418457,-1.0137329,-0.0044555664
1603558049569,315,0.24487305,-0.9924927,-6.1035156E-5
1603558049569,316,0.19091797,-0.9829712,0.0018920898
1603558049569,317,0.14794922,-0.99713135,0.031188965
1603558049570,318,0.15844727,-1.0003052,0.026794434
1603558049571,319,0.16748047,-0.99957275,0.019226074
1603558052178,320,0.20141602,-1.0371704,0.04168701
1603558052179,321,0.13085938,-1.0737915,0.10638428
1603558052179,322,0.2241211,-0.8904419,0.17181396
1603558052180,323,0.1899414,-0.8855591,0.066589355
1603558052180,324,-0.010253906,-0.90826416,0.07513428
1603558052180,325,0.09423828,-0.92071533,0.032409668
1603558052180,326,0.091308594,-1.015686,0.043640137
1603558052181,327,0.0021972656,-1.1343384,-0.19293213
1603558052182,328,0.7019043,-1.1257935,0.0053100586
1603558052182,329,0.18457031,-0.9602661,-0.3069458
1603558052183,330,0.40454102,-0.87164307,-0.105773926
1603558052183,331,0.4152832,-0.87164307,-0.094055176
1603558052183,332,0.56689453,-0.86676025,-0.117248535
1603558052184,333,0.48486328,-0.9048462,-0.17218018
1603558052185,334,0.37890625,-0.91656494,-0.32769775
1603558052185,335,0.25512695,-0.89141846,-0.33843994
1603558052187,336,0.54711914,-1.0166626,0.029968262
1603558052187,337,0.7211914,-0.82110596,0.10076904
1603558052187,338,0.48120117,-1.1921997,-0.15997314
1603558052187,339,-0.05053711,-1.2056274,-0.105041504
1603558052187,340,0.30249023,-0.92559814,-0.093811035
1603558052187,341,-0.08862305,-0.67437744,-0.16290283
1603558052188,342,0.41577148,-0.8357544,0.29193115
1603558052188,343,0.43432617,-1.1790161,0.020935059
1603558052189,344,0.3623047,-0.75909424,-0.04522705
1603558052189,345,0.5476074,-0.8128052,-0.043762207
1603558052189,346,0.42333984,-0.91485596,0.22381592
1603558052189,347,0.48486328,-0.7241821,0.17938232
1603558052190,348,0.7138672,-0.6494751,0.08319092
1603558052190,349,0.7141113,-0.756897,0.09539795
1603558052191,350,0.80908203,-0.7341919,0.3007202
1603558052192,351,0.88964844,-0.598938,0.38079834
1603558054970,352,0.4152832,-0.26568604,0.30316162
1603558054970,353,0.4885254,-0.46368408,0.36541748
1603558054971,354,0.15795898,-0.6084595,0.19281006
1603558054971,355,0.54418945,-0.84210205,0.22332764
1603558054971,356,0.7072754,-0.739563,0.34320068
1603558054972,357,0.6201172,-0.9434204,0.42034912
1603558054972,358,0.638916,-0.8838501,0.24871826
1603558054973,359,0.5131836,-0.9241333,0.25408936
1603558054973,360,0.6140137,-1.0322876,0.3768921
1603558054973,361,0.5761719,-0.84625244,0.19476318
1603558054974,362,0.5239258,-0.7305298,0.24676514
1603558054974,363,0.44506836,-0.7949829,0.24749756
1603558054974,364,0.5419922,-0.8477173,0.124694824
1603558054975,365,0.59375,-0.8074341,0.07489014
1603558054975,366,0.5600586,-0.831604,-0.016418457
1603558054976,367,0.4494629,-0.89849854,-0.093322754
1603558054976,368,0.40405273,-0.9356079,-0.08795166
1603558054976,369,0.37939453,-0.93096924,-0.10772705
1603558054977,370,0.28051758,-0.9768677,-0.1375122
1603558054977,371,0.15209961,-0.9854126,-0.11016846
1603558054978,372,0.15161133,-0.9981079,-0.10870361
1603558054978,373,0.18920898,-0.9968872,-0.06573486
1603558054979,374,0.06616211,-1.0947876,-0.11431885
1603558054979,375,0.15576172,-1.0320435,0.062194824
1603558054980,376,-0.1850586,-1.0386353,0.20013428
1603558054981,377,-0.18945312,-0.9446411,0.2831421
1603558054981,378,0.10839844,-0.91119385,0.23309326
1603558054981,379,-0.014160156,-0.90167236,0.30291748
1603558054982,380,0.22949219,-0.8311157,0.24847412
1603558054982,381,0.15551758,-0.7974243,0.43670654
1603558054982,382,0.3293457,-0.98931885,0.42156982
1603558054983,383,0.20874023,-0.97076416,0.41912842
1603558057781,384,0.19091797,-0.7913208,0.46429443
1603558057781,385,0.46606445,-0.7012329,0.4779663
1603558057782,386,0.4338379,-0.7312622,0.45257568
1603558057782,387,0.32128906,-0.82232666,0.36541748
1603558057783,388,0.3125,-0.8765259,0.30218506
1603558057783,389,0.5834961,-0.83135986,0.070007324
1603558057783,390,0.42358398,-0.8789673,0.020690918
1603558057784,391,0.43237305,-0.9529419,-0.21368408
1603558057784,392,0.36791992,-0.9932251,-0.1819458
1603558057784,393,0.30786133,-1.1011353,-0.23345947
1603558057784,394,0.30151367,-1.2490845,0.03778076
1603558057785,395,-0.011962891,-0.78448486,0.018005371
1603558057785,396,0.26586914,-0.788147,-0.03643799
1603558057786,397,0.10229492,-1.0791626,-0.029846191
1603558057786,398,-0.40161133,-0.897522,-0.026672363
1603558057786,399,-0.13769531,-0.85894775,-0.0569458
1603558057786,400,0.011230469,-1.3840942,0.3348999
1603558057787,401,0.20922852,-1.0171509,-0.19049072
1603558057787,402,-0.125,-0.96466064,0.023864746
1603558057788,403,0.20703125,-1.0794067,-0.058410645
1603558057788,404,0.053955078,-0.98931885,-0.101623535
1603558057788,405,0.12036133,-1.0222778,-0.06744385
1603558057789,406,0.19042969,-1.0178833,-0.10845947
1603558057789,407,0.088378906,-0.9758911,-0.04498291
1603558057789,408,0.19702148,-1.1150513,-3.0517578E-4
1603558057790,409,-0.08154297,-1.15802,0.042663574
1603558057790,410,0.38256836,-0.96221924,-0.16827393
1603558057791,411,0.23486328,-1.1257935,-0.22369385
1603558057791,412,-0.15795898,-0.8086548,-0.21051025
1603558057791,413,-0.27783203,-0.85040283,-0.1807251
1603558057792,414,0.11206055,-1.3162231,0.2789917
1603558057792,415,0.5715332,-0.67388916,-0.25665283
1603558059870,416,0.56274414,-1.1748657,-0.20977783
1603558059871,417,0.41235352,-0.78448486,-0.01373291
1603558059871,418,0.4880371,-0.90875244,0.061950684
1603558059871,419,0.6179199,-0.80181885,0.137146
1603558059871,420,0.5671387,-0.7427368,0.2255249
1603558059871,421,0.61450195,-0.7576294,0.26678467
1603558059871,422,0.5390625,-0.72491455,0.3270874
1603558059871,423,0.5625,-0.6968384,0.41522217
1603558059871,424,0.40551758,-0.76641846,0.46722412
1603558059871,425,0.37060547,-0.75860596,0.48406982
1603558059871,426,0.41235352,-0.6663208,0.56414795
1603558059871,427,0.5883789,-0.5215454,0.56781006
1603558059871,428,0.6887207,-0.51690674,0.5975952
1603558059872,429,0.515625,-0.47784424,0.55926514
1603558059872,430,0.5053711,-0.6289673,0.5097046
1603558059872,431,-0.09350586,-0.5527954,0.17767334
1603558059872,432,0.35864258,-1.4605103,0.9411011
1603558059873,433,0.43408203,-0.7197876,0.21063232
1603558059874,434,0.7636719,-0.7546997,0.06390381
1603558059874,435,0.26513672,-0.90753174,0.097351074
1603558059874,436,0.38476562,-0.92193604,-0.0010375977
1603558059875,437,0.10253906,-0.99420166,-0.019348145
1603558059875,438,0.27124023,-1.0652466,-0.33306885
1603558059876,439,0.31079102,-1.3921509,-0.2925415
1603558059877,440,-0.16503906,-1.4868774,-0.36505127
1603558059877,441,0.17114258,-1.0667114,-0.15582275
1603558059877,442,0.28076172,-0.52056885,-0.010803223
1603558059877,443,0.28857422,-1.3938599,-0.02935791
1603558059878,444,0.529541,-1.4907837,-0.11187744
1603558059879,445,-0.44628906,-0.5071411,-0.1609497
1603558059879,446,0.27685547,-0.2642212,0.1281128
1603558059879,447,0.9938965,-0.93951416,0.5023804
1603558062490,448,0.40893555,-0.73516846,0.14935303
1603558062490,449,0.8461914,-0.85162354,0.058044434
1603558062491,450,0.48364258,-0.567688,0.04949951
1603558062491,451,0.72998047,-0.7546997,-0.050598145
1603558062491,452,0.4050293,-0.78302,-0.006652832
1603558062492,453,0.4465332,-0.7949829,0.036315918
1603558062492,454,0.34985352,-0.7905884,-0.027893066
1603558062493,455,0.4128418,-0.97320557,-0.17193604
1603558062493,456,0.4033203,-1.0237427,-0.10357666
1603558062493,457,0.1809082,-1.3284302,0.37005615
1603558062493,458,0.22753906,-1.0410767,0.1251831
1603558062494,459,0.42236328,-0.866272,-0.15411377
1603558062494,460,0.09741211,-0.8723755,0.06536865
1603558062495,461,0.18530273,-0.7029419,0.06414795
1603558062495,462,0.30078125,-0.835022,0.34661865
1603558062495,463,0.73461914,-0.9668579,0.494812
1603558062496,464,0.21069336,-1.2844849,-0.097229004
1603558062497,465,0.072021484,-0.76885986,-0.60528564
1603558062497,466,0.38623047,-0.99713135,-0.19805908
1603558062497,467,0.33520508,-0.975647,-0.18780518
1603558062497,468,0.28881836,-0.9661255,-0.23468018
1603558062498,469,0.33642578,-0.92974854,-0.2588501
1603558062498,470,0.2824707,-0.94610596,-0.24346924
1603558062498,471,0.21166992,-1.1900024,-0.31158447
1603558062499,472,0.13793945,-1.0818481,-0.12872314
1603558062499,473,0.03100586,-1.0032349,-0.0025024414
1603558062500,474,0.15844727,-0.83184814,-0.097717285
1603558062500,475,0.19458008,-0.85357666,-0.04864502
1603558062501,476,0.11206055,-0.93951416,0.08343506
1603558062501,477,0.25048828,-1.1494751,0.08074951
1603558062502,478,0.35888672,-0.9793091,0.036315918
1603558062502,479,0.501709,-0.7407837,0.27947998
1603558065495,480,0.32495117,-1.0095825,0.33758545
1603558065497,481,0.23876953,-0.9824829,-0.07183838
1603558065498,482,0.57543945,-0.7805786,-0.19439697
1603558065498,483,0.21020508,-1.1018677,-0.45977783
1603558065498,484,0.6032715,-0.97320557,-0.43585205
1603558065500,485,0.19165039,-0.8945923,-0.159729
1603558065500,486,0.5895996,-0.7686157,0.06072998
1603558065500,487,0.47143555,-0.9807739,0.15814209
1603558065501,488,0.22924805,-1.3259888,-0.031799316
1603558065501,489,0.09692383,-1.4817505,-0.3796997
1603558065502,490,0.40625,-1.0681763,-0.27349854
1603558065502,491,0.052490234,-0.6814575,-0.101623535
1603558065503,492,0.49804688,-0.48516846,0.12689209
1603558065503,493,0.4794922,-0.5635376,0.23724365
1603558065504,494,0.3696289,-1.020813,-0.031555176
1603558065504,495,0.78271484,-0.86676025,-0.333313
1603558065506,496,0.31518555,-1.1397095,-0.40118408
1603558065506,497,0.49194336,-0.954895,-0.19683838
1603558065506,498,0.40966797,-0.8140259,-0.026184082
1603558065506,499,0.44091797,-0.74176025,0.059265137
1603558065506,500,0.56030273,-1.0088501,0.0016479492
1603558065508,501,0.25024414,-1.420227,0.059020996
1603558065509,502,0.4099121,-1.298645,-0.32769775
1603558065509,503,0.26879883,-0.92681885,-0.08062744
1603558065509,504,0.25952148,-0.42340088,0.027282715
1603558065509,505,0.74487305,-0.61065674,0.3319702
1603558065509,506,0.171875,-0.8965454,-0.54107666
1603558065510,507,0.09790039,-1.131897,-0.14971924
1603558065510,508,0.50805664,-1.1531372,-0.09893799
1603558065511,509,0.4897461,-1.0845337,-0.23052979
1603558065511,510,0.5488281,-0.76812744,-0.19415283
1603558065511,511,0.28637695,-0.72247314,-0.28546143
1603558067743,512,0.091552734,-0.76226807,-0.32403564
1603558067744,513,0.26098633,-1.0618286,-0.22027588
1603558067745,514,0.43530273,-1.3081665,-0.121154785
1603558067746,515,0.48632812,-1.0144653,-0.28179932
1603558067747,516,0.34106445,-0.8748169,-0.17193604
1603558067748,517,0.39135742,-0.65289307,-0.13897705
1603558067748,518,0.6179199,-0.81207275,0.12957764
1603558067749,519,0.39208984,-1.1165161,0.051452637
1603558067750,520,0.26904297,-1.2669067,-0.36236572
1603558067750,521,0.44921875,-1.1914673,0.07928467
1603558067750,522,0.21582031,-0.8362427,0.062683105
1603558067751,523,0.3569336,-0.442688,0.1359253
1603558067752,524,0.82836914,-0.64434814,0.02508545
1603558067752,525,0.055419922,-1.0186157,0.0048217773
1603558067752,526,0.3076172,-1.1387329,-0.2637329
1603558067753,527,0.42700195,-1.2156372,-0.37921143
1603558067753,528,0.41577148,-1.0169067,-0.2564087
1603558067754,529,0.35986328,-0.81329346,-0.08721924
1603558067755,530,0.49072266,-0.6890259,0.031921387
1603558067756,531,0.6958008,-0.75372314,0.22332764
1603558067756,532,0.1875,-1.1331177,0.054382324
1603558067756,533,0.12548828,-1.347229,0.06048584
1603558067757,534,0.3474121,-1.2102661,-0.030822754
1603558067757,535,0.072265625,-0.878479,-0.0012817383
1603558067757,536,0.46484375,-0.58795166,0.036071777
1603558067758,537,0.6791992,-0.5762329,0.042175293
1603558067759,538,0.32299805,-1.1497192,0.24481201
1603558067759,539,0.26293945,-0.9307251,-0.50445557
1603558067759,540,0.3774414,-1.1211548,-0.3086548
1603558067759,541,0.3347168,-1.092102,-0.3255005
1603558067760,542,0.33666992,-0.90045166,-0.3164673
1603558067760,543,0.46948242,-0.68170166,0.032409668
1603558070369,544,0.5932617,-0.69976807,-0.117004395
1603558070369,545,0.23779297,-1.3010864,0.121276855
1603558070369,546,-0.049804688,-1.4099731,0.042907715
1603558070370,547,0.08520508,-1.2825317,-0.14605713
1603558070371,548,0.2265625,-0.8682251,-0.14556885
1603558070371,549,0.19458008,-0.62872314,-0.14385986
1603558070372,550,0.51000977,-0.64019775,-0.13458252
1603558070372,551,0.7819824,-0.95635986,0.20355225
1603558070372,552,0.22338867,-0.81427,-0.52545166
1603558070373,553,0.4921875,-1.0908813,-0.23394775
1603558070374,554,0.31176758,-1.0889282,-0.46392822
1603558070374,555,0.25830078,-0.9920044,-0.24884033
1603558070376,556,0.44726562,-0.9006958,-0.07476807
1603558070379,557,0.55810547,-0.72369385,-0.0569458
1603558070379,558,0.4494629,-0.8616333,0.047790527
1603558070379,559,0.09301758,-1.2351685,0.19573975
1603558070379,560,-0.024902344,-1.477356,-0.15338135
1603558070380,561,0.28393555,-1.1279907,-0.04156494
1603558070380,562,0.083496094,-0.72198486,-0.117004395
1603558070382,563,0.9355469,-0.4602661,-0.15435791
1603558070382,564,0.35107422,-0.7632446,0.13079834
1603558070383,565,0.14355469,-0.99053955,0.13250732
1603558070384,566,0.6032715,-0.9187622,-0.31134033
1603558070384,567,0.25561523,-1.1194458,-0.41778564
1603558070384,568,0.3347168,-1.1553345,-0.28863525
1603558070384,569,0.49414062,-0.9780884,-0.15875244
1603558070385,570,1.0554199,-0.57769775,0.34613037
1603558070386,571,0.60058594,-0.6604614,0.012634277
1603558070386,572,0.41577148,-1.3225708,-0.96710205
1603558070386,573,0.40185547,-1.3999634,-0.23712158
1603558070386,574,0.2019043,-1.128479,-0.27667236
1603558070387,575,0.35668945,-0.5610962,-0.022277832
1603558072805,576,-0.3581543,-0.35406494,0.11273193
1603558072806,577,0.7832031,-1.3482056,-0.018859863
1603558072806,578,0.38354492,-1.3403931,-0.43341064
1603558072807,579,0.5656738,-0.8870239,-0.19952393
1603558072808,580,0.037841797,-0.65411377,-0.08013916
1603558072808,581,-9.765625E-4,-1.0266724,0.26385498
1603558072809,582,-0.19091797,-1.3945923,0.026550293
1603558072812,583,0.05859375,-1.0545044,0.13861084
1603558072812,584,0.19458008,-0.62384033,0.12884521
1603558072812,585,0.6459961,-0.58013916,0.23236084
1603558072812,586,1.1293945,-0.8977661,0.070251465
1603558072812,587,1.1748047,-0.8345337,-0.4644165
1603558072812,588,0.45483398,-0.8831177,-1.0940552
1603558072812,589,-0.024658203,-1.2383423,-0.43048096
1603558072812,590,0.35424805,-1.0237427,-0.0713501
1603558072812,591,0.08496094,-0.8623657,-0.14215088
1603558072812,592,0.48413086,-0.7515259,0.008239746
1603558072812,593,-0.22265625,-1.2354126,0.1359253
1603558072812,594,-0.09399414,-1.142395,0.19793701
1603558072813,595,0.068847656,-1.0567017,0.27215576
1603558072813,596,0.18823242,-0.9602661,0.093933105
1603558072813,597,0.7270508,-0.8792114,-0.1026001
1603558072813,598,0.74194336,-0.8460083,-0.018859863
1603558072813,599,0.3305664,-0.75982666,0.01727295
1603558072814,600,0.7841797,-0.7698364,-0.4902954
1603558072814,601,0.96313477,-0.5835571,-0.2131958
1603558072815,602,0.6101074,-0.6802368,-0.29937744
1603558072815,603,0.8625488,-0.6213989,-0.43170166
1603558072815,604,0.15795898,-1.0825806,-0.69244385
1603558072816,605,0.12011719,-1.1777954,-0.60894775
1603558072816,606,0.19042969,-1.1365356,-0.24224854
1603558072816,607,0.13989258,-0.75982666,-0.06890869
1603558075429,608,0.18798828,-0.769104,-0.14459229
1603558075430,609,-0.023925781,-0.94976807,0.050231934
1603558075431,610,-0.5161133,-1.5525513,0.3517456
1603558075434,611,-0.029296875,-1.2920532,-0.10723877
1603558075435,612,0.24658203,-1.0689087,-0.08380127
1603558075435,613,0.68188477,-0.8640747,0.005065918
1603558075435,614,0.55200195,-0.5942993,0.008972168
1603558075436,615,0.5817871,-0.61260986,0.25335693
1603558075436,616,0.28588867,-0.6494751,-0.2949829
1603558075436,617,1.262207,-0.6416626,-0.090148926
1603558075439,618,0.58935547,-0.7871704,-0.5203247
1603558075440,619,0.71313477,-0.90997314,-0.33184814
1603558075440,620,0.34179688,-1.0115356,-0.5322876
1603558075440,621,0.1274414,-1.1685181,-0.35845947
1603558075440,622,0.25976562,-0.92022705,-0.22930908
1603558075440,623,0.3461914,-0.8496704,-0.06524658
1603558075440,624,0.75561523,-0.7000122,0.022399902
1603558075440,625,-0.1953125,-1.1079712,-0.4920044
1603558075440,626,0.3630371,-1.2600708,0.007751465
1603558075441,627,0.29736328,-1.1550903,-0.07965088
1603558075441,628,0.109375,-0.96221924,0.07904053
1603558075442,629,0.3720703,-0.8386841,0.05682373
1603558075442,630,0.15405273,-0.78009033,-0.30499268
1603558075442,631,-0.5773926,-1.050354,0.042175293
1603558075443,632,0.10839844,-1.173645,-0.16339111
1603558075443,633,0.2944336,-1.0198364,-0.16558838
1603558075444,634,0.026367188,-0.97784424,-0.2666626
1603558075444,635,0.039794922,-1.0679321,-0.29815674
1603558075444,636,0.15673828,-1.0747681,-0.36627197
1603558075445,637,-0.012451172,-1.079895,-0.2913208
1603558075446,638,0.4477539,-0.86920166,-0.5203247
1603558075446,639,0.5949707,-0.7576294,-0.17242432
1603558078244,640,0.29907227,-0.8171997,-0.017150879
1603558078245,641,0.20507812,-1.1694946,0.13665771
1603558078246,642,0.29736328,-1.0610962,0.25628662
1603558078247,643,0.022705078,-0.881897,0.081970215
1603558078250,644,0.36816406,-1.0747681,0.0368042
1603558078250,645,0.4790039,-1.0320435,-0.0881958
1603558078250,646,0.35839844,-0.95098877,0.05267334
1603558078251,647,0.2548828,-0.8648071,-0.006652832
1603558078251,648,0.37768555,-0.75201416,0.028503418
1603558078251,649,0.6208496,-0.70513916,0.2033081
1603558078251,650,0.78222656,-0.87823486,0.18255615
1603558078252,651,0.32714844,-0.8164673,0.089538574
1603558078252,652,0.41723633,-1.2810669,0.1161499
1603558078252,653,0.040527344,-0.9612427,-0.1987915
1603558078253,654,0.35302734,-0.923645,-0.10211182
1603558078253,655,0.071777344,-1.0022583,-0.18927002
1603558078254,656,0.028076172,-0.987854,-0.29058838
1603558078254,657,0.21533203,-1.0020142,-0.12994385
1603558078254,658,0.15185547,-1.0115356,-0.16363525
1603558078255,659,0.14697266,-1.0132446,-0.2119751
1603558078255,660,0.19213867,-0.9949341,-0.18829346
1603558078256,661,0.009033203,-1.0205688,-0.20440674
1603558078257,662,0.13134766,-1.0120239,-0.2720337
1603558078257,663,-0.024414062,-1.0579224,-0.17242432
1603558078257,664,-0.048339844,-1.0151978,-0.093566895
1603558078258,665,-0.08691406,-0.79937744,-0.37139893
1603558078258,666,0.8869629,-0.8543091,0.14471436
1603558078258,667,-0.16210938,-0.35406494,-0.32208252
1603558078259,668,1.0610352,-1.0264282,-0.008850098
1603558078259,669,0.27514648,-0.68096924,0.04852295
1603558078260,670,0.97924805,-0.81915283,-0.10601807
1603558078260,671,0.6152344,-0.48101807,-0.012268066
1603558080683,672,0.8449707,-0.57940674,0.14642334
1603558080684,673,0.9243164,-1.0203247,0.2658081
1603558080684,674,1.2607422,-1.4055786,0.13885498
1603558080685,675,0.9987793,-1.4900513,0.21356201
1603558080688,676,0.43798828,-0.47662354,0.026306152
1603558080689,677,-0.0036621094,0.33953857,-0.3772583
1603558080689,678,-0.671875,-0.269104,0.059509277
1603558080690,679,-0.021484375,-0.74005127,0.09320068
1603558080690,680,-0.29101562,-0.91485596,0.25701904
1603558080690,681,-0.7897949,-1.6624146,0.019958496
1603558080691,682,-0.32885742,-1.4158325,0.09197998
1603558080692,683,-0.25048828,-1.0635376,-0.050354004
1603558080692,684,-0.48657227,-0.84259033,0.046569824
1603558080692,685,-0.90722656,-1.2756958,0.0038452148
1603558080692,686,-0.93603516,-1.9500122,0.061950684
1603558080692,687,-0.34399414,-1.3618774,0.026062012
1603558080693,688,0.037109375,-0.44122314,0.113708496
1603558080693,689,-0.42773438,-0.46343994,-0.1375122
1603558080694,690,-0.14355469,-0.3015747,-0.2546997
1603558080694,691,-0.3540039,-0.4229126,-0.097961426
1603558080695,692,0.23754883,-0.8550415,0.0914917
1603558080695,693,0.80615234,-1.2005005,0.23822021
1603558080695,694,0.7207031,-0.9866333,0.19476318
1603558080696,695,0.9387207,-0.82354736,0.42474365
1603558080696,696,0.7219238,-0.4590454,0.46917725
1603558080696,697,1.0712891,-0.31500244,0.5482788
1603558080697,698,1.0195312,-0.3826294,0.38275146
1603558080697,699,0.8522949,-0.5125122,0.3270874
1603558080698,700,0.84106445,-0.6836548,0.070007324
1603558080698,701,1.0441895,-1.1096802,0.046813965
1603558080698,702,0.7861328,-1.8123169,0.16497803
1603558080699,703,0.32348633,-0.6914673,-0.027404785
1603558083679,704,0.5251465,0.15130615,0.1942749
1603558083679,705,-0.42578125,-0.021057129,-0.3255005
1603558083680,706,-0.20678711,-0.15484619,-0.17242432
1603558083681,707,0.14355469,-0.04815674,0.18035889
1603558083681,708,-0.09863281,-0.35235596,0.05340576
1603558083682,709,0.7277832,-1.9998169,0.23968506
1603558083682,710,1.7976074,-1.6013794,0.23480225
1603558083682,711,0.014160156,-0.40631104,0.055358887
1603558083682,712,1.0170898,-0.69195557,0.2111206
1603558083687,713,0.82006836,-0.38360596,0.38763428
1603558083687,714,0.9121094,-0.27178955,0.2526245
1603558083687,715,0.94189453,-0.17193604,0.27752686
1603558083688,716,0.8588867,-0.18365479,0.47161865
1603558083688,717,0.9265137,-0.25811768,0.5036011
1603558083688,718,0.7609863,-0.23052979,0.38812256
1603558083689,719,0.79003906,-0.7420044,0.42547607
1603558083689,720,0.7800293,-1.3399048,0.36346436
1603558083689,721,0.6027832,-1.5545044,0.19573975
1603558083689,722,0.37304688,-0.7000122,-0.0012817383
1603558083689,723,-0.44555664,0.15692139,-0.21588135
1603558083689,724,-0.44213867,-1.0530396,-0.16925049
1603558083689,725,-0.12963867,-0.6526489,0.012634277
1603558083691,726,-0.15234375,-0.38824463,-0.18560791
1603558083691,727,0.033935547,-0.9002075,0.012634277
1603558083691,728,-1.3498535,-1.1253052,-0.40045166
1603558083693,729,-1.1508789,-1.2158813,-0.5667114
1603558083693,730,-0.55249023,-0.84039307,-0.3826294
1603558083693,731,0.08227539,-0.6773071,-0.3814087
1603558083693,732,-1.1540527,-0.9351196,-0.47247314
1603558083693,733,-0.9614258,-0.90704346,-0.57110596
1603558083693,734,-1.0727539,-1.0662231,-0.7744751
1603558083693,735,-1.0822754,-1.6538696,-0.45928955
1603558085931,736,-0.23266602,-0.81329346,-0.25177002
1603558085931,737,0.28295898,-0.36871338,-0.0037231445
1603558085932,738,-0.46704102,-0.63531494,-0.1362915
1603558085933,739,-0.06567383,-0.38433838,-0.27911377
1603558085933,740,-0.19458008,-0.6165161,-0.25836182
1603558085934,741,0.08862305,-1.1880493,0.19451904
1603558085934,742,0.7746582,-1.3152466,0.4586792
1603558085935,743,0.5019531,-0.6890259,0.26385498
1603558085937,744,1.0612793,-0.3982544,0.5824585
1603558085937,745,0.86572266,-0.30352783,0.5741577
1603558085937,746,0.78125,-0.18121338,0.48236084
1603558085938,747,1.3049316,-0.36798096,0.31781006
1603558085938,748,0.8762207,-0.39019775,0.31951904
1603558085940,749,0.8413086,-0.69195557,0.22454834
1603558085940,750,0.9213867,-1.09552,0.2929077
1603558085940,751,0.7199707,-1.8936157,0.28704834
1603558085940,752,0.5600586,-0.5952759,-0.3862915
1603558085940,753,0.2319336,-0.07159424,0.340271
1603558085941,754,-0.104003906,0.04534912,-0.10406494
1603558085941,755,-0.046142578,-0.1819458,0.014587402
1603558085941,756,-0.0012207031,0.006286621,0.008239746
1603558085941,757,0.2133789,-0.37335205,-0.05328369
1603558085942,758,0.70532227,-1.9998169,-0.08770752
1603558085942,759,0.8417969,-1.975647,-0.033996582
1603558085942,760,0.83740234,-1.2544556,-0.0071411133
1603558085943,761,0.77612305,-0.98516846,-0.09429932
1603558085944,762,0.21777344,-0.75323486,0.031677246
1603558085944,763,-0.048339844,-0.7251587,0.08148193
1603558085945,764,-0.015380859,-0.70562744,0.25579834
1603558085945,765,0.10913086,-1.1409302,-0.026916504
1603558085945,766,0.26220703,-1.0366821,-0.15826416
1603558085945,767,0.10839844,-0.9417114,-0.28985596
1603558088366,768,-0.03515625,-0.99420166,-0.22784424
1603558088367,769,0.09814453,-1.1731567,0.03363037
1603558088368,770,0.27148438,-0.9258423,-0.25909424
1603558088369,771,0.029785156,-1.0149536,-0.27520752
1603558088369,772,0.07543945,-1.0393677,-0.16436768
1603558088370,773,0.0703125,-1.0090942,-0.11212158
1603558088370,774,0.061767578,-1.0181274,-0.31744385
1603558088372,775,0.16796875,-1.0632935,-0.03302002
1603558088372,776,-0.38208008,-0.84552,-0.29400635
1603558088372,777,0.43652344,-0.6626587,0.17254639
1603558088373,778,0.25634766,-0.67559814,-0.23443604
1603558088373,779,0.2043457,-1.2315063,-0.13555908
1603558088373,780,0.44213867,-1.9998169,-0.13897705
1603558088374,781,0.50219727,-1.9998169,-0.01373291
1603558088375,782,0.37426758,-0.2774048,-0.17999268
1603558088375,783,0.20214844,0.19134521,0.25238037
1603558088375,784,-0.21289062,-0.42242432,-0.5317993
1603558088376,785,-0.018798828,-0.05718994,0.031188965
1603558088376,786,0.4013672,0.35858154,-0.089904785
1603558088377,787,0.87109375,-0.23321533,0.48382568
1603558088379,788,1.9492188,-0.7139282,-0.5093384
1603558088379,789,1.6501465,-0.3430786,-0.16949463
1603558088379,790,1.4055176,-0.3213501,-0.1104126
1603558088379,791,1.154541,-0.41485596,-0.31866455
1603558088379,792,0.9016113,-0.5039673,-0.14093018
1603558088380,793,0.7458496,-0.2901001,-0.37994385
1603558088380,794,0.41381836,0.097351074,-0.06524658
1603558088380,795,0.70214844,-0.25128174,-0.07867432
1603558088381,796,1.2612305,-0.36676025,-0.20904541
1603558088381,797,1.0427246,-0.20025635,-0.26739502
1603558088381,798,0.79052734,-0.29058838,-0.0049438477
1603558088381,799,0.6730957,-0.31158447,-0.159729
1603558090994,800,0.8547363,-0.23638916,-0.010803223
1603558090995,801,0.9904785,-0.07574463,0.07342529
1603558090995,802,1.3088379,0.016296387,0.08099365
1603558090997,803,0.75268555,-0.54156494,-0.53863525
1603558090998,804,0.95214844,-0.21759033,-0.37139893
1603558090999,805,0.8430176,-0.48931885,-0.09844971
1603558091000,806,0.8996582,-0.25274658,-0.159729
1603558091000,807,0.99731445,-0.45513916,-0.16339111
1603558091001,808,1.1594238,0.011413574,0.18304443
1603558091001,809,1.3039551,0.0021362305,-0.14263916
1603558091002,810,0.9958496,-0.43121338,-1.1519165
1603558091003,811,1.1479492,-0.33233643,-0.30767822
1603558091003,812,0.7468262,-0.4805298,-0.51763916
1603558091004,813,0.45214844,-0.6987915,-0.19708252
1603558091004,814,0.99902344,-0.11846924,0.046081543
1603558091004,815,0.93359375,-0.4360962,-0.11187744
1603558091004,816,0.98046875,-0.66192627,0.03656006
1603558091004,817,0.89624023,-0.269104,-0.01763916
1603558091005,818,0.9321289,-0.23590088,-0.1260376
1603558091005,819,1.0100098,-0.29473877,0.018981934
1603558091006,820,0.9265137,-0.32843018,0.16912842
1603558091007,821,0.9248047,-0.12701416,0.1317749
1603558091007,822,0.9003906,-0.11871338,0.121032715
1603558091007,823,0.8876953,-0.21026611,0.120788574
1603558091008,824,0.9169922,-0.31427002,0.22161865
1603558091008,825,0.92700195,-0.2930298,0.21258545
1603558091009,826,0.8852539,-0.22491455,0.16790771
1603558091009,827,0.8347168,-0.23516846,0.2584839
1603558091009,828,0.8701172,-0.046936035,0.21087646
1603558091010,829,1.1342773,-0.12530518,0.20550537
1603558091011,830,1.2351074,-0.3164673,0.37127686
1603558091011,831,0.67041016,-0.43756104,0.21820068
1603558093618,832,0.7988281,-0.35040283,0.16400146
1603558093619,833,0.6940918,-0.27056885,0.14227295
1603558093619,834,0.7180176,-0.16485596,0.1227417
1603558093620,835,0.81689453,-0.11016846,0.0914917
1603558093621,836,1.0837402,-0.46221924,0.15838623
1603558093622,837,0.75268555,-0.34039307,0.10882568
1603558093622,838,1.2407227,-0.10992432,-0.042541504
1603558093622,839,0.8574219,-0.31817627,-0.13336182
1603558093623,840,0.9650879,-0.32818604,-0.06549072
1603558093624,841,0.890625,-0.46905518,-0.16973877
1603558093625,842,1.0661621,-0.47686768,-0.10455322
1603558093627,843,1.0568848,-0.38897705,0.3534546
1603558093627,844,0.6809082,-0.13873291,0.37591553
1603558093627,845,0.50805664,-0.1921997,-0.08282471
1603558093628,846,0.6657715,-0.2300415,-0.11871338
1603558093628,847,1.5258789,0.13763428,0.28070068
1603558093628,848,1.0935059,-0.19415283,0.14202881
1603558093629,849,0.91796875,-0.14996338,-0.15777588
1603558093630,850,0.8703613,-0.20343018,0.020202637
1603558093630,851,0.9719238,-0.31915283,-0.15704346
1603558093631,852,0.9694824,-0.48980713,0.2098999
1603558093631,853,0.97631836,-0.23687744,0.54559326
1603558093631,854,0.69018555,0.27581787,0.44744873
1603558093632,855,0.8203125,0.007019043,0.5050659
1603558093632,856,0.8105469,-0.17877197,0.57025146
1603558093633,857,0.8684082,-0.11505127,0.49139404
1603558093633,858,0.8046875,-0.04840088,0.50335693
1603558093633,859,0.7553711,-0.05303955,0.37078857
1603558093634,860,0.72802734,0.08392334,0.3295288
1603558093634,861,0.7302246,0.14349365,0.2994995
1603558093634,862,1.0749512,-0.012023926,0.46820068
1603558093635,863,0.6315918,-0.012756348,0.15130615
1603558096429,864,1.095459,-0.13873291,0.14276123
1603558096429,865,0.87231445,-0.4360962,0.023132324
1603558096430,866,0.97265625,-0.4043579,-0.08795166
1603558096430,867,0.9628906,-0.27838135,-0.120666504
1603558096430,868,0.9897461,-0.17218018,-0.085754395
1603558096431,869,0.8623047,-0.30548096,-0.07598877
1603558096432,870,0.8696289,-0.2678833,-0.13336182
1603558096432,871,1.4973145,-0.26739502,0.29071045
1603558096433,872,0.8989258,-0.43658447,-0.0803833
1603558096433,873,0.9733887,-0.5491333,0.18157959
1603558096434,874,0.55322266,-0.38653564,0.09222412
1603558096435,875,0.34716797,-0.23297119,0.25408936
1603558096435,876,0.80566406,-0.23638916,0.73358154
1603558096436,877,0.98876953,-0.4451294,-0.2949829
1603558096436,878,1.1813965,-0.44781494,-0.06817627
1603558096437,879,0.86743164,-0.15948486,-0.0256958
1603558096437,880,0.9807129,-0.11480713,-0.06085205
1603558096438,881,0.99365234,-0.26861572,0.047302246
1603558096438,882,0.9411621,-0.15533447,0.11639404
1603558096439,883,0.8466797,-0.25665283,0.2140503
1603558096439,884,0.8208008,-0.409729,0.23236084
1603558096439,885,0.91967773,-0.20733643,0.16522217
1603558096440,886,0.87890625,-0.33551025,0.21356201
1603558096440,887,0.80810547,-0.43878174,0.17181396
1603558096440,888,0.9445801,-0.22735596,0.1593628
1603558096441,889,0.86694336,-0.31256104,0.184021
1603558096441,890,0.8742676,-0.35162354,0.18206787
1603558096441,891,0.8815918,-0.28692627,0.18450928
1603558096442,892,0.89404297,-0.3086548,0.13885498
1603558096443,893,0.8676758,-0.33502197,0.15545654
1603558096443,894,0.92333984,-0.22662354,0.1539917
1603558096444,895,0.89990234,-0.25421143,0.16522217
1603558099057,896,0.9099121,-0.29083252,0.14422607
1603558099059,897,0.8942871,-0.3196411,0.13250732
1603558099059,898,0.88256836,-0.36724854,0.06976318
1603558099060,899,0.8461914,-0.3970337,0.13934326
1603558099061,900,0.85913086,-0.35333252,0.22039795
1603558099061,901,0.9460449,-0.25860596,0.16278076
1603558099062,902,0.7866211,-0.47979736,0.13323975
1603558099062,903,0.81030273,-0.40045166,0.22796631
1603558099063,904,0.8498535,-0.3262329,0.2074585
1603558099063,905,0.9008789,-0.44805908,-0.05230713
1603558099064,906,0.9382324,-0.29815674,-0.20758057
1603558099064,907,0.8811035,-0.35455322,-0.1831665
1603558099065,908,0.9189453,-0.34991455,-0.08648682
1603558099066,909,0.8366699,-0.45196533,-0.085754395
1603558099066,910,1.1030273,-0.21612549,0.08026123
1603558099067,911,1.189209,-0.18096924,0.31170654
1603558099068,912,0.36132812,-0.046447754,-0.11529541
1603558099068,913,0.47998047,0.04510498,-0.14581299
1603558099068,914,0.87231445,-0.02154541,0.27508545
1603558099069,915,1.3815918,0.17132568,0.121032715
1603558099069,916,1.107666,0.013366699,0.31976318
1603558099070,917,0.67749023,-0.022521973,0.277771
1603558099071,918,0.7976074,0.24969482,0.09832764
1603558099071,919,0.8820801,0.4064331,0.19500732
1603558099071,920,0.7668457,0.3336792,0.32366943
1603558099071,921,0.8598633,0.4208374,0.40130615
1603558099072,922,0.8076172,0.53656006,0.46429443
1603558099072,923,0.69921875,0.40081787,0.58148193
1603558099073,924,0.76831055,0.57025146,0.62908936
1603558099073,925,0.63916016,0.43475342,0.539978
1603558099074,926,0.62280273,0.42694092,0.5609741
1603558099074,927,0.49487305,0.44891357,0.5199585
1603558101494,928,0.54174805,0.5883179,0.49554443
1603558101495,929,0.5222168,0.5360718,0.51971436
1603558101495,930,0.5632324,0.5338745,0.56170654
1603558101496,931,0.54907227,0.49188232,0.5602417
1603558101497,932,0.52075195,0.545105,0.53118896
1603558101498,933,0.5090332,0.54974365,0.4953003
1603558101499,934,0.52905273,0.6178589,0.45037842
1603558101499,935,0.61328125,0.54119873,0.5153198
1603558101499,936,0.60424805,0.48968506,0.5700073
1603558101500,937,0.52001953,0.4743042,0.61712646
1603558101500,938,0.5036621,0.58270264,0.52020264
1603558101501,939,0.50146484,0.6017456,0.480896
1603558101501,940,0.5253906,0.5890503,0.4743042
1603558101501,941,0.47827148,0.5988159,0.50335693
1603558101502,942,0.44555664,0.6222534,0.5211792
1603558101502,943,0.46044922,0.65667725,0.49066162
1603558101502,944,0.4243164,0.6166382,0.4772339
1603558101503,945,0.42944336,0.6066284,0.49066162
1603558101503,946,0.47314453,0.63275146,0.5492554
1603558101504,947,0.52685547,0.5819702,0.5685425
1603558101504,948,0.49365234,0.4923706,0.53656006
1603558101504,949,0.5185547,0.54803467,0.56658936
1603558101505,950,0.5144043,0.57073975,0.53240967
1603558101505,951,0.51904297,0.59832764,0.54022217
1603558101506,952,0.49438477,0.5363159,0.54241943
1603558101506,953,0.48120117,0.55584717,0.5368042
1603558101506,954,0.4729004,0.5856323,0.5319214
1603558101507,955,0.47875977,0.57733154,0.5309448
1603558101508,956,0.47509766,0.56585693,0.54437256
1603558101508,957,0.48339844,0.56536865,0.5529175
1603558101509,958,0.49780273,0.5751343,0.5180054
1603558101509,959,0.51123047,0.55926514,0.49578857
1603558103931,960,0.5625,0.53656006,0.5336304
1603558103932,961,0.53271484,0.5092163,0.55755615
1603558103932,962,0.5930176,0.5343628,0.55145264
1603558103934,963,0.5822754,0.43719482,0.5524292
1603558103936,964,0.5578613,0.47381592,0.57244873
1603558103937,965,0.545166,0.5228882,0.56781006
1603558103938,966,0.579834,0.52557373,0.53826904
1603558103938,967,0.52490234,0.5343628,0.49798584
1603558103939,968,0.53515625,0.5661011,0.5038452
1603558103940,969,0.50561523,0.5343628,0.527771
1603558103940,970,0.5480957,0.5595093,0.5397339
1603558103941,971,0.54003906,0.52142334,0.53118896
1603558103941,972,0.48876953,0.52142334,0.55633545
1603558103942,973,0.47729492,0.53582764,0.5219116
1603558103942,974,0.5395508,0.557312,0.5350952
1603558103943,975,0.55566406,0.4928589,0.5524292
1603558103943,976,0.5749512,0.42230225,0.5783081
1603558103944,977,0.59765625,0.4413452,0.586853
1603558103944,978,0.59375,0.42791748,0.59417725
1603558103944,979,0.59033203,0.41864014,0.5890503
1603558103945,980,0.5761719,0.47625732,0.5270386
1603558103945,981,0.57421875,0.47406006,0.524353
1603558103945,982,0.5683594,0.4081421,0.59198
1603558103947,983,0.5822754,0.385437,0.64056396
1603558103947,984,0.5690918,0.40960693,0.5973511
1603558103947,985,0.59228516,0.4796753,0.58392334
1603558103947,986,0.5617676,0.46307373,0.5331421
1603558103948,987,0.5605469,0.5128784,0.54901123
1603558103948,988,0.57714844,0.47821045,0.5331421
1603558103950,989,0.51831055,0.4845581,0.56829834
1603558103950,990,0.5366211,0.4767456,0.5800171
1603558103950,991,0.5214844,0.46331787,0.5790405
1603558106745,992,0.49804688,0.46673584,0.6144409
1603558106745,993,0.46972656,0.44769287,0.6190796
1603558106747,994,0.5493164,0.49871826,0.6124878
1603558106747,995,0.5227051,0.46380615,0.571228
1603558106748,996,0.545166,0.48236084,0.5883179
1603558106749,997,0.53222656,0.463562,0.574646
1603558106749,998,0.529541,0.4459839,0.60687256
1603558106750,999,0.5559082,0.47479248,0.59417725
1603558106751,1000,0.5678711,0.46868896,0.5895386
1603558106751,1001,0.5559082,0.50457764,0.5692749
1603558106751,1002,0.5378418,0.51849365,0.55389404
1603558106752,1003,0.5041504,0.4730835,0.5560913
1603558106752,1004,0.54003906,0.49945068,0.6010132
1603558106752,1005,0.5563965,0.46453857,0.57928467
1603558106753,1006,0.6230469,0.50579834,0.61834717
1603558106753,1007,0.7495117,0.57244873,0.6810913
1603558106754,1008,0.7819824,0.49505615,0.54901123
1603558106754,1009,0.73876953,0.43548584,0.4389038
1603558106754,1010,0.7512207,0.48236084,0.3583374
1603558106755,1011,0.7878418,0.3085327,0.3307495
1603558106755,1012,0.8339844,0.2592163,0.17913818
1603558106755,1013,0.9399414,0.13006592,0.1149292
1603558106756,1014,0.90844727,-0.04840088,0.046081543
1603558106757,1015,0.8388672,-0.18023682,-0.02154541
1603558106757,1016,0.77490234,-0.20098877,0.06854248
1603558106757,1017,0.6687012,-0.33843994,0.0038452148
1603558106757,1018,1.0178223,-0.27423096,-0.101135254
1603558106758,1019,1.0876465,-0.4043579,0.19793701
1603558106758,1020,0.81396484,-0.4668579,0.04046631
1603558106758,1021,0.7885742,-0.36871338,-0.030822754
1603558106759,1022,0.7915039,-0.23980713,-0.019592285
1603558106759,1023,0.8286133,-0.20953369,0.040222168
1603558109182,1024,0.8557129,-0.22198486,0.14691162
1603558109182,1025,0.8491211,-0.2559204,0.20550537
1603558109184,1026,1.3706055,0.022644043,0.27508545
1603558109185,1027,0.56933594,-0.7258911,-0.37213135
1603558109186,1028,0.8647461,-0.42730713,-0.3587036
1603558109186,1029,0.83081055,-0.42144775,-0.2966919
1603558109188,1030,0.8430176,-0.4368286,-0.2732544
1603558109188,1031,0.8640137,-0.40045166,-0.25933838
1603558109190,1032,0.8869629,-0.34820557,-0.2781372
1603558109190,1033,0.8972168,-0.37945557,-0.2498169
1603558109190,1034,0.88256836,-0.43804932,-0.25543213
1603558109190,1035,1.0402832,-0.27398682,-0.18463135
1603558109191,1036,0.97631836,-0.42388916,0.04949951
1603558109191,1037,0.83618164,-0.5088501,-0.36871338
1603558109191,1038,0.84594727,-0.44610596,-0.27618408
1603558109192,1039,0.7246094,-0.32403564,-0.2954712
1603558109192,1040,0.7651367,-0.5532837,-0.0044555664
1603558109193,1041,0.64404297,-0.4981079,-0.21221924
1603558109193,1042,1.1833496,-0.41485596,-0.0037231445
1603558109193,1043,0.73999023,-0.46343994,-0.37335205
1603558109194,1044,0.8925781,-0.2810669,-0.24615479
1603558109194,1045,0.8034668,-0.44586182,-0.18511963
1603558109194,1046,1.0688477,-0.046203613,-0.043518066
1603558109195,1047,1.3041992,-0.3147583,0.0138549805
1603558109195,1048,0.84399414,-0.60723877,-0.7234497
1603558109196,1049,0.6845703,-0.42559814,-0.2522583
1603558109197,1050,0.6425781,-0.27545166,0.18988037
1603558109197,1051,0.7104492,-1.034729,-0.19390869
1603558109197,1052,1.0837402,-0.09649658,-0.24810791
1603558109197,1053,0.81689453,-0.43536377,-0.3731079
1603558109197,1054,0.8198242,-0.54229736,-0.06695557
1603558109198,1055,0.74072266,-0.5569458,-0.2781372
1603558111803,1056,0.8457031,-0.3748169,-0.2678833
1603558111804,1057,0.90649414,-0.47808838,-0.15655518
1603558111804,1058,1.0839844,-0.27764893,-0.29107666
1603558111804,1059,1.1831055,0.39764404,-0.1921997
1603558111804,1060,1.1279297,-0.79278564,-0.62823486
1603558111806,1061,1.1074219,-0.68048096,-0.06011963
1603558111808,1062,0.88720703,-0.5093384,-0.062561035
1603558111808,1063,0.6533203,-0.3508911,-0.1687622
1603558111808,1064,0.55493164,-0.22369385,0.014587402
1603558111808,1065,0.5041504,-0.4258423,0.11590576
1603558111809,1066,1.107666,-0.6577759,0.12371826
1603558111809,1067,1.0715332,-0.17852783,-0.02911377
1603558111809,1068,0.765625,-0.15631104,-0.10015869
1603558111809,1069,1.0310059,-0.06744385,0.02508545
1603558111809,1070,0.8564453,-0.00592041,0.02166748
1603558111809,1071,1.0273438,0.0368042,0.023620605
1603558111809,1072,0.9470215,0.29510498,0.0914917
1603558111810,1073,0.91918945,0.5529175,0.117614746
1603558111810,1074,0.8588867,0.5368042,0.32806396
1603558111811,1075,0.8601074,0.46380615,0.40985107
1603558111811,1076,0.545166,0.48187256,0.32391357
1603558111811,1077,0.51464844,0.59198,0.27069092
1603558111811,1078,0.6035156,0.7892456,0.37054443
1603558111812,1079,0.6633301,0.8317261,0.40985107
1603558111812,1080,0.375,0.5988159,0.24383545
1603558111813,1081,0.28710938,0.7872925,0.24945068
1603558111813,1082,0.1850586,0.76556396,0.15496826
1603558111813,1083,0.33691406,0.8295288,0.15545654
1603558111814,1084,0.4868164,0.7687378,0.26019287
1603558111814,1085,0.5644531,0.76361084,0.39886475
1603558111814,1086,0.5551758,0.6432495,0.37591553
1603558111815,1087,0.56347656,0.7140503,0.30194092
1603558114619,1088,0.5209961,0.6054077,0.3529663
1603558114619,1089,0.46044922,0.5126343,0.48260498
1603558114620,1090,0.7092285,0.6119995,0.43328857
1603558114620,1091,0.5366211,0.5060425,0.3204956
1603558114621,1092,0.9108887,0.66693115,0.3673706
1603558114621,1093,0.7751465,0.5309448,0.5079956
1603558114622,1094,0.97094727,0.4022827,0.2518921
1603558114624,1095,0.91674805,0.40325928,0.026306152
1603558114624,1096,0.84716797,0.38250732,0.15081787
1603558114625,1097,1.1062012,0.007751465,0.401062
1603558114625,1098,0.38989258,-0.17266846,0.2765503
1603558114625,1099,0.56030273,-0.1572876,0.20721436
1603558114626,1100,1.0268555,0.004333496,0.30682373
1603558114626,1101,0.9663086,-0.7288208,0.13934326
1603558114627,1102,0.9941406,-0.35601807,-0.20513916
1603558114627,1103,1.0681152,-0.038635254,0.04559326
1603558114628,1104,0.81884766,-0.3098755,0.012145996
1603558114629,1105,0.79956055,-0.19317627,-0.00592041
1603558114629,1106,0.9194336,-0.25738525,-0.009094238
1603558114630,1107,1.0283203,-0.054748535,-0.27178955
1603558114630,1108,0.90600586,-0.26348877,-0.0064086914
1603558114630,1109,0.95458984,-0.36505127,-0.050109863
1603558114631,1110,0.9501953,-0.15167236,-0.0025024414
1603558114631,1111,0.9213867,-0.11236572,-0.006164551
1603558114631,1112,0.9304199,-0.15802002,-0.10797119
1603558114632,1113,1.026123,-0.25299072,-0.11187744
1603558114632,1114,1.1774902,-0.14849854,0.2597046
1603558114632,1115,1.9533691,0.18475342,0.36102295
1603558114633,1116,1.5827637,-0.41949463,0.08294678
1603558114633,1117,1.3422852,-0.32452393,0.49969482
1603558114633,1118,0.9814453,-0.36676025,0.20721436
1603558114634,1119,0.1538086,-0.5029907,-0.03326416
1603558117056,1120,-0.31591797,-0.4541626,0.116882324
1603558117058,1121,-0.3864746,-0.47320557,0.35003662
1603558117059,1122,0.25634766,-0.34918213,1.1454468
1603558117059,1123,0.3491211,-0.15997314,1.1598511
1603558117060,1124,0.045654297,-0.109680176,0.61395264
1603558117060,1125,-0.009033203,-0.24151611,0.30145264
1603558117060,1126,0.67749023,-0.15118408,0.13909912
1603558117060,1127,1.2207031,-0.16973877,0.22869873
1603558117061,1128,1.0395508,-0.59820557,0.5414429
1603558117062,1129,1.0854492,-1.1243286,0.25897217
1603558117062,1130,1.1765137,-0.519104,-0.02130127
1603558117062,1131,1.0913086,-0.0635376,-0.09210205
1603558117063,1132,0.80444336,-0.43096924,-0.035461426
1603558117064,1133,0.91748047,-0.3953247,-0.097473145
1603558117064,1134,0.88549805,-0.35968018,0.0067749023
1603558117065,1135,0.8815918,-0.4866333,-0.1897583
1603558117065,1136,0.97143555,6.713867E-4,-0.2107544
1603558117065,1137,0.97216797,-0.12432861,-0.11090088
1603558117065,1138,0.90283203,-0.46295166,0.026550293
1603558117066,1139,0.9460449,-0.19049072,-0.082336426
1603558117066,1140,0.9355469,-0.11480713,-0.13189697
1603558117067,1141,1.0100098,-0.21099854,-0.15582275
1603558117067,1142,1.2724609,-0.17462158,0.25286865
1603558117068,1143,1.7783203,0.23822021,0.32781982
1603558117068,1144,1.4494629,-0.28936768,-0.18609619
1603558117069,1145,1.7241211,-0.1560669,0.2675171
1603558117069,1146,1.9257812,0.11566162,0.26727295
1603558117069,1147,1.0148926,-0.6226196,-0.40679932
1603558117070,1148,-0.31079102,-0.77471924,-0.45343018
1603558117070,1149,-0.41064453,-0.5491333,0.49847412
1603558117070,1150,0.83325195,-0.59991455,1.7750854
1603558117071,1151,0.32666016,-0.031311035,0.98236084
1603558119681,1152,0.015136719,0.2218628,0.32244873
1603558119682,1153,-0.0087890625,-0.2786255,0.36029053
1603558119684,1154,0.5136719,-0.1831665,0.08099365
1603558119684,1155,1.0947266,0.12689209,0.37225342
1603558119685,1156,1.246582,-0.06768799,0.35565186
1603558119686,1157,1.2434082,-0.42926025,0.14569092
1603558119687,1158,0.92993164,-0.7385864,0.048034668
1603558119688,1159,0.515625,-1.1380005,0.42156982
1603558119689,1160,1.2062988,-0.92144775,0.16815186
1603558119689,1161,0.87646484,-0.61138916,-0.035217285
1603558119689,1162,0.94091797,-0.34283447,0.07196045
1603558119690,1163,0.9572754,-0.4439087,0.011169434
1603558119690,1164,0.78759766,-0.5130005,-0.051818848
1603558119690,1165,0.8022461,-0.4126587,-0.031066895
1603558119691,1166,0.8713379,-0.41851807,-0.09307861
1603558119691,1167,0.8498535,-0.43707275,-0.09576416
1603558119691,1168,0.8508301,-0.42388916,-0.13433838
1603558119692,1169,0.80078125,-0.47955322,-0.16436768
1603558119692,1170,0.83984375,-0.3965454,-0.2185669
1603558119693,1171,0.9108887,-0.3406372,-0.3213501
1603558119693,1172,1.2370605,-0.5442505,0.10272217
1603558119693,1173,1.0,-0.6536255,0.10760498
1603558119694,1174,0.89282227,-0.6445923,-0.26031494
1603558119694,1175,0.7849121,-0.5276489,-0.01739502
1603558119694,1176,0.5969238,-0.37774658,0.03289795
1603558119696,1177,0.51464844,-0.2942505,0.053649902
1603558119696,1178,0.9375,-0.11236572,0.35076904
1603558119696,1179,0.9814453,-0.4163208,0.3859253
1603558119696,1180,0.8400879,-0.7476196,0.040222168
1603558119697,1181,0.79296875,-0.5523071,-0.23272705
1603558119697,1182,0.9104004,-0.458313,-0.13873291
1603558119698,1183,0.9199219,-0.3965454,-0.07720947
