# Sensor position: Front pocket (trouser)
# Sensor side: Left
# Activity type: Movement
# Activity code: 9
# Subject id: s1710228
timestamp,seq,accel_x,accel_y,accel_z
1603558156054,0,-0.07080078,0.96380615,0.010681152
1603558156055,1,-0.0703125,0.96307373,0.007751465
1603558156056,2,-0.06298828,0.9616089,0.008972168
1603558156057,3,-0.07495117,0.961853,0.005554199
1603558156058,4,-0.06591797,0.961853,0.010437012
1603558156059,5,-0.07128906,0.96307373,0.01751709
1603558156059,6,-0.07128906,0.9640503,0.012390137
1603558156059,7,-0.07421875,0.96136475,0.010925293
1603558156060,8,-0.076416016,0.9628296,0.007019043
1603558156060,9,-0.07006836,0.96209717,0.015075684
1603558156060,10,-0.071777344,0.95965576,0.016540527
1603558156060,11,-0.0690918,0.96014404,0.015319824
1603558156061,12,-0.0625,0.96258545,0.018005371
1603558156061,13,-0.076416016,0.9598999,0.018493652
1603558156062,14,-0.06738281,0.95770264,0.015808105
1603558156062,15,-0.07299805,0.96258545,0.02166748
1603558156062,16,-0.07055664,0.96502686,0.030700684
1603558156063,17,-0.0871582,0.9696655,0.05340576
1603558156063,18,-0.12792969,0.94744873,0.11248779
1603558156064,19,-0.035888672,0.9310913,0.07757568
1603558156064,20,-0.07055664,0.9454956,0.011169434
1603558156064,21,-0.13891602,0.92523193,-0.019592285
1603558156065,22,0.07885742,1.0280151,0.0033569336
1603558156065,23,-0.10913086,0.98309326,0.030700684
1603558156066,24,-0.11669922,0.9677124,0.07342529
1603558156066,25,0.03540039,0.9467163,0.038269043
1603558156066,26,-0.08227539,0.96624756,-0.020324707
1603558156067,27,-0.29589844,1.215271,-0.0064086914
1603558156067,28,-0.4025879,0.7470093,0.6498413
1603558156068,29,-0.33081055,1.0111694,0.51483154
1603558156068,30,-0.17919922,0.61834717,0.3336792
1603558156069,31,-0.23632812,0.69940186,0.31878662
1603558158304,32,-0.39086914,0.7814331,0.2296753
1603558158304,33,-0.32470703,0.8488159,0.20721436
1603558158305,34,-0.15722656,0.9916382,0.13983154
1603558158305,35,-0.265625,0.9603882,0.12200928
1603558158307,36,-0.17749023,0.9032593,0.04095459
1603558158307,37,-0.06201172,0.90545654,0.15106201
1603558158307,38,-0.13964844,1.0824585,0.10076904
1603558158308,39,0.033203125,1.0343628,0.01361084
1603558158308,40,0.056152344,1.0006714,-0.07720947
1603558158309,41,0.2902832,0.7352905,0.3163452
1603558158309,42,-0.059326172,0.7379761,0.447937
1603558158310,43,-0.110839844,0.6203003,0.64715576
1603558158310,44,0.11425781,0.5844116,0.69085693
1603558158310,45,-0.05810547,0.5014038,0.6288452
1603558158311,46,0.16601562,0.27069092,0.86346436
1603558158311,47,0.095214844,0.11590576,1.5270386
1603558158312,48,0.0031738281,0.16668701,0.91693115
1603558158315,49,-0.072021484,-0.06060791,0.8134155
1603558158316,50,0.09814453,0.004333496,1.0424194
1603558158316,51,0.20043945,0.066589355,0.9528198
1603558158316,52,-0.061523438,-0.06768799,1.0309448
1603558158316,53,-0.11645508,-0.15826416,0.89593506
1603558158316,54,0.022460938,-0.3357544,0.79803467
1603558158317,55,0.06640625,-0.32574463,0.84246826
1603558158317,56,7.324219E-4,-0.34698486,0.8847046
1603558158317,57,0.03149414,-0.31085205,0.887146
1603558158317,58,-0.009033203,-0.2456665,0.90301514
1603558158317,59,-0.045654297,-0.18511963,0.9335327
1603558158318,60,0.06298828,-0.066467285,0.9335327
1603558158318,61,-0.17822266,-0.10406494,0.92718506
1603558158319,62,-0.044921875,-0.109680176,0.91571045
1603558158319,63,0.07788086,-0.015686035,1.1549683
1603558161118,64,-0.2939453,0.1161499,1.1586304
1603558161118,65,-0.07128906,0.35736084,1.1449585
1603558161118,66,-0.26049805,0.32684326,0.8451538
1603558161119,67,0.022949219,0.5101929,0.59295654
1603558161119,68,0.234375,0.5932007,0.7008667
1603558161119,69,-0.29833984,0.7897339,0.64349365
1603558161121,70,-0.3076172,0.7628784,0.2597046
1603558161121,71,-0.3635254,0.64227295,0.2958374
1603558161122,72,-0.10229492,0.5548706,0.2675171
1603558161122,73,-0.078125,0.8397827,0.35198975
1603558161123,74,-0.13012695,0.96917725,0.6713257
1603558161123,75,-0.28393555,0.9142456,0.53826904
1603558161123,76,-0.17138672,0.93548584,0.21380615
1603558161123,77,0.053710938,0.97869873,-0.109191895
1603558161124,78,2.4414062E-4,0.9562378,0.003112793
1603558161124,79,0.13916016,0.9328003,-0.018859863
1603558161124,80,0.0056152344,0.94281006,-0.020080566
1603558161125,81,0.013671875,0.9891968,-0.054992676
1603558161125,82,0.13232422,1.007019,-0.078186035
1603558161127,83,0.056152344,0.9684448,-0.007385254
1603558161127,84,-0.07885742,1.1564331,-0.08111572
1603558161127,85,-0.15820312,1.0494995,0.0368042
1603558161128,86,-0.06982422,0.8825073,0.05682373
1603558161128,87,-0.28979492,0.8566284,0.20111084
1603558161129,88,-0.04296875,0.84954834,0.18548584
1603558161129,89,0.079589844,0.8903198,0.37420654
1603558161129,90,0.033203125,0.90057373,0.43792725
1603558161130,91,-0.030517578,0.8668823,0.45648193
1603558161130,92,-0.024658203,0.81073,0.4249878
1603558161130,93,-0.072753906,0.7982788,0.4315796
1603558161131,94,-0.09326172,0.74993896,0.43450928
1603558161131,95,-0.08691406,0.72650146,0.36761475
1603558164115,96,-0.22436523,0.7826538,0.3053589
1603558164115,97,-0.72680664,1.1647339,0.39935303
1603558164116,98,0.2368164,0.8410034,0.014343262
1603558164116,99,0.046875,1.2040405,0.081970215
1603558164117,100,-0.0703125,0.9369507,0.14447021
1603558164117,101,0.055908203,0.8903198,0.1696167
1603558164117,102,0.09057617,0.98431396,0.09515381
1603558164118,103,0.056640625,0.96209717,0.07904053
1603558164119,104,-0.12133789,0.9645386,0.06756592
1603558164119,105,-0.09741211,1.0238647,0.093933105
1603558164120,106,-0.34716797,1.1066284,0.4923706
1603558164120,107,-0.037597656,0.56903076,0.56585693
1603558164120,108,0.16821289,0.7374878,0.37957764
1603558164120,109,-0.39257812,0.574646,0.19671631
1603558164121,110,-0.25463867,0.8810425,0.545105
1603558164121,111,-0.05834961,0.78240967,0.5536499
1603558164122,112,0.16210938,0.6600952,0.6847534
1603558164122,113,0.1730957,0.5170288,0.66619873
1603558164122,114,0.11791992,0.43695068,0.76898193
1603558164122,115,0.31323242,0.30828857,0.87323
1603558164123,116,0.16992188,0.19134521,0.91937256
1603558164124,117,0.25390625,0.08856201,1.1051636
1603558164124,118,0.24194336,0.038757324,1.0619507
1603558164124,119,0.12548828,0.12640381,0.89959717
1603558164125,120,0.057373047,0.11834717,0.93377686
1603558164125,121,0.17919922,0.07098389,0.94281006
1603558164125,122,0.16552734,-0.008850098,0.8786011
1603558164126,123,0.18139648,-0.10650635,0.9269409
1603558164126,124,0.08081055,-0.11602783,0.83880615
1603558164126,125,0.203125,-0.12017822,0.93621826
1603558164127,126,0.16625977,-0.078186035,0.90789795
1603558164127,127,0.15844727,-0.10015869,0.9159546
1603558166181,128,0.19946289,-0.062805176,0.93084717
1603558166182,129,0.19995117,-0.0017700195,0.946228
1603558166182,130,0.15063477,-0.12530518,0.85198975
1603558166183,131,0.15039062,-0.20806885,0.8600464
1603558166184,132,0.14526367,-0.13580322,0.8908081
1603558166185,133,0.109375,-0.04083252,0.9293823
1603558166186,134,0.0949707,-3.0517578E-4,0.9262085
1603558166188,135,0.13085938,0.051696777,0.92596436
1603558166188,136,0.17602539,0.026062012,1.0595093
1603558166189,137,0.19702148,0.06878662,1.105896
1603558166189,138,0.09399414,0.20477295,1.102478
1603558166190,139,0.02709961,0.38006592,0.96087646
1603558166191,140,-0.020507812,0.3776245,0.6852417
1603558166191,141,0.09399414,0.48406982,0.6744995
1603558166191,142,0.1809082,0.83343506,0.9672241
1603558166191,143,-0.020996094,0.6654663,0.2838745
1603558166191,144,-0.39038086,0.7050171,0.36395264
1603558166192,145,-0.18432617,0.59417725,0.28997803
1603558166192,146,-0.061035156,0.5883179,0.36395264
1603558166193,147,-0.064941406,0.982605,0.7213745
1603558166193,148,-0.064208984,1.0897827,0.6000366
1603558166193,149,-0.21606445,0.9711304,-0.090148926
1603558166194,150,0.28881836,0.88861084,-0.04473877
1603558166194,151,-0.060058594,0.9682007,0.0211792
1603558166194,152,0.08666992,0.8973999,-0.074279785
1603558166195,153,0.09838867,0.9203491,-0.047912598
1603558166195,154,0.11669922,0.97283936,0.03753662
1603558166195,155,0.3408203,0.9813843,0.07318115
1603558166196,156,-0.0690918,1.3363647,0.17156982
1603558166196,157,-0.029296875,0.9376831,-0.07110596
1603558166196,158,-0.099365234,0.8265991,0.16986084
1603558166197,159,0.033447266,0.8383179,0.14569092
1603558168619,160,0.012207031,0.84783936,0.26849365
1603558168620,161,0.103027344,0.83514404,0.20233154
1603558168623,162,0.012939453,0.85614014,0.18695068
1603558168623,163,-0.0690918,0.965271,-0.113586426
1603558168623,164,-0.12915039,1.1513062,-0.008117676
1603558168623,165,0.09350586,1.0194702,0.04559326
1603558168623,166,0.15527344,0.9706421,0.062927246
1603558168623,167,-0.03149414,0.9598999,0.047302246
1603558168623,168,0.28100586,0.92474365,-0.013000488
1603558168623,169,0.25463867,0.94158936,-0.055480957
1603558168624,170,0.58569336,0.9833374,-0.01763916
1603558168624,171,-0.22241211,1.0707397,0.26727295
1603558168628,172,-0.1796875,0.95770264,0.11663818
1603558168628,173,-0.14404297,0.899353,0.28240967
1603558168628,174,0.14111328,0.855896,0.24554443
1603558168629,175,-0.09106445,0.7128296,0.42401123
1603558168629,176,-0.18969727,0.7160034,0.3065796
1603558168629,177,0.05126953,1.0350952,0.5338745
1603558168629,178,-0.23876953,1.0651245,0.08026123
1603558168629,179,-0.008056641,0.94940186,0.0014038086
1603558168629,180,0.095947266,1.0050659,0.05657959
1603558168632,181,0.19848633,0.98553467,0.035339355
1603558168632,182,0.09350586,0.95355225,0.0836792
1603558168632,183,0.19433594,0.9310913,-0.023742676
1603558168633,184,0.047607422,1.0988159,-0.12628174
1603558168633,185,0.036865234,1.064148,0.22283936
1603558168633,186,-0.040039062,0.8143921,0.3925171
1603558168634,187,0.17358398,0.7982788,0.21502686
1603558168634,188,-0.15209961,0.8265991,0.28533936
1603558168635,189,0.14331055,0.7538452,0.25775146
1603558168635,190,0.11743164,0.7345581,0.5072632
1603558168636,191,-0.047607422,0.8200073,0.6664429
1603558171242,192,0.28295898,0.7887573,0.76239014
1603558171243,193,-0.12158203,0.3517456,0.58758545
1603558171244,194,0.045166016,0.5109253,0.7243042
1603558171245,195,0.15600586,0.5560913,0.79193115
1603558171246,196,0.46875,0.246521,0.88153076
1603558171248,197,0.3852539,0.070495605,1.199646
1603558171248,198,0.15258789,0.11077881,0.89471436
1603558171249,199,0.16967773,-0.0010375977,0.8019409
1603558171250,200,0.4633789,0.055114746,0.8973999
1603558171250,201,0.3779297,0.10467529,0.930603
1603558171250,202,0.25805664,-0.08746338,0.98187256
1603558171250,203,0.14526367,-0.15924072,0.73895264
1603558171251,204,0.31835938,-0.19049072,0.80755615
1603558171251,205,0.2758789,0.01776123,0.993103
1603558171251,206,0.22143555,-0.055725098,0.8776245
1603558171252,207,0.23364258,-0.070373535,0.8890991
1603558171252,208,0.28222656,0.006286621,1.0094604
1603558171252,209,0.28100586,0.027770996,0.86053467
1603558171253,210,0.23291016,-0.093811035,0.901062
1603558171253,211,0.2861328,-0.22589111,0.8097534
1603558171254,212,0.27392578,-0.26861572,0.8031616
1603558171255,213,0.29418945,-0.18927002,0.83758545
1603558171255,214,0.17236328,-0.11895752,0.90252686
1603558171255,215,0.24780273,-0.07891846,0.8800659
1603558171255,216,0.40625,0.047058105,1.0988159
1603558171255,217,0.35986328,-0.16583252,1.062439
1603558171256,218,0.14648438,0.2982788,1.0661011
1603558171257,219,0.13574219,0.35638428,0.8842163
1603558171258,220,0.23364258,0.42181396,0.6950073
1603558171258,221,0.12158203,0.60931396,0.541687
1603558171258,222,0.18896484,0.84588623,0.8312378
1603558171258,223,-0.15795898,0.42938232,0.3209839
1603558173867,224,-0.13256836,0.6395874,0.3222046
1603558173869,225,-0.12573242,0.6984253,0.37249756
1603558173870,226,-0.0715332,0.7885132,0.44256592
1603558173870,227,0.032714844,0.8685913,0.6766968
1603558173871,228,-0.041992188,1.0304565,0.38446045
1603558173872,229,-0.1550293,0.96380615,0.06390381
1603558173873,230,0.14746094,1.0194702,0.046325684
1603558173873,231,0.099365234,0.91571045,0.15350342
1603558173873,232,0.100097656,0.87615967,0.23577881
1603558173874,233,-0.01953125,0.96795654,0.21331787
1603558173875,234,-0.2265625,1.5140991,0.23846436
1603558173875,235,4.8828125E-4,0.87493896,0.12689209
1603558173875,236,0.23144531,0.57073975,0.19940186
1603558173876,237,-0.12915039,0.604187,0.44769287
1603558173877,238,-0.039794922,0.75701904,0.53948975
1603558173877,239,0.3330078,0.89715576,0.86761475
1603558173878,240,-0.48242188,0.78948975,0.10809326
1603558173878,241,0.38989258,1.1708374,-0.074523926
1603558173879,242,-0.038085938,0.88031006,0.18817139
1603558173879,243,0.2915039,0.9100952,0.18621826
1603558173880,244,0.21020508,0.80462646,0.26434326
1603558173880,245,0.40478516,0.81292725,0.31488037
1603558173880,246,0.0075683594,1.2301636,0.39349365
1603558173880,247,-0.12988281,1.102478,0.33685303
1603558173880,248,-0.012207031,0.90667725,0.385437
1603558173882,249,-0.17529297,0.76312256,0.434021
1603558173882,250,-0.27246094,0.5910034,0.43621826
1603558173882,251,-0.17675781,0.6300659,0.48162842
1603558173882,252,-0.24414062,0.72943115,0.49676514
1603558173882,253,-0.42944336,0.80096436,0.48529053
1603558173882,254,-0.33032227,0.86273193,0.5512085
1603558173883,255,-0.15014648,0.7880249,0.43084717
1603558176680,256,-0.09082031,0.7814331,0.5687866
1603558176681,257,-0.14624023,0.7423706,0.47088623
1603558176682,258,-0.011230469,0.7682495,0.44744873
1603558176683,259,-0.0024414062,0.93548584,0.5014038
1603558176683,260,-0.05419922,0.8859253,0.4545288
1603558176684,261,0.088378906,0.91937256,0.3475952
1603558176685,262,0.20019531,0.9227905,0.3414917
1603558176685,263,0.09692383,0.8510132,0.3480835
1603558176686,264,0.071777344,0.80999756,0.39178467
1603558176686,265,0.1303711,0.8497925,0.41375732
1603558176687,266,-0.03125,0.86590576,0.28704834
1603558176688,267,0.11254883,1.0975952,0.21160889
1603558176688,268,-0.18530273,0.8324585,0.2584839
1603558176689,269,0.016357422,0.8607788,0.4003296
1603558176689,270,0.04248047,0.914978,0.40203857
1603558176690,271,0.020996094,0.82611084,0.42694092
1603558176690,272,-0.07788086,0.83026123,0.4664917
1603558176691,273,-0.050048828,0.7819214,0.4557495
1603558176691,274,-0.088134766,0.855896,0.43182373
1603558176692,275,-0.20727539,0.92596436,0.5355835
1603558176693,276,-0.30810547,0.7494507,0.46844482
1603558176693,277,0.1159668,0.66326904,0.5709839
1603558176693,278,-0.13012695,0.74749756,0.54315186
1603558176693,279,-0.28198242,0.77801514,0.41693115
1603558176694,280,-0.3569336,0.8707886,0.4142456
1603558176694,281,-0.3388672,0.7958374,0.33050537
1603558176695,282,-0.2680664,0.7963257,0.3949585
1603558176696,283,-0.17529297,0.6630249,0.33709717
1603558176696,284,-0.099853516,1.0387573,0.65667725
1603558176696,285,-0.1274414,0.44378662,0.42694092
1603558176697,286,0.23046875,0.6893921,0.67889404
1603558176697,287,-0.0073242188,0.46844482,0.69573975
1603558179119,288,0.022705078,0.31951904,0.85198975
1603558179119,289,0.104003906,0.2567749,1.0363159
1603558179120,290,-0.13745117,0.17108154,0.9244995
1603558179121,291,-0.16088867,0.16229248,0.8619995
1603558179122,292,-0.23291016,0.21014404,0.9694214
1603558179122,293,-0.23242188,0.1486206,0.8505249
1603558179123,294,-0.1550293,0.1083374,0.84295654
1603558179124,295,-0.21411133,0.2675171,0.8427124
1603558179125,296,-0.43359375,0.78118896,0.69989014
1603558179125,297,-0.35766602,0.6959839,0.61102295
1603558179126,298,-0.2355957,0.8707886,0.5465698
1603558179126,299,-0.27539062,0.8685913,0.47576904
1603558179127,300,-0.3449707,1.2496948,0.31365967
1603558179128,301,-0.3149414,0.9291382,0.19281006
1603558179128,302,-0.12036133,0.85491943,0.38519287
1603558179129,303,-0.20410156,0.8998413,0.17816162
1603558179129,304,-0.34204102,0.8890991,0.16375732
1603558179129,305,-0.25561523,0.9293823,0.11248779
1603558179130,306,-0.17333984,0.9203491,0.15740967
1603558179130,307,-0.32714844,0.93133545,0.08880615
1603558179131,308,-0.2685547,0.9015503,0.1227417
1603558179131,309,-0.39941406,0.9418335,0.027038574
1603558179132,310,-0.35668945,1.1769409,0.109313965
1603558179132,311,-0.00390625,1.1486206,0.004333496
1603558179133,312,-0.28881836,0.94036865,-0.045715332
1603558179133,313,0.076171875,0.8505249,-0.032287598
1603558179134,314,-0.1772461,0.88079834,-0.0029907227
1603558179134,315,-0.20239258,0.7970581,0.034851074
1603558179135,316,-0.12060547,0.8134155,0.06781006
1603558179136,317,-0.036621094,1.4086304,0.5414429
1603558179136,318,-0.26611328,0.66571045,0.28997803
1603558179136,319,0.6804199,0.9237671,0.24188232
1603558181742,320,-0.16577148,0.8644409,0.46258545
1603558181743,321,0.20629883,0.8031616,0.42108154
1603558181744,322,0.1616211,0.758728,0.559021
1603558181745,323,0.1237793,0.6415405,0.66619873
1603558181746,324,0.21118164,0.6984253,0.68621826
1603558181746,325,-0.068115234,0.4977417,0.85736084
1603558181748,326,0.10180664,0.60736084,0.7352905
1603558181749,327,-0.20336914,0.7081909,0.56658936
1603558181750,328,-0.4338379,0.8641968,0.5360718
1603558181750,329,-0.15576172,1.1688843,0.3932495
1603558181752,330,-0.5661621,1.3598022,0.56463623
1603558181753,331,-0.5812988,1.0907593,0.47283936
1603558181754,332,-0.546875,0.5668335,0.23406982
1603558181754,333,-0.4362793,0.13201904,0.05316162
1603558181756,334,-0.3154297,-0.043029785,0.20770264
1603558181756,335,-0.29858398,0.86102295,1.2523804
1603558181756,336,-0.3942871,0.34490967,0.434021
1603558181756,337,-0.17553711,0.6508179,0.7406616
1603558181757,338,-0.009277344,0.5829468,0.84661865
1603558181757,339,-0.032958984,0.55926514,0.82928467
1603558181757,340,0.13623047,0.40008545,1.0057983
1603558181758,341,0.19140625,0.56781006,1.0072632
1603558181758,342,0.1262207,0.63812256,0.8786011
1603558181758,343,0.18261719,0.64959717,0.6835327
1603558181759,344,0.25732422,0.7665405,0.5795288
1603558181759,345,0.12695312,0.7008667,0.5856323
1603558181759,346,-0.19702148,0.54852295,0.3287964
1603558181759,347,-0.10571289,0.7223511,0.28656006
1603558181760,348,-0.10424805,0.70599365,0.29486084
1603558181760,349,0.005859375,0.74823,0.20379639
1603558181760,350,0.071777344,0.8710327,0.47772217
1603558181761,351,-0.012207031,0.91278076,0.4767456
1603558184367,352,-0.19213867,1.0802612,0.23504639
1603558184368,353,-0.09741211,0.96698,-0.16192627
1603558184369,354,0.09716797,0.98309326,-0.061340332
1603558184370,355,0.10131836,1.0031128,-0.035949707
1603558184370,356,0.1081543,0.9789429,-0.062561035
1603558184370,357,0.13671875,0.95843506,-0.08673096
1603558184371,358,0.12939453,0.93133545,-0.055236816
1603558184371,359,0.12841797,0.99261475,-0.24786377
1603558184372,360,-7.324219E-4,1.1842651,-0.18951416
1603558184372,361,-0.27197266,0.90960693,0.02142334
1603558184372,362,0.12109375,0.9110718,-0.034729004
1603558184373,363,0.41210938,0.84710693,0.19207764
1603558184374,364,-0.12890625,0.77923584,0.2230835
1603558184374,365,-0.14648438,0.97869873,0.13006592
1603558184374,366,0.1381836,0.8624878,0.101745605
1603558184375,367,0.017822266,0.93914795,0.07562256
1603558184375,368,-0.040771484,1.1991577,0.27044678
1603558184377,369,0.32958984,0.80584717,-0.11871338
1603558184377,370,-0.053466797,0.99554443,0.035095215
1603558184377,371,0.03540039,0.9130249,0.07220459
1603558184377,372,0.21826172,0.8290405,0.20477295
1603558184378,373,0.1887207,0.7411499,0.30438232
1603558184379,374,0.20483398,0.5800171,0.36566162
1603558184379,375,0.10839844,0.6918335,0.48309326
1603558184379,376,0.33691406,0.56781006,0.59661865
1603558184380,377,0.1628418,0.62493896,0.67352295
1603558184380,378,0.15649414,0.44329834,0.74871826
1603558184380,379,0.33422852,0.322937,0.8554077
1603558184381,380,0.15258789,0.28656006,1.0844116
1603558184381,381,0.08178711,0.36395264,1.0802612
1603558184381,382,-0.1640625,0.40081787,0.97821045
1603558184382,383,-0.23803711,0.27435303,0.7704468
1603558186802,384,-0.043945312,0.56658936,0.6959839
1603558186803,385,-0.23168945,1.4000854,0.58392334
1603558186803,386,-0.28735352,0.9215698,0.15545654
1603558186803,387,-0.2614746,0.8690796,0.14300537
1603558186803,388,0.021240234,0.87054443,0.17889404
1603558186804,389,-0.2163086,0.88568115,0.19476318
1603558186805,390,-0.2548828,0.5421753,0.028503418
1603558186805,391,-0.4716797,1.6425171,0.28582764
1603558186805,392,-0.03857422,0.4923706,-0.0569458
1603558186805,393,-0.60009766,1.0841675,-0.050598145
1603558186805,394,-0.21728516,0.9100952,-0.05670166
1603558186806,395,-0.46191406,0.94525146,0.0053100586
1603558186807,396,-0.17553711,0.8751831,-0.1026001
1603558186807,397,-0.52734375,0.9208374,-0.022521973
1603558186808,398,-0.40307617,1.048523,0.097595215
1603558186808,399,-0.9616699,1.1227417,0.05999756
1603558186808,400,-0.34594727,1.1500854,0.05340576
1603558186810,401,-0.03491211,1.147644,0.18182373
1603558186810,402,-0.5209961,1.032898,0.34954834
1603558186811,403,-0.48339844,0.8600464,0.3859253
1603558186811,404,-0.6887207,0.5651245,0.3973999
1603558186811,405,-0.45581055,0.10028076,0.2501831
1603558186812,406,-0.6081543,-0.059631348,0.3517456
1603558186812,407,-0.4729004,0.07366943,0.5380249
1603558186812,408,-0.65234375,0.19744873,0.6473999
1603558186812,409,-0.49487305,0.4315796,1.0648804
1603558186813,410,-0.068359375,0.44329834,1.1952515
1603558186813,411,-0.0715332,0.38690186,1.0709839
1603558186813,412,-0.0026855469,0.13909912,0.95892334
1603558186813,413,0.17651367,0.17425537,0.9515991
1603558186814,414,0.095703125,0.35101318,0.836853
1603558186814,415,0.047607422,0.3793335,0.75823975
1603558189615,416,0.26049805,0.61053467,0.67401123
1603558189616,417,0.2265625,0.666687,0.3287964
1603558189616,418,0.12231445,0.7987671,0.23651123
1603558189616,419,0.12133789,0.91986084,0.13763428
1603558189617,420,-0.056152344,0.9869995,0.06072998
1603558189617,421,-0.004638672,0.9747925,0.018005371
1603558189617,422,-0.049072266,0.96136475,0.0014038086
1603558189618,423,-0.011474609,0.9242554,0.058044434
1603558189618,424,0.12597656,0.97332764,0.28631592
1603558189619,425,-0.020507812,0.89105225,0.47210693
1603558189619,426,0.033203125,1.0018921,0.39520264
1603558189619,427,-0.29248047,0.82928467,0.3085327
1603558189619,428,0.052246094,0.7572632,0.3534546
1603558189620,429,0.043701172,0.7255249,0.40057373
1603558189620,430,-0.15649414,0.7628784,0.44647217
1603558189621,431,0.025878906,0.8475952,0.51361084
1603558189621,432,0.18408203,0.8842163,0.43695068
1603558189621,433,-0.22241211,0.96868896,0.6119995
1603558189622,434,-0.32763672,0.8500366,0.066101074
1603558189622,435,0.35180664,0.9989624,-0.01763916
1603558189622,436,-0.13110352,0.9528198,-0.006164551
1603558189623,437,0.15063477,1.008728,-0.047424316
1603558189623,438,0.068115234,0.92523193,-0.058654785
1603558189623,439,0.2680664,0.95355225,-0.0029907227
1603558189624,440,0.16333008,0.9098511,0.010192871
1603558189624,441,0.099853516,0.9467163,-0.04815674
1603558189624,442,0.040283203,0.8463745,-0.13189697
1603558189625,443,-0.44970703,1.4674683,0.22991943
1603558189625,444,-0.58935547,1.624939,-0.08526611
1603558189625,445,0.28344727,1.0907593,-0.043762207
1603558189626,446,-0.07397461,0.4821167,0.15618896
1603558189626,447,-0.18115234,0.5258179,0.2230835
1603558192429,448,0.42333984,0.6984253,-0.101623535
1603558192430,449,-0.18017578,0.76971436,0.35198975
1603558192430,450,0.16845703,1.0861206,0.18743896
1603558192431,451,0.32543945,1.2120972,0.0524292
1603558192431,452,0.3828125,1.2389526,-0.0071411133
1603558192432,453,-0.118652344,0.93499756,-0.06817627
1603558192433,454,0.14526367,0.9203491,-0.04864502
1603558192433,455,-0.079589844,0.9977417,-0.0491333
1603558192434,456,-0.0041503906,1.1495972,0.13104248
1603558192434,457,0.09301758,0.78826904,0.30755615
1603558192435,458,0.59155273,0.6168823,0.40350342
1603558192435,459,0.45410156,0.51849365,0.6012573
1603558192437,460,0.30419922,0.5026245,0.6737671
1603558192437,461,0.22363281,0.6478882,0.46624756
1603558192437,462,-0.10546875,0.91986084,0.41693115
1603558192438,463,-0.13085938,1.039978,0.38201904
1603558192438,464,0.21850586,1.0429077,0.1461792
1603558192438,465,0.13476562,0.9122925,0.059509277
1603558192439,466,0.19091797,0.94525146,0.11077881
1603558192439,467,0.27172852,0.9188843,0.14276123
1603558192439,468,0.09643555,0.94573975,0.105651855
1603558192440,469,0.119384766,0.9298706,0.010192871
1603558192440,470,-0.015380859,0.8925171,0.007507324
1603558192441,471,0.053955078,1.0258179,-0.13238525
1603558192441,472,-0.32714844,0.97869873,0.09124756
1603558192441,473,-0.63500977,1.1605835,0.112976074
1603558192442,474,-0.2626953,1.0722046,0.093444824
1603558192442,475,-0.1772461,0.9359741,0.03387451
1603558192443,476,0.04345703,0.93084717,0.3378296
1603558192443,477,0.14477539,0.7460327,0.42303467
1603558192443,478,0.19140625,0.6449585,0.49383545
1603558192443,479,0.36450195,0.67889404,0.51434326
1603558194681,480,-0.38964844,0.85369873,0.4208374
1603558194681,481,0.18457031,0.9711304,0.4677124
1603558194685,482,0.23120117,0.7367554,0.19647217
1603558194685,483,0.35913086,0.85150146,0.11273193
1603558194685,484,0.4345703,0.9118042,0.02947998
1603558194685,485,0.28027344,1.0922241,0.034851074
1603558194685,486,0.20776367,1.1044312,-0.07623291
1603558194685,487,0.12158203,0.95599365,-0.12701416
1603558194686,488,0.008056641,0.8756714,-0.14190674
1603558194687,489,-0.14770508,0.93011475,-0.035705566
1603558194687,490,-0.05493164,0.9489136,0.058776855
1603558194689,491,-0.18261719,0.80511475,-0.051574707
1603558194689,492,-0.014404297,1.0353394,-0.089904785
1603558194689,493,-0.29907227,1.2509155,0.10736084
1603558194689,494,-0.21606445,1.2814331,0.13763428
1603558194690,495,-0.10913086,1.048523,0.307312
1603558194690,496,-0.0017089844,0.75823975,0.2772827
1603558194691,497,0.43530273,0.63397217,0.36053467
1603558194691,498,0.2619629,0.5944214,0.29364014
1603558194692,499,-0.39331055,0.8156128,0.44647217
1603558194693,500,0.4650879,0.8966675,0.447937
1603558194693,501,0.31567383,0.7597046,0.20648193
1603558194694,502,0.3022461,0.9232788,0.061462402
1603558194694,503,0.35888672,1.1344604,-0.013000488
1603558194694,504,0.30664062,1.1364136,-0.012756348
1603558194695,505,0.083740234,1.0368042,-0.024963379
1603558194695,506,0.13647461,0.8500366,-0.049621582
1603558194695,507,0.021728516,0.84002686,0.007751465
1603558194696,508,0.09057617,0.9520874,-0.14239502
1603558194696,509,-0.25463867,0.9467163,-0.058898926
1603558194697,510,-0.5493164,0.9623413,-0.0154418945
1603558194697,511,-0.3395996,1.0939331,-0.007873535
1603558197305,512,-0.20996094,1.0119019,0.20941162
1603558197306,513,-0.16967773,1.012146,0.23602295
1603558197306,514,0.40112305,0.9574585,0.40496826
1603558197307,515,0.045898438,0.8756714,0.47772217
1603558197309,516,0.15429688,0.6588745,0.21966553
1603558197311,517,-0.09326172,0.64398193,0.14642334
1603558197312,518,0.16259766,1.3991089,0.65667725
1603558197312,519,0.30859375,0.5553589,-0.09625244
1603558197312,520,0.43896484,0.9269409,0.04559326
1603558197312,521,0.3149414,0.86151123,0.17962646
1603558197312,522,0.44799805,1.0055542,0.101745605
1603558197315,523,0.22045898,1.152771,-0.040100098
1603558197315,524,0.28588867,1.0558472,-0.14361572
1603558197315,525,0.13598633,0.8673706,-0.18096924
1603558197315,526,-0.20996094,0.8439331,-0.1362915
1603558197315,527,-0.41333008,1.0958862,-0.023254395
1603558197316,528,-0.09082031,0.9537964,-0.1375122
1603558197316,529,-0.18823242,0.9528198,0.18182373
1603558197316,530,-0.16601562,0.8497925,0.11834717
1603558197316,531,0.3930664,0.918396,0.2975464
1603558197317,532,0.12524414,0.99871826,0.42303467
1603558197317,533,-0.043945312,0.920105,0.38568115
1603558197318,534,0.05078125,0.6703491,0.3024292
1603558197318,535,0.1303711,0.74432373,0.32659912
1603558197318,536,-0.18408203,1.1889038,0.4869995
1603558197319,537,0.4428711,0.7025757,0.05682373
1603558197319,538,0.28808594,0.8810425,0.12005615
1603558197320,539,0.3552246,0.96551514,-0.0256958
1603558197320,540,0.13623047,1.1720581,0.059753418
1603558197320,541,0.2775879,1.0424194,-0.016906738
1603558197321,542,0.19384766,0.84661865,-0.13677979
1603558197321,543,-0.025146484,0.82928467,-0.15777588
1603558199742,544,0.0793457,1.0165405,0.02142334
1603558199743,545,-0.063964844,1.0580444,0.12200928
1603558199744,546,0.07421875,0.8295288,0.10345459
1603558199745,547,0.13134766,1.0985718,0.18792725
1603558199746,548,-0.10107422,1.0580444,0.054382324
1603558199747,549,0.14111328,1.1964722,0.2921753
1603558199748,550,-0.055664062,1.0289917,0.43865967
1603558199749,551,0.16601562,0.7609253,0.27801514
1603558199749,552,0.2854004,0.4664917,0.40594482
1603558199750,553,0.05810547,0.60076904,0.36688232
1603558199751,554,0.030517578,0.7296753,0.27679443
1603558199751,555,0.28149414,1.0316772,0.19866943
1603558199751,556,-0.068847656,1.0570679,0.1251831
1603558199751,557,0.23803711,1.0873413,0.016296387
1603558199752,558,0.09741211,1.0289917,0.022888184
1603558199752,559,0.27563477,1.0089722,-0.026672363
1603558199752,560,0.17895508,0.91082764,0.0119018555
1603558199753,561,0.10131836,0.91864014,0.023376465
1603558199753,562,0.046142578,1.045105,-0.06915283
1603558199754,563,-0.13549805,1.076355,-0.07965088
1603558199754,564,0.13867188,0.70233154,0.2506714
1603558199755,565,0.22265625,0.8986206,0.20306396
1603558199755,566,0.111083984,0.7477417,0.0446167
1603558199756,567,-0.17919922,1.053894,0.11273193
1603558199756,568,0.11987305,1.0192261,-0.053771973
1603558199756,569,0.13452148,0.9279175,0.058776855
1603558199758,570,-0.040283203,0.98773193,0.21844482
1603558199758,571,0.44506836,1.0560913,0.10809326
1603558199758,572,-0.12011719,0.920105,-0.07696533
1603558199758,573,0.28173828,1.0453491,0.035339355
1603558199759,574,0.0390625,0.7645874,0.08148193
1603558199759,575,0.3618164,0.8456421,0.20721436
1603558202367,576,0.1796875,0.68133545,0.25823975
1603558202368,577,0.40039062,0.6984253,0.39520264
1603558202369,578,0.32739258,0.6378784,0.55096436
1603558202369,579,0.37402344,0.68621826,0.8473511
1603558202370,580,0.28881836,0.7562866,0.7662964
1603558202371,581,0.12841797,0.6137085,0.6227417
1603558202372,582,-0.0048828125,0.79901123,0.55755615
1603558202372,583,-0.07470703,0.89056396,0.63812256
1603558202373,584,-0.13549805,0.5282593,0.38201904
1603558202373,585,-0.50146484,0.1317749,-0.6682739
1603558202374,586,-0.3408203,0.9633179,-0.36236572
1603558202374,587,-0.32861328,1.1239624,-0.4734497
1603558202375,588,-0.046142578,1.1542358,-0.3538208
1603558202375,589,-0.8215332,0.5993042,-0.26153564
1603558202376,590,-0.32104492,0.75457764,-0.800354
1603558202376,591,-0.9848633,0.5675659,-0.65167236
1603558202376,592,-1.0197754,0.5934448,-0.82476807
1603558202377,593,-0.98779297,0.732605,-1.1372681
1603558202378,594,-1.2468262,0.97650146,-1.3552856
1603558202378,595,-1.2272949,1.2362671,-0.5142212
1603558202379,596,-0.051757812,0.6659546,0.051940918
1603558202379,597,-0.012207031,0.06732178,-0.31134033
1603558202380,598,-0.20654297,0.49798584,-0.411438
1603558202380,599,-0.07080078,0.26605225,-0.2793579
1603558202380,600,-0.09838867,0.6112671,0.2399292
1603558202381,601,0.27807617,1.0424194,1.24823
1603558202381,602,0.26416016,0.44500732,0.84198
1603558202381,603,0.41845703,0.35198975,1.2238159
1603558202382,604,0.57177734,0.022644043,1.1193237
1603558202382,605,0.6052246,0.077819824,1.0219116
1603558202382,606,0.45751953,0.18743896,0.8661499
1603558202383,607,0.54833984,0.5634155,0.7682495
1603558205366,608,0.50219727,0.94281006,0.6947632
1603558205367,609,0.6699219,1.5856323,0.35150146
1603558205367,610,0.7541504,1.1329956,0.20355225
1603558205368,611,-1.5275879,-0.07305908,0.18426514
1603558205368,612,0.84155273,0.13470459,-0.4998169
1603558205368,613,-0.04638672,-0.17144775,-0.26519775
1603558205368,614,-0.5559082,0.1161499,0.307312
1603558205369,615,0.56811523,0.15887451,0.011169434
1603558205370,616,0.15844727,1.3348999,0.24505615
1603558205371,617,1.1948242,1.4613647,0.852478
1603558205372,618,0.52441406,0.7394409,0.54119873
1603558205372,619,0.35620117,0.5492554,0.69085693
1603558205372,620,0.5546875,0.15765381,0.6469116
1603558205373,621,0.8847656,-0.014221191,0.9945679
1603558205374,622,0.8552246,0.6161499,0.95233154
1603558205374,623,0.80981445,0.93670654,0.6725464
1603558205375,624,0.7207031,0.94403076,0.38690186
1603558205375,625,0.13793945,0.7797241,-0.016662598
1603558205375,626,0.2421875,0.28045654,-0.2041626
1603558205376,627,-0.873291,0.03314209,-0.7127075
1603558205376,628,-0.5209961,1.1010132,-0.4192505
1603558205377,629,0.5192871,1.3319702,-0.49298096
1603558205377,630,-0.70043945,0.71673584,-0.15802002
1603558205378,631,-0.60498047,0.50335693,-0.8057251
1603558205378,632,-0.75390625,0.5180054,-0.98687744
1603558205379,633,-0.86816406,0.57366943,-0.83013916
1603558205379,634,-0.56225586,0.4454956,-0.9102173
1603558205379,635,-0.55126953,0.46868896,-0.81817627
1603558205380,636,-0.5061035,0.16448975,-0.9585571
1603558205380,637,-0.2434082,0.09832764,-1.0950317
1603558205381,638,-0.2565918,0.059753418,-1.0735474
1603558205381,639,-0.55249023,0.17474365,-1.2102661
1603558207617,640,-0.6154785,0.38909912,-1.2053833
1603558207617,641,-1.1337891,1.053894,-1.196106
1603558207617,642,-0.6020508,1.1608276,-1.0569458
1603558207618,643,0.072753906,0.99749756,0.35150146
1603558207619,644,-0.03930664,0.25872803,-0.3760376
1603558207619,645,-0.20776367,0.5829468,-0.47540283
1603558207619,646,-0.41210938,0.31610107,-0.68048096
1603558207620,647,-9.765625E-4,0.20281982,-0.14068604
1603558207621,648,0.7260742,0.71014404,1.09906
1603558207621,649,0.4248047,0.34613037,0.8529663
1603558207622,650,0.49853516,0.340271,1.166687
1603558207622,651,0.7939453,0.0067749023,1.3331909
1603558207623,652,0.6088867,-0.105041504,1.0258179
1603558207624,653,0.49291992,0.109802246,0.94525146
1603558207624,654,0.76953125,0.25164795,0.6312866
1603558207625,655,0.29125977,0.36395264,0.43328857
1603558207626,656,1.4733887,1.6022339,0.59832764
1603558207626,657,0.86938477,1.4411011,-0.0025024414
1603558207627,658,-0.3256836,0.030456543,0.37860107
1603558207627,659,-0.32177734,0.034851074,-0.17608643
1603558207628,660,0.20092773,-0.1326294,-0.14849854
1603558207628,661,0.12890625,0.058288574,-0.030334473
1603558207630,662,0.17773438,0.18719482,0.3378296
1603558207630,663,0.08251953,0.5922241,0.09100342
1603558207630,664,0.90844727,1.999939,0.635437
1603558207631,665,0.5197754,0.63983154,0.57366943
1603558207632,666,0.8276367,0.42034912,0.7658081
1603558207632,667,0.5942383,0.18475342,0.5282593
1603558207633,668,0.70043945,-0.07867432,0.86517334
1603558207633,669,0.5637207,0.04095459,0.9220581
1603558207633,670,0.8754883,0.5524292,1.4472046
1603558207633,671,0.9748535,0.8156128,1.1671753
1603558210056,672,0.4453125,0.5494995,0.43988037
1603558210056,673,0.0034179688,-0.54815674,-0.73394775
1603558210057,674,-0.9465332,0.7296753,-0.5906372
1603558210058,675,0.14257812,1.1061401,-0.4151001
1603558210059,676,0.0715332,0.57196045,-0.38580322
1603558210060,677,-0.5617676,0.821228,-0.23394775
1603558210060,678,0.040283203,0.24725342,-1.2747192
1603558210061,679,-1.144043,0.4713745,-1.2053833
1603558210061,680,-0.36450195,0.27825928,-1.062561
1603558210061,681,-0.55688477,0.13006592,-0.83673096
1603558210061,682,-0.67041016,0.21551514,-1.1748657
1603558210061,683,-0.14038086,-0.00982666,-1.1716919
1603558210062,684,-0.19384766,-0.023254395,-1.0278931
1603558210062,685,-0.21655273,0.08050537,-1.015686
1603558210062,686,-0.31835938,0.07196045,-1.3965454
1603558210063,687,-0.86865234,0.31048584,-1.5376587
1603558210063,688,-0.9194336,0.96136475,-1.7879028
1603558210064,689,0.051757812,0.95428467,-0.27301025
1603558210064,690,0.42773438,0.7050171,0.19085693
1603558210064,691,-0.104003906,0.49432373,-0.41900635
1603558210065,692,-0.43896484,0.2946167,-0.74884033
1603558210065,693,-0.23364258,-0.17608643,-0.6170044
1603558210066,694,0.75390625,0.8522339,0.9059448
1603558210066,695,0.58618164,0.44207764,0.7601929
1603558210066,696,0.88793945,0.543396,1.0097046
1603558210067,697,0.91845703,0.260437,0.97943115
1603558210067,698,0.9733887,-0.13360596,1.0101929
1603558210068,699,0.6069336,0.10467529,0.8666382
1603558210068,700,0.5097656,0.40008545,0.5631714
1603558210069,701,1.03125,0.8253784,0.38153076
1603558210069,702,1.0539551,1.5858765,0.17791748
1603558210069,703,0.7416992,0.5206909,-0.07501221
1603558213055,704,0.03564453,0.47406006,0.7213745
1603558213056,705,-0.3310547,-0.17877197,-0.5186157
1603558213057,706,0.21533203,-0.06085205,-0.105041504
1603558213058,707,-0.11816406,0.12713623,-0.04473877
1603558213059,708,-0.11621094,0.13885498,0.36834717
1603558213059,709,1.2370605,1.999939,0.37420654
1603558213060,710,0.39990234,1.2875366,0.10272217
1603558213060,711,0.984375,1.4017944,0.23895264
1603558213061,712,0.56103516,0.7055054,0.262146
1603558213061,713,0.9145508,0.86883545,0.36175537
1603558213062,714,0.16455078,0.48773193,0.24969482
1603558213063,715,0.41235352,0.5812378,0.02947998
1603558213063,716,0.09863281,0.65789795,0.066589355
1603558213064,717,-0.07836914,0.9279175,-0.047668457
1603558213064,718,0.23291016,1.1813354,0.04437256
1603558213065,719,0.2019043,0.97210693,-0.014709473
1603558213065,720,0.32495117,0.88494873,-0.27227783
1603558213065,721,0.11791992,0.9232788,-0.21734619
1603558213066,722,0.119140625,0.8727417,-0.16558838
1603558213066,723,0.23754883,0.92962646,-0.21417236
1603558213067,724,0.1862793,0.8480835,-0.2576294
1603558213067,725,0.18823242,1.0036011,-0.31817627
1603558213068,726,0.42089844,1.1373901,-0.12213135
1603558213068,727,0.38964844,1.225769,0.113708496
1603558213069,728,0.015380859,1.3053589,-0.37750244
1603558213070,729,-0.008300781,1.0211792,-0.3587036
1603558213070,730,-0.09326172,0.5326538,-0.37042236
1603558213071,731,0.21191406,0.76727295,-0.016174316
1603558213071,732,-0.14819336,0.9122925,-0.13946533
1603558213071,733,0.43164062,1.111023,0.12054443
1603558213071,734,0.20361328,1.1976929,0.4557495
1603558213071,735,0.5517578,1.9210815,0.9371948
1603558215305,736,0.43920898,1.8707886,0.086364746
1603558215306,737,0.14868164,1.0136108,0.08782959
1603558215307,738,-0.2824707,0.090026855,-0.3657837
1603558215308,739,-0.37280273,-0.15216064,-0.32183838
1603558215309,740,-0.66625977,0.07293701,-0.16412354
1603558215310,741,-0.94970703,1.3375854,1.6154175
1603558215311,742,-0.29760742,-0.2600708,0.22235107
1603558215311,743,-0.8330078,0.23284912,0.0758667
1603558215312,744,-0.2319336,0.37738037,0.5126343
1603558215312,745,0.20507812,0.3944702,0.743103
1603558215314,746,-0.08251953,0.9640503,0.47625732
1603558215314,747,0.6242676,0.82318115,0.5470581
1603558215314,748,-0.30371094,1.3678589,0.19403076
1603558215314,749,-0.17626953,1.2345581,-0.3657837
1603558215314,750,0.29760742,1.1571655,-0.014221191
1603558215314,751,0.16723633,0.9845581,0.13250732
1603558215315,752,0.09033203,0.8666382,0.074645996
1603558215315,753,0.037841797,0.89715576,0.12908936
1603558215316,754,0.3010254,0.9266968,0.10662842
1603558215316,755,0.035888672,1.0385132,0.11053467
1603558215316,756,0.1381836,0.87713623,0.14202881
1603558215317,757,0.12866211,0.84490967,0.062194824
1603558215317,758,0.4152832,0.90496826,0.0033569336
1603558215318,759,0.2133789,0.96746826,-0.05621338
1603558215318,760,0.36523438,0.82366943,-0.11431885
1603558215318,761,0.3083496,0.8954468,-0.17340088
1603558215319,762,0.5864258,0.8851929,-0.5540161
1603558215319,763,0.6604004,1.7228394,0.67645264
1603558215319,764,0.8173828,1.6976929,-0.121154785
1603558215320,765,0.52783203,1.999939,0.2399292
1603558215320,766,0.34765625,1.8236694,-0.70147705
1603558215320,767,-0.18481445,-0.33428955,-1.222229
1603558217930,768,-0.10864258,-0.9771118,-0.4414673
1603558217931,769,-1.1501465,1.6652222,1.5001831
1603558217931,770,-0.9379883,-0.5142212,0.33514404
1603558217932,771,-0.09765625,-0.21099854,0.09686279
1603558217932,772,-0.61572266,0.17010498,0.30438232
1603558217933,773,0.25683594,0.46575928,0.7550659
1603558217934,774,0.4567871,0.8187866,0.8209839
1603558217935,775,0.59277344,1.0682983,-0.018127441
1603558217936,776,-1.5842285,1.999939,0.15863037
1603558217937,777,1.2868652,0.9430542,-0.2901001
1603558217937,778,0.07885742,0.97210693,-0.21881104
1603558217937,779,0.5773926,1.0692749,0.026550293
1603558217937,780,-0.080566406,0.97088623,-0.09918213
1603558217938,781,0.23950195,0.6696167,-0.22296143
1603558217939,782,0.56689453,0.7929077,0.028259277
1603558217939,783,0.26489258,0.9567261,-0.16412354
1603558217939,784,0.33666992,1.0109253,0.018981934
1603558217940,785,0.16674805,0.91937256,-0.028869629
1603558217941,786,0.4033203,0.88397217,0.04827881
1603558217941,787,0.48706055,0.8588257,-0.08111572
1603558217941,788,0.30029297,0.92596436,0.002380371
1603558217942,789,0.56274414,0.7633667,0.043884277
1603558217942,790,0.32080078,1.2196655,0.28729248
1603558217943,791,-0.02734375,1.361023,0.39593506
1603558217943,792,-0.36572266,1.0441284,0.18817139
1603558217944,793,0.13476562,1.2599487,0.371521
1603558217944,794,-0.020019531,1.151062,0.5414429
1603558217945,795,-0.2841797,0.82611084,0.33831787
1603558217945,796,-0.3166504,-5.493164E-4,0.09051514
1603558217945,797,-0.19970703,-0.16436768,0.21160889
1603558217946,798,-0.59887695,0.5109253,0.4694214
1603558217947,799,-1.2216797,1.157898,1.4345093
1603558220556,800,0.23339844,0.078063965,0.6444702
1603558220556,801,-0.55249023,0.15447998,-0.006164551
1603558220557,802,-0.38330078,0.46209717,0.3139038
1603558220558,803,-0.23217773,0.7489624,0.30096436
1603558220559,804,-0.203125,0.93573,0.3444214
1603558220561,805,-1.0070801,1.4379272,0.70111084
1603558220562,806,0.27539062,1.2157593,0.385437
1603558220563,807,0.09448242,0.7601929,0.16473389
1603558220563,808,0.009521484,0.87713623,0.2789917
1603558220564,809,0.2368164,1.1344604,0.20770264
1603558220567,810,0.19848633,1.133728,0.19818115
1603558220567,811,0.09008789,1.0819702,0.109313965
1603558220567,812,0.083496094,0.93621826,0.093444824
1603558220567,813,0.025146484,0.78045654,0.18328857
1603558220567,814,-0.0036621094,0.86053467,0.21014404
1603558220567,815,-0.14379883,1.0795288,0.30438232
1603558220568,816,-0.22290039,1.1679077,0.37347412
1603558220568,817,0.05053711,0.4533081,0.0040893555
1603558220568,818,-0.35888672,0.6244507,0.008728027
1603558220568,819,-0.42333984,1.1000366,0.37445068
1603558220568,820,-0.954834,1.1376343,0.7206421
1603558220569,821,-0.122558594,0.75653076,0.28411865
1603558220569,822,0.064697266,0.93182373,0.18695068
1603558220569,823,-0.65844727,0.76727295,0.3444214
1603558220570,824,0.18310547,0.8070679,-0.053527832
1603558220570,825,0.045654297,0.9249878,0.13494873
1603558220570,826,0.10449219,0.9711304,0.2387085
1603558220571,827,0.15478516,1.0309448,0.2345581
1603558220571,828,0.022705078,0.99920654,0.2765503
1603558220572,829,0.1496582,0.98651123,0.27435303
1603558220572,830,-0.033447266,0.96673584,0.27557373
1603558220572,831,0.022460938,0.99212646,0.24383545
1603558223182,832,0.01586914,0.96551514,0.2218628
1603558223183,833,0.036132812,0.96380615,0.18890381
1603558223185,834,0.0063476562,0.99798584,0.14666748
1603558223186,835,0.10571289,0.8480835,0.1708374
1603558223186,836,0.2043457,0.8163452,0.2538452
1603558223188,837,0.076416016,0.7304077,0.33563232
1603558223188,838,-0.022949219,0.64886475,0.41326904
1603558223189,839,-0.013427734,0.6898804,0.68573
1603558223191,840,0.09863281,0.8082886,0.70721436
1603558223191,841,-0.4182129,1.4181519,0.7826538
1603558223192,842,-0.5563965,1.0875854,0.6400757
1603558223192,843,0.22607422,0.84002686,0.23675537
1603558223194,844,0.23706055,0.8451538,0.38885498
1603558223194,845,0.087890625,0.70062256,0.28900146
1603558223194,846,0.13500977,0.6088257,0.19451904
1603558223194,847,0.09399414,0.8497925,0.31878662
1603558223194,848,-0.15649414,0.670105,0.38519287
1603558223196,849,-0.048095703,0.6112671,0.32757568
1603558223196,850,0.072509766,0.99334717,0.5307007
1603558223196,851,-0.21899414,1.046814,0.54681396
1603558223196,852,0.008544922,1.0734253,0.22454834
1603558223196,853,0.076171875,1.0858765,-0.3015747
1603558223197,854,0.30810547,0.9257202,-0.22613525
1603558223198,855,-0.107421875,0.9437866,-0.10430908
1603558223198,856,0.14086914,0.9274292,-0.14678955
1603558223198,857,-0.041259766,0.98480225,-0.021057129
1603558223199,858,0.0063476562,0.96551514,-0.124572754
1603558223199,859,0.053710938,0.93304443,-0.12359619
1603558223199,860,0.15405273,0.93499756,-0.2786255
1603558223200,861,0.1105957,1.0910034,-0.36846924
1603558223200,862,-0.31518555,0.90545654,-0.17901611
1603558223200,863,-0.45825195,1.2611694,0.5055542
1603558225805,864,-0.26464844,0.94573975,0.16473389
1603558225806,865,-0.23632812,0.64276123,-0.25567627
1603558225807,866,0.17504883,0.7379761,0.10882568
1603558225808,867,0.0,0.98309326,0.121520996
1603558225809,868,-0.11791992,0.8641968,0.06439209
1603558225810,869,0.42041016,1.6452026,0.38128662
1603558225810,870,0.13476562,0.6317749,9.1552734E-4
1603558225810,871,0.4091797,1.0473022,0.18597412
1603558225811,872,0.14086914,0.9069214,0.15789795
1603558225811,873,0.05444336,0.744812,0.24847412
1603558225812,874,0.30273438,0.83392334,0.051940918
1603558225813,875,-0.10107422,1.0951538,-0.0029907227
1603558225814,876,-0.014892578,1.0192261,0.58026123
1603558225814,877,-0.2055664,1.1486206,0.71795654
1603558225814,878,-0.12695312,0.5463257,0.15789795
1603558225815,879,0.024414062,0.63934326,0.09246826
1603558225815,880,0.203125,0.62664795,0.010437012
1603558225816,881,0.7414551,1.8319702,0.34466553
1603558225816,882,-0.94140625,0.3937378,-0.18048096
1603558225817,883,1.0957031,1.1586304,-0.4216919
1603558225817,884,0.05444336,0.8029175,-0.04547119
1603558225817,885,0.4658203,0.71795654,-0.045959473
1603558225818,886,0.07543945,0.9098511,-0.22833252
1603558225818,887,0.18041992,1.4193726,-0.29840088
1603558225818,888,-0.11254883,1.1251831,0.29486084
1603558225818,889,0.29370117,0.90179443,0.30999756
1603558225819,890,0.15966797,0.82806396,0.19989014
1603558225819,891,-0.09350586,0.6737671,0.07977295
1603558225819,892,0.20898438,0.3883667,-0.04473877
1603558225820,893,0.64404297,0.7716675,0.0072631836
1603558225820,894,0.28637695,1.932312,0.13275146
1603558225820,895,-0.08105469,0.66693115,-0.53302
1603558228427,896,0.6586914,0.8480835,-0.15460205
1603558228428,897,0.5061035,0.77215576,-0.12432861
1603558228429,898,0.5522461,0.6364136,-0.09283447
1603558228429,899,0.4350586,0.73895264,-0.27545166
1603558228430,900,0.5463867,1.2423706,-0.14898682
1603558228430,901,-0.072021484,1.2238159,0.3312378
1603558228430,902,0.37353516,0.8876343,-0.09698486
1603558228431,903,0.30932617,0.7247925,-0.039855957
1603558228431,904,0.06640625,0.69281006,0.005065918
1603558228432,905,-0.0871582,0.6066284,-0.06085205
1603558228432,906,1.5393066,1.4220581,-0.17486572
1603558228432,907,-0.7878418,0.62615967,-0.33428955
1603558228434,908,1.1625977,0.9262085,-0.4656372
1603558228434,909,0.22607422,0.7706909,-0.13726807
1603558228435,910,0.6699219,0.6469116,-0.16558838
1603558228435,911,0.48242188,0.5453491,-0.124816895
1603558228435,912,0.78393555,1.1332397,-0.16827393
1603558228436,913,0.15454102,1.1818237,0.34661865
1603558228437,914,0.37402344,1.0272827,-0.024963379
1603558228437,915,0.09643555,0.6129761,-0.058654785
1603558228437,916,0.12548828,0.4298706,-0.23248291
1603558228438,917,1.1403809,0.60028076,-0.4085083
1603558228438,918,0.40039062,1.5426636,-0.05670166
1603558228438,919,0.3322754,0.94207764,-0.6067505
1603558228439,920,0.43017578,0.63201904,-0.24053955
1603558228439,921,0.8154297,0.4882202,-0.21051025
1603558228439,922,0.51049805,0.48406982,-0.023254395
1603558228440,923,0.7792969,0.80584717,-0.2468872
1603558228440,924,0.8173828,1.1122437,0.08929443
1603558228440,925,0.30273438,1.0602417,0.022888184
1603558228441,926,0.27685547,0.90008545,0.1786499
1603558228441,927,0.15600586,0.45355225,-0.10455322
1603558230869,928,0.49658203,0.3131714,-0.12506104
1603558230869,929,1.1052246,0.5770874,-0.30352783
1603558230869,930,0.4765625,1.5214233,0.07659912
1603558230870,931,0.015625,0.7106323,-0.6565552
1603558230871,932,0.8334961,0.3859253,-0.23956299
1603558230872,933,0.779541,0.5128784,-0.23175049
1603558230872,934,0.6635742,0.5031128,-0.22125244
1603558230872,935,0.7084961,0.50408936,-0.19488525
1603558230873,936,0.92749023,1.0387573,-0.10455322
1603558230873,937,0.5361328,1.0267944,-0.051086426
1603558230874,938,0.58813477,0.8768921,-0.08013916
1603558230874,939,0.5563965,0.80023193,0.09906006
1603558230875,940,0.28588867,0.6137085,0.1852417
1603558230876,941,0.3869629,0.44989014,0.18792725
1603558230876,942,0.34448242,0.5219116,0.38690186
1603558230876,943,0.23291016,0.6195679,0.5187378
1603558230877,944,1.046875,1.0787964,0.69573975
1603558230878,945,0.048339844,0.5475464,0.2753296
1603558230879,946,0.6538086,0.586853,0.16766357
1603558230879,947,0.7351074,0.72332764,0.07928467
1603558230880,948,0.7438965,0.6112671,0.06536865
1603558230880,949,0.8222656,0.5092163,0.02532959
1603558230880,950,0.751709,0.54437256,0.0065307617
1603558230881,951,0.6352539,0.64837646,-0.0029907227
1603558230881,952,0.7770996,0.48065186,-0.10748291
1603558230882,953,0.79418945,0.48675537,-0.03277588
1603558230883,954,0.98876953,1.0097046,0.28070068
1603558230883,955,0.63134766,0.9828491,-0.03253174
1603558230883,956,0.7832031,0.60028076,-0.10455322
1603558230884,957,0.46704102,0.6000366,0.07611084
1603558230884,958,0.42138672,0.47894287,0.05999756
1603558230884,959,0.53637695,0.3480835,0.14422607
1603558233491,960,0.71533203,0.57147217,0.30950928
1603558233491,961,0.13574219,0.96087646,0.20281982
1603558233491,962,0.16064453,1.2907104,-0.17901611
1603558233492,963,0.76782227,0.7404175,-0.19659424
1603558233492,964,0.5131836,0.7560425,-0.0947876
1603558233493,965,0.7182617,0.64105225,-0.082336426
1603558233493,966,0.47998047,0.7477417,-0.17779541
1603558233493,967,0.6479492,0.72869873,-0.1987915
1603558233493,968,0.47192383,0.8139038,-0.13311768
1603558233494,969,0.36938477,0.90179443,-0.055725098
1603558233494,970,0.38354492,0.85931396,-0.03375244
1603558233494,971,0.3388672,0.9093628,-0.09527588
1603558233495,972,0.28930664,0.8751831,-0.15509033
1603558233495,973,0.3474121,0.86761475,-0.1975708
1603558233495,974,0.3334961,0.94207764,-0.073791504
1603558233496,975,0.34472656,1.1576538,0.3414917
1603558233496,976,0.38671875,0.9491577,-0.3086548
1603558233496,977,0.118896484,1.0956421,0.04071045
1603558233497,978,0.44848633,0.92181396,0.007751465
1603558233498,979,0.23632812,0.84246826,0.027038574
1603558233499,980,0.23510742,0.6334839,0.10394287
1603558233499,981,0.4099121,0.43719482,0.2255249
1603558233499,982,0.5991211,0.93573,0.43914795
1603558233499,983,-0.79296875,1.4782104,-0.09088135
1603558233499,984,1.142334,0.7387085,-0.40924072
1603558233499,985,0.19848633,0.9064331,-0.03375244
1603558233499,986,0.41308594,0.871521,0.06439209
1603558233500,987,0.24829102,0.90130615,0.13616943
1603558233500,988,0.4116211,0.83929443,0.055114746
1603558233500,989,0.4873047,0.8468628,0.09906006
1603558233501,990,0.55688477,0.74920654,0.18914795
1603558233501,991,0.27001953,0.7001343,0.463562
1603558236116,992,0.21533203,0.48773193,0.62323
1603558236118,993,0.51416016,0.51483154,0.524353
1603558236118,994,0.33496094,0.49334717,0.6515503
1603558236119,995,0.5690918,0.043884277,0.78167725
1603558236119,996,0.84521484,0.08929443,1.0568237
1603558236121,997,0.36499023,0.32562256,0.80804443
1603558236121,998,0.3544922,0.1486206,0.7223511
1603558236121,999,0.41186523,-0.058410645,1.0018921
1603558236121,1000,0.41967773,-0.15264893,0.9213257
1603558236122,1001,0.2775879,-0.19293213,0.76434326
1603558236122,1002,0.23266602,-0.35455322,0.70355225
1603558236123,1003,0.29174805,-0.394104,0.6598511
1603558236124,1004,0.3400879,-0.35479736,0.6559448
1603558236124,1005,0.16503906,-0.28277588,0.6810913
1603558236125,1006,0.58325195,0.25286865,1.343689
1603558236125,1007,0.30639648,-0.14483643,0.71551514
1603558236125,1008,0.55566406,-0.113098145,0.71380615
1603558236126,1009,0.32788086,0.061950684,0.96502686
1603558236126,1010,0.34570312,-0.105285645,0.8305054
1603558236127,1011,0.38330078,-0.13458252,0.85687256
1603558236127,1012,0.40722656,-0.09039307,0.84002686
1603558236127,1013,0.39672852,-0.070129395,0.8751831
1603558236128,1014,0.44921875,-0.012023926,0.86590576
1603558236129,1015,0.36083984,-0.093322754,0.8571167
1603558236129,1016,0.38134766,-0.17730713,0.8427124
1603558236129,1017,0.33740234,-0.25250244,0.77386475
1603558236130,1018,0.32641602,-0.31939697,0.7160034
1603558236130,1019,0.3408203,-0.27911377,0.71136475
1603558236131,1020,0.39135742,-0.19488525,0.76312256
1603558236131,1021,0.28759766,-0.10992432,0.93743896
1603558236132,1022,1.0544434,-0.024230957,1.079773
1603558236132,1023,0.34155273,0.14202881,0.87005615
1603558238926,1024,0.31347656,0.41131592,0.8510132
1603558238927,1025,0.54003906,0.3444214,0.447937
1603558238928,1026,0.43359375,0.6481323,0.6737671
1603558238928,1027,0.032226562,0.85565186,0.53411865
1603558238929,1028,0.0925293,0.6720581,0.23944092
1603558238929,1029,0.18188477,0.5914917,0.089538574
1603558238930,1030,0.21972656,0.6593628,0.13983154
1603558238930,1031,0.63256836,0.6107788,0.32659912
1603558238930,1032,0.9980469,1.0536499,0.38983154
1603558238931,1033,-0.4243164,1.1503296,-0.04498291
1603558238932,1034,0.6843262,0.90618896,-0.47857666
1603558238932,1035,0.44702148,0.8727417,-0.23199463
1603558238932,1036,0.49804688,0.8126831,-0.29229736
1603558238933,1037,0.5493164,0.75457764,-0.16949463
1603558238934,1038,0.4428711,0.76434326,-0.1272583
1603558238934,1039,0.41235352,0.82244873,-0.15411377
1603558238934,1040,0.26049805,1.4262085,-0.12188721
1603558238935,1041,0.4182129,0.79681396,-0.32354736
1603558238935,1042,0.8588867,0.5582886,4.272461E-4
1603558238935,1043,0.05126953,0.62176514,0.19256592
1603558238937,1044,0.24853516,0.6605835,0.3126831
1603558238937,1045,0.670166,0.67059326,0.47332764
1603558238937,1046,0.6105957,1.0690308,0.54852295
1603558238937,1047,0.059326172,0.78948975,0.10687256
1603558238938,1048,0.27929688,0.9064331,0.08026123
1603558238938,1049,0.5251465,0.732605,0.27166748
1603558238939,1050,0.5888672,0.7477417,0.2098999
1603558238939,1051,0.6166992,0.67181396,0.25628662
1603558238939,1052,0.43115234,0.8151245,0.42669678
1603558238940,1053,0.19433594,0.7526245,0.52996826
1603558238940,1054,0.19042969,0.7704468,0.51239014
1603558238940,1055,0.22485352,0.8148804,0.45892334
1603558241368,1056,0.12548828,0.81585693,0.5241089
1603558241370,1057,0.16894531,0.83880615,0.6227417
1603558241370,1058,0.15185547,0.6586304,0.43841553
1603558241371,1059,0.19433594,0.8270874,0.38446045
1603558241371,1060,0.16723633,0.80389404,0.44451904
1603558241372,1061,0.31176758,0.71380615,0.3895874
1603558241372,1062,0.3930664,0.7843628,0.30389404
1603558241372,1063,0.46704102,0.77337646,0.3554077
1603558241373,1064,0.50512695,0.74261475,0.28997803
1603558241373,1065,0.4753418,0.7692261,0.27874756
1603558241374,1066,0.47558594,0.7711792,0.28900146
1603558241375,1067,0.56469727,0.7196655,0.2597046
1603558241375,1068,0.3244629,0.8200073,0.20843506
1603558241375,1069,0.2368164,0.94818115,0.23529053
1603558241376,1070,0.42626953,0.86834717,0.18572998
1603558241378,1071,0.50805664,0.7704468,1.8310547E-4
1603558241378,1072,0.091552734,0.9154663,0.35638428
1603558241378,1073,0.3623047,1.1644897,0.7526245
1603558241378,1074,0.1508789,0.90740967,0.0848999
1603558241378,1075,0.5239258,1.0402222,0.39837646
1603558241379,1076,0.17553711,0.9603882,0.40325928
1603558241379,1077,0.14526367,0.6141968,0.101745605
1603558241380,1078,0.38989258,0.19940186,0.097839355
1603558241380,1079,0.4399414,0.44696045,0.55633545
1603558241380,1080,0.4477539,1.2609253,0.61395264
1603558241381,1081,0.30493164,0.826355,0.4154663
1603558241381,1082,0.3425293,0.7453003,0.30267334
1603558241381,1083,0.4423828,0.8234253,0.40496826
1603558241382,1084,0.43847656,0.79071045,0.34857178
1603558241383,1085,0.35888672,0.7741089,0.38250732
1603558241383,1086,0.44506836,0.7213745,0.34588623
1603558241383,1087,0.40429688,0.74432373,0.35858154
1603558243803,1088,0.43676758,0.8148804,0.3295288
1603558243804,1089,0.52685547,0.8344116,0.24505615
1603558243805,1090,0.32055664,0.85272217,0.2477417
1603558243805,1091,0.37695312,0.84173584,0.23309326
1603558243806,1092,0.43115234,0.9122925,0.29534912
1603558243806,1093,0.3166504,0.9069214,0.24627686
1603558243806,1094,0.3671875,0.5890503,0.39544678
1603558243807,1095,0.6574707,0.46209717,0.37591553
1603558243808,1096,0.100097656,0.5014038,0.3085327
1603558243808,1097,0.29589844,0.9369507,0.50457764
1603558243809,1098,0.25073242,1.0275269,0.60028076
1603558243810,1099,0.25048828,0.8119507,0.40057373
1603558243810,1100,0.28173828,0.49749756,0.35906982
1603558243810,1101,0.5822754,1.1598511,0.69403076
1603558243810,1102,0.12158203,0.71698,0.3102417
1603558243811,1103,0.44384766,0.76898193,0.338562
1603558243811,1104,0.47338867,0.72943115,0.39422607
1603558243812,1105,0.3400879,0.8361206,0.3307495
1603558243812,1106,0.0034179688,0.9442749,0.53240967
1603558243812,1107,0.18530273,0.5380249,0.37786865
1603558243813,1108,0.40307617,0.8727417,0.5831909
1603558243813,1109,0.28173828,0.6173706,0.307312
1603558243814,1110,0.49169922,0.826355,-0.027160645
1603558243814,1111,0.47973633,0.8703003,0.07366943
1603558243815,1112,0.5722656,0.699646,0.13128662
1603558243815,1113,0.4663086,0.71258545,0.11199951
1603558243816,1114,0.47021484,0.7687378,0.11248779
1603558243816,1115,0.93481445,0.58587646,0.008972168
1603558243816,1116,0.6159668,1.3739624,0.26116943
1603558243817,1117,0.099121094,1.1068726,0.03265381
1603558243817,1118,0.29077148,0.94818115,0.1749878
1603558243818,1119,0.21704102,0.94451904,0.20233154
1603558246427,1120,0.122802734,0.56463623,0.13861084
1603558246428,1121,0.06542969,0.5927124,0.1251831
1603558246429,1122,0.029785156,0.69940186,0.60198975
1603558246429,1123,-0.030761719,1.1017456,0.24749756
1603558246430,1124,0.41845703,1.0905151,0.17449951
1603558246430,1125,0.19604492,0.83465576,0.14959717
1603558246433,1126,0.43359375,0.8341675,0.22064209
1603558246433,1127,0.28344727,0.9008179,0.24871826
1603558246433,1128,0.24707031,0.8878784,0.27435303
1603558246433,1129,0.19873047,0.8595581,0.28240967
1603558246434,1130,0.24169922,0.86712646,0.30438232
1603558246434,1131,0.23510742,0.8551636,0.2921753
1603558246434,1132,0.25805664,0.8595581,0.28167725
1603558246435,1133,0.2932129,0.8798218,0.26727295
1603558246435,1134,0.28076172,0.9467163,0.13323975
1603558246436,1135,0.22998047,1.0924683,0.07196045
1603558246436,1136,0.099609375,1.0143433,-0.09527588
1603558246437,1137,0.29492188,0.5097046,0.02142334
1603558246437,1138,-0.34594727,1.3759155,0.513855
1603558246438,1139,-0.18579102,0.98553467,0.2736206
1603558246438,1140,0.23168945,0.71014404,0.015319824
1603558246438,1141,-0.064208984,0.83636475,0.14910889
1603558246438,1142,-0.08154297,0.93865967,0.2453003
1603558246439,1143,-0.016845703,0.8143921,0.23699951
1603558246439,1144,0.038085938,0.79241943,0.41766357
1603558246440,1145,0.080566406,1.2404175,0.6276245
1603558246440,1146,0.2548828,0.8463745,0.022155762
1603558246440,1147,0.40527344,0.9537964,0.07366943
1603558246440,1148,0.5566406,0.7929077,0.04437256
1603558246441,1149,0.3786621,0.81048584,0.13079834
1603558246441,1150,0.42016602,0.83343506,0.08709717
1603558246442,1151,0.34301758,0.8720093,0.016784668
1603558249054,1152,0.4050293,0.88568115,0.0065307617
1603558249055,1153,0.3774414,0.8590698,0.11175537
1603558249056,1154,0.36401367,0.8344116,0.1552124
1603558249056,1155,0.49609375,0.7628784,0.15911865
1603558249057,1156,0.3857422,0.8065796,0.199646
1603558249058,1157,0.64501953,1.1268921,0.6273804
1603558249059,1158,0.5251465,1.1456909,0.54364014
1603558249060,1159,0.1159668,0.5548706,0.09661865
1603558249060,1160,0.07519531,0.4899292,0.17791748
1603558249062,1161,-0.0056152344,0.50775146,0.21600342
1603558249062,1162,0.11328125,0.83148193,0.57928467
1603558249062,1163,-0.037109375,1.1098022,0.39764404
1603558249062,1164,0.24023438,1.3239136,0.2855835
1603558249063,1165,0.32543945,0.67474365,-0.07501221
1603558249063,1166,0.65625,0.8793335,0.14935303
1603558249064,1167,0.3947754,0.8720093,0.08148193
1603558249064,1168,0.40673828,0.8673706,0.06121826
1603558249064,1169,0.5534668,0.79241943,0.02142334
1603558249065,1170,0.5986328,0.8488159,0.09710693
1603558249065,1171,0.45922852,1.0038452,0.27459717
1603558249065,1172,0.30322266,0.83636475,0.33709717
1603558249066,1173,0.18334961,0.7929077,0.215271
1603558249066,1174,-0.052734375,0.8222046,0.30560303
1603558249067,1175,0.10498047,0.6696167,0.25213623
1603558249067,1176,0.23046875,0.7592163,0.43011475
1603558249067,1177,0.25683594,0.87542725,0.55877686
1603558249068,1178,-0.0036621094,0.98651123,0.39105225
1603558249068,1179,0.3635254,0.9945679,0.30975342
1603558249068,1180,0.053222656,0.8397827,0.25213623
1603558249069,1181,0.47607422,0.7941284,0.20477295
1603558249069,1182,0.31323242,0.8278198,0.2243042
1603558249070,1183,0.40551758,0.8278198,0.1359253
