# Sensor position: Chest
# Sensor side: Right
# Activity type: Movement
# Activity code: 9
# Subject id: s1721039
timestamp,seq,accel_x,accel_y,accel_z
1601049013914,0,0.07714844,-0.97442627,-0.012756348
1601049013915,1,0.08300781,-1.0349731,0.046081543
1601049013917,2,0.03857422,-1.2000122,0.066345215
1601049013918,3,0.13232422,-1.2776489,-0.22711182
1601049013919,4,0.24780273,-1.0093384,-0.3040161
1601049013922,5,0.055664062,-1.1060181,-0.31256104
1601049013922,6,0.053222656,-0.8977661,-0.17388916
1601049013924,7,0.16503906,-0.81036377,-0.19049072
1601049013925,8,0.18188477,-0.9817505,-0.20440674
1601049013926,9,0.1394043,-1.1575317,-0.05596924
1601049013927,10,0.18041992,-1.0635376,-0.08843994
1601049013928,11,-0.09765625,-0.8233032,-0.37091064
1601049013929,12,-0.017089844,-1.37677,-0.12017822
1601049013929,13,0.13134766,-1.4907837,-0.2703247
1601049013930,14,0.053710938,-1.1106567,-0.15289307
1601049013931,15,0.021728516,-0.42144775,-0.0064086914
1601049013932,16,-0.039794922,-0.36846924,-0.024963379
1601049013932,17,0.02319336,-0.9873657,-0.45611572
1601049013933,18,0.40771484,-1.9998169,-0.53326416
1601049013934,19,0.17553711,-1.6016235,-0.39483643
1601049013935,20,-0.053222656,-0.7041626,-0.1272583
1601049013935,21,-0.40234375,-0.013000488,-0.105041504
1601049013936,22,0.28320312,-0.5808716,-0.2234497
1601049013937,23,0.2133789,-1.9998169,-0.44952393
1601049013937,24,0.107666016,-1.7283325,-0.24957275
1601049013938,25,0.05493164,-0.6140747,-0.24859619
1601049013939,26,0.0041503906,-0.04058838,0.042419434
1601049013940,27,-0.037597656,-0.27789307,0.121520996
1601049013940,28,-0.07763672,-1.9998169,-0.8623657
1601049013941,29,0.3762207,-1.9998169,-0.34820557
1601049013942,30,-0.17382812,-1.0464478,-0.3086548
1601049013942,31,0.0,0.15228271,0.15692139
1601049016468,32,-0.1965332,-0.22564697,-0.3496704
1601049016469,33,-0.055664062,-1.4209595,-0.48565674
1601049016470,34,0.1184082,-1.9998169,-0.39898682
1601049016471,35,0.15991211,-1.444397,-0.30889893
1601049016472,36,0.06933594,-0.16827393,-0.020080566
1601049016473,37,-0.09716797,0.030700684,-0.04156494
1601049016474,38,-0.061279297,-0.86846924,-0.3399048
1601049016475,39,0.080322266,-1.9998169,-0.61968994
1601049016476,40,0.06591797,-1.7009888,-0.4265747
1601049016477,41,-0.1616211,-0.45806885,-0.17584229
1601049016478,42,-0.13891602,0.043395996,0.04119873
1601049016479,43,-0.11987305,-0.45269775,-0.21051025
1601049016480,44,0.20654297,-1.9998169,-0.47369385
1601049016481,45,0.15356445,-1.9998169,-0.25933838
1601049016482,46,0.25195312,-0.81573486,-0.14703369
1601049016483,47,-0.14794922,0.16766357,-0.029846191
1601049016485,48,0.044921875,-0.14263916,-0.051330566
1601049016485,49,0.09301758,-1.4060669,-0.5557251
1601049016486,50,0.43481445,-1.9998169,-0.72906494
1601049016487,51,0.26782227,-1.6101685,-0.4710083
1601049016487,52,-0.1665039,-0.1272583,-0.1362915
1601049016488,53,-0.23608398,-0.14239502,0.12762451
1601049016489,54,0.032958984,-0.47613525,-0.26153564
1601049016490,55,-0.35302734,-1.9998169,-0.5508423
1601049016497,56,0.088378906,-1.9998169,-0.4019165
1601049016497,57,0.13330078,-0.8731079,-0.18414307
1601049016497,58,0.027832031,0.17303467,-0.021057129
1601049016497,59,-0.13183594,-0.11480713,-0.039855957
1601049016498,60,0.11035156,-1.4553833,-0.63360596
1601049016498,61,0.5493164,-1.9998169,-0.60406494
1601049016498,62,0.03857422,-1.3093872,-0.5708618
1601049016498,63,-0.09765625,-0.17071533,-0.07867432
1601049019006,64,-0.032470703,-0.06573486,-0.10284424
1601049019007,65,0.013183594,-0.9356079,-0.19586182
1601049019008,66,-0.10083008,-1.9998169,-0.28009033
1601049019010,67,-0.09277344,-1.7251587,-0.13043213
1601049019011,68,0.05102539,-0.3928833,-0.14019775
1601049019012,69,-0.06225586,0.17449951,0.015563965
1601049019016,70,0.13574219,-0.29718018,-0.09820557
1601049019018,71,0.35375977,-1.9998169,-0.6152954
1601049019019,72,0.39013672,-1.9998169,-0.33428955
1601049019021,73,0.041503906,-1.1377563,-0.51763916
1601049019023,74,-0.014160156,-0.07598877,-0.066467285
1601049019025,75,0.022949219,-0.006652832,-0.035217285
1601049019026,76,-0.12548828,-1.0947876,-0.015930176
1601049019027,77,0.087646484,-1.9998169,-0.46221924
1601049019029,78,0.23535156,-1.6792603,-0.19195557
1601049019030,79,0.022460938,-0.5005493,-0.18292236
1601049019032,80,-0.03564453,-0.15264893,0.0211792
1601049019033,81,-0.11669922,-0.33868408,-0.22247314
1601049019035,82,0.29882812,-1.9998169,-0.66656494
1601049019036,83,0.36816406,-1.9998169,-0.5293579
1601049019038,84,-0.038085938,-0.97857666,-0.50201416
1601049019040,85,0.026367188,-0.00982666,-0.003479004
1601049019041,86,0.041748047,-0.15411377,-0.09283447
1601049019042,87,-0.2109375,-1.3936157,-0.14459229
1601049019044,88,-0.20532227,-1.9998169,-0.3008423
1601049019045,89,-0.0390625,-1.5593872,-0.26715088
1601049019047,90,-0.048095703,-0.33355713,-0.12384033
1601049019048,91,0.026855469,0.10394287,0.024353027
1601049019053,92,0.09472656,-0.59332275,-0.2942505
1601049019053,93,0.3581543,-1.9998169,-0.27178955
1601049019053,94,0.3125,-1.9998169,-0.38775635
1601049019054,95,0.17382812,-1.1660767,-0.34796143
1601049021534,96,0.04736328,-0.15899658,0.014099121
1601049021534,97,-0.076416016,-0.062072754,0.078308105
1601049021535,98,0.040283203,-0.94488525,-0.39630127
1601049021536,99,-0.16210938,-1.9998169,-0.39312744
1601049021536,100,0.10913086,-1.7034302,-0.20123291
1601049021537,101,0.05517578,-0.6807251,-0.1572876
1601049021537,102,0.015380859,-0.23468018,-0.19610596
1601049021538,103,0.09106445,-0.32965088,-0.15509033
1601049021538,104,-0.0925293,-1.5369263,-0.5588989
1601049021540,105,0.2722168,-1.9998169,-0.3916626
1601049021540,106,0.21582031,-1.2559204,-0.27252197
1601049021540,107,-0.029052734,-0.32305908,-0.10235596
1601049021541,108,-0.01977539,-0.17730713,-0.20050049
1601049021542,109,0.037597656,-0.9085083,-0.20074463
1601049021542,110,-0.010986328,-1.9512329,-0.14385986
1601049021544,111,0.045166016,-1.718811,-0.18927002
1601049021546,112,0.06542969,-0.80474854,-0.17926025
1601049021546,113,0.04272461,-0.10748291,-0.1897583
1601049021547,114,0.14550781,-0.33502197,-0.4295044
1601049021549,115,-0.07763672,-1.8230591,-0.47247314
1601049021549,116,0.41357422,-1.9824829,-0.2913208
1601049021550,117,0.23730469,-0.98638916,-0.2930298
1601049021550,118,0.10058594,-0.27105713,-0.18023682
1601049021550,119,0.010498047,-0.3267212,-0.2805786
1601049021551,120,0.08227539,-1.079895,-0.25494385
1601049021552,121,-0.060058594,-1.9998169,-0.30230713
1601049021552,122,0.19799805,-1.5027466,-0.097961426
1601049021553,123,0.14746094,-0.6560669,-0.21905518
1601049021554,124,0.064453125,-0.30303955,-0.20880127
1601049021555,125,0.16333008,-0.36627197,-0.4360962
1601049021556,126,-0.013427734,-1.769104,-0.7283325
1601049021556,127,0.34594727,-1.7302856,-0.30670166
1601049024069,128,0.28027344,-1.0579224,-0.34820557
1601049024070,129,0.080322266,-0.3977661,-0.13214111
1601049024070,130,0.1875,-0.39141846,-0.31280518
1601049024071,131,-0.015136719,-0.98150635,-0.34747314
1601049024072,132,0.04711914,-1.4502563,-0.030578613
1601049024072,133,0.114746094,-1.6570435,-0.21905518
1601049024074,134,0.084228516,-1.1397095,-0.13677979
1601049024077,135,0.106933594,-0.4973755,-0.1506958
1601049024077,136,0.17163086,-0.37506104,-0.35211182
1601049024078,137,-0.055664062,-1.1582642,-0.4961548
1601049024079,138,0.16699219,-1.7124634,-0.4102173
1601049024079,139,0.45385742,-1.3765259,-0.11480713
1601049024080,140,0.080078125,-0.7510376,-0.26617432
1601049024081,141,-0.024902344,-0.4981079,-0.12237549
1601049024081,142,0.011230469,-0.70635986,-0.36260986
1601049024082,143,-0.07470703,-1.3816528,-0.18414307
1601049024082,144,0.068115234,-1.5513306,-0.19952393
1601049024083,145,-0.04272461,-1.2642212,-0.17926025
1601049024083,146,0.02709961,-0.82354736,-0.10406494
1601049024083,147,0.040771484,-0.6045532,-0.033996582
1601049024084,148,-0.07128906,-0.75006104,-0.23590088
1601049024084,149,0.12011719,-1.1467896,-0.48883057
1601049024085,150,0.27246094,-1.6199341,-0.2444458
1601049024085,151,0.123535156,-1.3167114,-0.2966919
1601049024085,152,-0.013427734,-0.70635986,-0.284729
1601049024086,153,-0.10498047,-0.56695557,-0.31695557
1601049024086,154,-0.033935547,-0.6560669,-0.33258057
1601049024087,155,0.03515625,-1.2573853,-0.4956665
1601049024087,156,0.0637207,-1.572815,-0.3147583
1601049024087,157,-0.057373047,-1.2485962,-0.120666504
1601049024088,158,-0.14282227,-0.7449341,-0.11798096
1601049024088,159,-0.08886719,-0.6748657,-0.06524658
1601049026582,160,-0.18847656,-0.73760986,-0.26983643
1601049026584,161,0.038085938,-1.1946411,-0.55352783
1601049026585,162,0.50439453,-1.6160278,-0.15582275
1601049026586,163,0.104003906,-1.3826294,-0.37677002
1601049026587,164,0.1237793,-0.7888794,-0.22052002
1601049026588,165,-0.076660156,-0.6248169,-0.15509033
1601049026590,166,-0.022705078,-0.7139282,-0.17486572
1601049026591,167,-0.03173828,-0.91119385,-0.3501587
1601049026591,168,0.2421875,-1.6384888,-0.190979
1601049026592,169,-0.056640625,-1.5159302,-0.22027588
1601049026596,170,0.083496094,-0.9717407,-0.047180176
1601049026596,171,0.04296875,-0.4644165,-0.15899658
1601049026596,172,0.09838867,-0.48712158,-0.30181885
1601049026596,173,0.21826172,-1.255188,-0.5552368
1601049026597,174,0.58691406,-1.7954712,-0.2781372
1601049026598,175,0.33740234,-1.2315063,-0.38726807
1601049026599,176,0.10864258,-0.53009033,-0.21026611
1601049026599,177,-7.324219E-4,-0.41827393,-0.12554932
1601049026600,178,0.02709961,-0.79107666,-0.35040283
1601049026601,179,0.025634766,-1.6502075,-0.34820557
1601049026602,180,0.22973633,-1.5628052,-0.21148682
1601049026605,181,0.1640625,-1.0200806,-0.26519775
1601049026605,182,0.091796875,-0.46099854,-0.33355713
1601049026605,183,0.020996094,-0.29815674,-0.3435669
1601049026605,184,0.05883789,-0.8423462,-0.6680298
1601049026606,185,-0.055664062,-1.9094849,-0.6983032
1601049026608,186,0.39526367,-1.4490356,-0.2798462
1601049026608,187,0.091308594,-0.8286743,-0.348938
1601049026609,188,0.1484375,-0.38409424,-0.101379395
1601049026609,189,0.16918945,-0.4319458,-0.29986572
1601049026610,190,-0.03515625,-1.3301392,-0.54571533
1601049026611,191,-0.0925293,-1.5623169,-0.22320557
1601049029138,192,0.16503906,-1.4741821,-0.24468994
1601049029138,193,-0.018310547,-0.9807739,-0.2835083
1601049029140,194,0.02709961,-0.67266846,-0.20318604
1601049029140,195,-0.031982422,-0.5874634,-0.13970947
1601049029141,196,-0.23779297,-0.9312134,-0.4837036
1601049029142,197,0.17553711,-1.4802856,-0.27593994
1601049029143,198,0.22973633,-1.5239868,-0.33599854
1601049029143,199,0.08251953,-1.0203247,-0.2263794
1601049029143,200,-0.17089844,-0.60723877,-0.19903564
1601049029144,201,-0.1159668,-0.40142822,-0.1506958
1601049029145,202,-0.23730469,-0.9558716,-0.55963135
1601049029145,203,0.053466797,-1.7383423,-0.29327393
1601049029146,204,-0.20800781,-1.5762329,-0.24639893
1601049029146,205,-0.13452148,-0.98028564,-0.20098877
1601049029147,206,0.040283203,-0.39605713,-0.0635376
1601049029147,207,-0.12695312,-0.35430908,-0.18292236
1601049029148,208,0.06591797,-1.0552368,-0.43878174
1601049029148,209,0.5917969,-1.6375122,-0.25054932
1601049029149,210,0.2763672,-1.7617798,-0.32281494
1601049029150,211,0.07519531,-0.9421997,-0.29595947
1601049029151,212,-0.23730469,-0.3406372,-0.2798462
1601049029152,213,-0.103271484,-0.42486572,-0.10211182
1601049029154,214,0.020996094,-1.1841431,-0.43707275
1601049029154,215,-0.11450195,-1.9248657,-0.3814087
1601049029156,216,0.115478516,-1.3394165,-0.3040161
1601049029157,217,-0.029052734,-0.880188,-0.19293213
1601049029159,218,0.005859375,-0.41583252,0.019958496
1601049029160,219,0.011230469,-0.5071411,-0.02545166
1601049029160,220,-0.115234375,-0.98565674,-0.20343018
1601049029160,221,0.46875,-1.6807251,-0.3213501
1601049029160,222,0.625,-1.8128052,-0.19903564
1601049029161,223,0.3251953,-1.1499634,-0.11895752
1601049031676,224,-0.061279297,-0.41436768,-0.13482666
1601049031677,225,-0.28686523,-0.3574829,-0.07086182
1601049031677,226,0.18701172,-0.866272,-0.055725098
1601049031678,227,0.27026367,-1.6338501,-0.21026611
1601049031679,228,0.20019531,-1.7705688,-0.0803833
1601049031680,229,0.10083008,-1.1060181,-0.113586426
1601049031681,230,0.06567383,-0.47174072,0.00579834
1601049031681,231,0.118652344,-0.29449463,-0.10089111
1601049031682,232,0.0017089844,-1.0818481,-0.32843018
1601049031684,233,0.4033203,-1.6694946,-0.29693604
1601049031685,234,0.36914062,-1.6228638,-0.21343994
1601049031686,235,0.23486328,-0.9246216,-0.1819458
1601049031687,236,-0.009521484,-0.44903564,-0.14361572
1601049031688,237,0.072509766,-0.48931885,-0.06427002
1601049031689,238,0.20361328,-1.0012817,-0.32525635
1601049031690,239,0.095703125,-1.7581177,-0.13800049
1601049031691,240,0.34887695,-1.5991821,-0.16827393
1601049031692,241,0.19580078,-1.0159302,-0.15289307
1601049031693,242,0.09301758,-0.35333252,-0.1663208
1601049031693,243,0.18286133,-0.21588135,-0.09576416
1601049031693,244,-0.2861328,-0.9470825,-0.44805908
1601049031694,245,0.5031738,-1.9998169,-0.54644775
1601049031694,246,0.23046875,-1.4351196,-0.50494385
1601049031695,247,0.10498047,-0.9534302,-0.2666626
1601049031695,248,-0.050048828,-0.24127197,-0.255188
1601049031696,249,0.095703125,-0.4595337,-0.24884033
1601049031697,250,0.075927734,-1.4810181,-0.3640747
1601049031698,251,0.14282227,-1.9006958,-0.116760254
1601049031700,252,0.13232422,-0.9314575,-0.14801025
1601049031700,253,0.17285156,-0.3184204,-0.26080322
1601049031701,254,0.036621094,-0.42974854,-0.22613525
1601049031702,255,-0.059814453,-1.6167603,-0.62628174
1601049034019,256,0.50561523,-1.6045532,-0.44024658
1601049034020,257,0.10668945,-0.89019775,-0.33721924
1601049034021,258,0.033447266,-0.38067627,-0.14019775
1601049034021,259,0.055908203,-0.5510864,-0.082336426
1601049034022,260,-0.13745117,-1.3233032,-0.6917114
1601049034023,261,-0.060791016,-1.6384888,-0.35064697
1601049034023,262,-0.059570312,-1.4573364,-0.41607666
1601049034024,263,-0.057617188,-1.0171509,-0.1404419
1601049034025,264,-0.036865234,-0.48394775,-0.1296997
1601049034026,265,0.03125,-0.44293213,-0.08770752
1601049034027,266,0.020019531,-0.74053955,-0.317688
1601049034027,267,-0.009033203,-1.6323853,-0.43634033
1601049034028,268,0.30517578,-1.7937622,-0.3826294
1601049034030,269,-0.045166016,-1.1524048,-0.34527588
1601049034030,270,-0.10888672,-0.38531494,-0.1885376
1601049034031,271,-0.17944336,-0.23297119,-0.20318604
1601049034032,272,0.036621094,-1.0818481,-0.28692627
1601049034034,273,0.1772461,-1.9255981,-0.25811768
1601049034034,274,0.0,-1.5960083,-0.10797119
1601049034035,275,-0.106933594,-0.77178955,-0.10333252
1601049034036,276,-0.17089844,-0.43658447,-0.0635376
1601049034037,277,-0.107421875,-0.5359497,-0.12994385
1601049034038,278,0.05883789,-1.4690552,-0.394104
1601049034039,279,0.45629883,-1.640686,-0.21099854
1601049034040,280,0.125,-1.2339478,-0.25567627
1601049034041,281,0.026611328,-0.55303955,-0.14874268
1601049034042,282,-0.0146484375,-0.36114502,-0.11065674
1601049034042,283,0.084472656,-0.8777466,-0.3394165
1601049034044,284,0.22607422,-1.8005981,-0.20880127
1601049034045,285,0.32006836,-1.6958618,-0.18902588
1601049034046,286,0.14916992,-0.8726196,-0.23638916
1601049034046,287,-0.087646484,-0.4451294,-0.070617676
1601049036558,288,-0.013427734,-0.65509033,-0.10284424
1601049036558,289,0.12841797,-1.0796509,-0.41412354
1601049036559,290,0.041503906,-1.3430786,-0.16583252
1601049036560,291,0.048095703,-1.6309204,-0.27349854
1601049036561,292,0.041259766,-1.1958618,-0.19537354
1601049036562,293,-0.009033203,-0.5130005,-0.15899658
1601049036563,294,0.1262207,-0.27301025,-0.17755127
1601049036563,295,0.09887695,-1.2627563,-0.6436157
1601049036565,296,-0.02368164,-1.6878052,-0.52716064
1601049036566,297,0.19580078,-1.0481567,-0.22930908
1601049036566,298,0.017578125,-0.58306885,-0.25787354
1601049036567,299,0.111572266,-0.52008057,-0.24932861
1601049036568,300,0.18920898,-1.263977,-0.2925415
1601049036570,301,0.052001953,-1.7168579,-0.15045166
1601049036570,302,0.09057617,-1.076477,-0.08843994
1601049036572,303,0.1796875,-0.63482666,-0.12408447
1601049036573,304,0.1459961,-0.9126587,-0.14581299
1601049036574,305,0.04296875,-0.7341919,-0.22247314
1601049036575,306,-0.114990234,-0.9920044,-0.007385254
1601049036577,307,-0.049072266,-1.5671997,-0.10845947
1601049036578,308,-0.051513672,-1.6265259,-0.12921143
1601049036579,309,-0.052246094,-1.1174927,-0.065979004
1601049036580,310,-0.018798828,-0.6069946,-0.018371582
1601049036580,311,0.059326172,-0.49102783,-0.005432129
1601049036581,312,-0.1875,-0.8591919,-0.31256104
1601049036582,313,9.765625E-4,-1.28302,-0.27252197
1601049036583,314,0.16601562,-1.7144165,-0.15704346
1601049036584,315,0.10058594,-1.3699341,-0.27398682
1601049036585,316,-0.050048828,-0.75567627,-0.18463135
1601049036585,317,-0.1394043,-0.52423096,-0.20220947
1601049036585,318,-0.16748047,-0.77960205,-0.4043579
1601049036585,319,0.04248047,-1.3440552,-0.24859619
1601049039088,320,0.16210938,-1.484436,-0.20391846
1601049039089,321,-0.0034179688,-1.0969849,-0.070129395
1601049039092,322,-0.07348633,-0.6777954,-0.05621338
1601049039095,323,-0.14648438,-0.7144165,-0.07965088
1601049039096,324,-0.07495117,-0.95635986,-0.26519775
1601049039097,325,0.3076172,-1.2905884,-0.23223877
1601049039099,326,0.41064453,-1.671936,-0.3748169
1601049039100,327,0.22363281,-1.0696411,-0.1765747
1601049039102,328,-0.09887695,-0.4805298,-0.25030518
1601049039103,329,0.048339844,-0.40899658,-0.15631104
1601049039104,330,0.23144531,-1.0630493,-0.5117798
1601049039105,331,0.44262695,-1.5559692,-0.36993408
1601049039106,332,0.30786133,-1.3809204,-0.3320923
1601049039106,333,0.22802734,-0.77911377,-0.26593018
1601049039107,334,0.10058594,-0.57891846,-0.20855713
1601049039108,335,0.017578125,-0.5601196,-0.20269775
1601049039109,336,-0.011962891,-1.2085571,-0.4758911
1601049039109,337,-0.0087890625,-1.4160767,-0.19805908
1601049039110,338,0.13769531,-1.3670044,-0.24957275
1601049039111,339,0.07519531,-1.0784302,-0.175354
1601049039111,340,-0.03125,-0.63604736,-0.082092285
1601049039112,341,-0.2084961,-0.40875244,-0.159729
1601049039113,342,0.019042969,-1.3359985,-0.458313
1601049039114,343,0.17089844,-1.80719,-0.1260376
1601049039115,344,0.02319336,-1.3018188,-0.20977783
1601049039115,345,0.00390625,-0.42071533,-0.16339111
1601049039116,346,-0.12988281,-0.4163208,-0.23712158
1601049039116,347,-0.015625,-0.97735596,-0.62994385
1601049039117,348,0.16918945,-1.5994263,-0.46148682
1601049039117,349,0.21459961,-1.5288696,-0.4602661
1601049039118,350,0.17138672,-0.89556885,-0.45465088
1601049039118,351,0.17333984,-0.409729,-0.2546997
1601049041627,352,-0.028808594,-0.12359619,-0.42999268
1601049041628,353,-0.3022461,-1.206604,-0.27252197
1601049041629,354,0.37060547,-1.6316528,-0.49713135
1601049041629,355,0.27905273,-1.6990356,-0.55596924
1601049041631,356,0.1394043,-0.98101807,-0.36871338
1601049041632,357,0.05029297,-0.35992432,-0.16827393
1601049041633,358,-0.09008789,-0.43414307,-0.16339111
1601049041635,359,-0.13256836,-0.82281494,-0.62091064
1601049041636,360,-0.30029297,-1.7131958,-0.5059204
1601049041637,361,-0.20361328,-1.5054321,-0.5147095
1601049041639,362,-0.14819336,-1.2376099,-0.35699463
1601049041640,363,-0.06323242,-0.5042114,-0.20172119
1601049041642,364,0.01586914,-0.411438,-0.14312744
1601049041643,365,0.0048828125,-0.6765747,-0.23736572
1601049041644,366,-0.038330078,-1.7383423,-0.45098877
1601049041645,367,0.29833984,-1.534729,-0.18096924
1601049041646,368,-0.110839844,-0.89263916,-0.27056885
1601049041646,369,-0.0073242188,-0.18707275,-0.08331299
1601049041647,370,0.18603516,-0.53863525,-0.4734497
1601049041647,371,0.48217773,-1.6668091,-0.5601196
1601049041648,372,0.46020508,-1.5610962,-0.3411255
1601049041649,373,0.107421875,-1.052063,-0.3508911
1601049041649,374,0.040527344,-0.40411377,-0.13482666
1601049041650,375,0.19628906,-0.6255493,-0.003967285
1601049041651,376,0.3149414,-1.5408325,-0.12579346
1601049041651,377,0.38330078,-1.3892212,-0.010314941
1601049041652,378,0.1081543,-0.7305298,-0.07745361
1601049041653,379,0.01171875,-0.4907837,-0.16705322
1601049041653,380,-0.047607422,-1.3269653,-0.24615479
1601049041654,381,0.021240234,-1.3255005,-0.22296143
1601049041655,382,-0.17358398,-1.4263306,-0.3123169
1601049041655,383,0.08691406,-1.0339966,-0.20367432
