# Sensor position: Wrist
# Sensor side: Left
# Activity type: Movement
# Activity code: 9
# Subject id: s1735229
timestamp,seq,accel_x,accel_y,accel_z
1601134267945,0,-1.1313477,0.21844482,-0.17315674
1601134267945,1,-1.1447754,0.2333374,-0.20025635
1601134267945,2,-1.0571289,0.199646,-0.15753174
1601134267945,3,-1.0170898,0.20941162,-0.1482544
1601134267946,4,-1.1904297,0.42718506,-0.28375244
1601134267946,5,-0.89038086,0.23529053,-0.13604736
1601134267946,6,-1.0170898,0.20941162,-0.1482544
1601134267946,7,-1.0170898,0.20941162,-0.1482544
1601134267946,8,-1.1313477,0.21844482,-0.17315674
1601134267946,9,-1.0571289,0.199646,-0.15753174
1601134267946,10,-1.0571289,0.199646,-0.15753174
1601134267947,11,-0.9350586,0.19671631,-0.14508057
1601134267948,12,-1.1489258,0.23675537,-0.17462158
1601134267949,13,-0.98168945,0.17645264,-0.14361572
1601134267949,14,-1.0571289,0.199646,-0.15753174
1601134267949,15,-0.9350586,0.19671631,-0.14508057
1601134267949,16,-1.1447754,0.2333374,-0.20025635
1601134267949,17,-1.0170898,0.20941162,-0.1482544
1601134267949,18,-0.89038086,0.23529053,-0.13604736
1601134267949,19,-1.0170898,0.20941162,-0.1482544
1601134267949,20,-1.1489258,0.23675537,-0.17462158
1601134267949,21,-1.1313477,0.21844482,-0.17315674
1601134267952,22,-0.89038086,0.23529053,-0.13604736
1601134267952,23,-1.0170898,0.20941162,-0.1482544
1601134267953,24,-0.9350586,0.19671631,-0.14508057
1601134267953,25,-0.9543457,0.25775146,-0.13433838
1601134267953,26,-1.0498047,0.31878662,-0.17730713
1601134267953,27,-1.1313477,0.21844482,-0.17315674
1601134267953,28,-0.9350586,0.19671631,-0.14508057
1601134267953,29,-0.89038086,0.23529053,-0.13604736
1601134267953,30,-1.0571289,0.199646,-0.15753174
1601134267958,31,-0.9543457,0.25775146,-0.13433838
1601134267958,32,-0.9350586,0.19671631,-0.14508057
1601134267958,33,-0.9350586,0.19671631,-0.14508057
1601134267958,34,-1.1447754,0.2333374,-0.20025635
1601134267958,35,-0.89038086,0.23529053,-0.13604736
1601134267958,36,-1.0571289,0.199646,-0.15753174
1601134267958,37,-0.9543457,0.25775146,-0.13433838
1601134267966,38,-1.0170898,0.20941162,-0.1482544
1601134267967,39,-0.9543457,0.25775146,-0.13433838
1601134267968,40,-0.89038086,0.23529053,-0.13604736
1601134267968,41,-0.89038086,0.23529053,-0.13604736
1601134267968,42,-1.1489258,0.23675537,-0.17462158
1601134267968,43,-0.9543457,0.25775146,-0.13433838
1601134267968,44,-1.1313477,0.21844482,-0.17315674
1601134267968,45,-1.0170898,0.20941162,-0.1482544
1601134267968,46,-0.9350586,0.19671631,-0.14508057
1601134267968,47,-0.9543457,0.25775146,-0.13433838
1601134267968,48,-0.89038086,0.23529053,-0.13604736
1601134267968,49,-0.9350586,0.19671631,-0.14508057
1601134267969,50,-1.0571289,0.199646,-0.15753174
1601134267970,51,-0.9543457,0.25775146,-0.13433838
1601134267970,52,-1.0170898,0.20941162,-0.1482544
1601134267971,53,-0.89038086,0.23529053,-0.13604736
1601134267973,54,-0.9543457,0.25775146,-0.13433838
1601134267973,55,-0.9543457,0.25775146,-0.13433838
1601134267974,56,-0.9350586,0.19671631,-0.14508057
1601134267977,57,-0.89038086,0.23529053,-0.13604736
1601134267977,58,-0.9543457,0.25775146,-0.13433838
1601134270888,59,-1.0529785,0.29022217,-0.13336182
1601134270889,60,-1.0529785,0.29022217,-0.13336182
1601134270889,61,-1.0529785,0.29022217,-0.13336182
1601134270893,62,-1.1630859,0.3114624,-0.15362549
1601134270899,63,-1.0529785,0.29022217,-0.13336182
1601134270900,64,-1.0529785,0.29022217,-0.13336182
1601134270900,65,-1.0529785,0.29022217,-0.13336182
1601134270900,66,-1.0529785,0.29022217,-0.13336182
1601134270900,67,-1.0529785,0.29022217,-0.13336182
1601134270900,68,-1.1630859,0.3114624,-0.15362549
1601134270902,69,-1.0529785,0.29022217,-0.13336182
1601134270902,70,-1.1630859,0.3114624,-0.15362549
1601134270902,71,-1.1630859,0.3114624,-0.15362549
1601134270902,72,-1.1630859,0.3114624,-0.15362549
1601134270902,73,-1.1630859,0.3114624,-0.15362549
1601134270903,74,-1.0529785,0.29022217,-0.13336182
1601134270903,75,-1.1223145,0.35760498,-0.16265869
1601134270903,76,-1.1223145,0.35760498,-0.16265869
1601134270903,77,-1.045166,0.4562378,-0.13897705
1601134270906,78,-1.1223145,0.35760498,-0.16265869
1601134270906,79,-1.1223145,0.35760498,-0.16265869
1601134270906,80,-1.1630859,0.3114624,-0.15362549
1601134270906,81,-1.1223145,0.35760498,-0.16265869
1601134270906,82,-1.1223145,0.35760498,-0.16265869
1601134270906,83,-1.045166,0.4562378,-0.13897705
1601134270906,84,-1.1630859,0.3114624,-0.15362549
1601134270906,85,-1.1630859,0.3114624,-0.15362549
1601134270906,86,-1.045166,0.4562378,-0.13897705
1601134270906,87,-1.045166,0.4562378,-0.13897705
1601134270911,88,-1.1630859,0.3114624,-0.15362549
1601134270911,89,-1.0444336,0.3414917,-0.13873291
1601134270911,90,-1.045166,0.4562378,-0.13897705
1601134270911,91,-1.1223145,0.35760498,-0.16265869
1601134270911,92,-1.045166,0.4562378,-0.13897705
1601134270911,93,-1.1223145,0.35760498,-0.16265869
1601134270911,94,-1.0444336,0.3414917,-0.13873291
1601134270911,95,-1.1223145,0.35760498,-0.16265869
1601134270911,96,-1.1223145,0.35760498,-0.16265869
1601134270913,97,-0.89331055,0.26849365,-0.066223145
1601134270914,98,-1.0444336,0.3414917,-0.13873291
1601134270923,99,-1.045166,0.4562378,-0.13897705
1601134270923,100,-0.89331055,0.26849365,-0.066223145
1601134270923,101,-1.045166,0.4562378,-0.13897705
1601134270924,102,-1.045166,0.4562378,-0.13897705
1601134270924,103,-1.0444336,0.3414917,-0.13873291
1601134270924,104,-1.045166,0.4562378,-0.13897705
1601134270924,105,-1.0444336,0.3414917,-0.13873291
1601134270924,106,-1.112793,0.25115967,-0.030822754
1601134270924,107,-1.0444336,0.3414917,-0.13873291
1601134270924,108,-0.89331055,0.26849365,-0.066223145
1601134270924,109,-0.89331055,0.26849365,-0.066223145
1601134270925,110,-0.89331055,0.26849365,-0.066223145
1601134270925,111,-0.89331055,0.26849365,-0.066223145
1601134270925,112,-1.0444336,0.3414917,-0.13873291
1601134270925,113,-1.112793,0.25115967,-0.030822754
1601134270925,114,-1.0444336,0.3414917,-0.13873291
1601134270925,115,-1.112793,0.25115967,-0.030822754
1601134270925,116,-1.2490234,0.08001709,-0.045959473
1601134270925,117,-1.112793,0.25115967,-0.030822754
1601134270925,118,-1.112793,0.25115967,-0.030822754
1601134270927,119,-0.89331055,0.26849365,-0.066223145
1601134270927,120,-1.112793,0.25115967,-0.030822754
1601134270927,121,-1.112793,0.25115967,-0.030822754
1601134270927,122,-1.2490234,0.08001709,-0.045959473
1601134270927,123,-0.89331055,0.26849365,-0.066223145
1601134270928,124,-1.2490234,0.08001709,-0.045959473
1601134270928,125,-1.2490234,0.08001709,-0.045959473
1601134270928,126,-1.2490234,0.08001709,-0.045959473
1601134270929,127,-1.0444336,0.3414917,-0.13873291
1601134270929,128,-1.1420898,0.25823975,0.02508545
1601134270929,129,-1.1420898,0.25823975,0.02508545
1601134270929,130,-1.2490234,0.08001709,-0.045959473
1601134270931,131,-1.112793,0.25115967,-0.030822754
1601134270931,132,-0.90600586,0.22259521,0.030944824
1601134270935,133,-1.1420898,0.25823975,0.02508545
1601134270935,134,-0.83813477,0.34710693,0.04144287
1601134270936,135,-1.1420898,0.25823975,0.02508545
1601134270936,136,-0.89331055,0.26849365,-0.066223145
1601134270936,137,-0.90600586,0.22259521,0.030944824
1601134270936,138,-1.1420898,0.25823975,0.02508545
1601134270936,139,-1.1420898,0.25823975,0.02508545
1601134270936,140,-0.90600586,0.22259521,0.030944824
1601134270936,141,-1.0444336,0.3414917,-0.13873291
1601134270947,142,-0.90600586,0.22259521,0.030944824
1601134270947,143,-0.88500977,0.3685913,-0.016418457
1601134270947,144,-0.90600586,0.22259521,0.030944824
1601134270947,145,-1.112793,0.25115967,-0.030822754
1601134270947,146,-0.83813477,0.34710693,0.04144287
1601134270948,147,-0.83813477,0.34710693,0.04144287
1601134270948,148,-0.90600586,0.22259521,0.030944824
1601134270948,149,-0.83813477,0.34710693,0.04144287
1601134270948,150,-1.2490234,0.08001709,-0.045959473
1601134270948,151,-0.83813477,0.34710693,0.04144287
1601134270948,152,-0.88500977,0.3685913,-0.016418457
1601134270948,153,-1.1420898,0.25823975,0.02508545
1601134270948,154,-0.83813477,0.34710693,0.04144287
1601134270948,155,-0.90600586,0.22259521,0.030944824
1601134270949,156,-0.88500977,0.3685913,-0.016418457
1601134270949,157,-0.86816406,0.34979248,-0.050598145
1601134270949,158,-0.86816406,0.34979248,-0.050598145
1601134270949,159,-0.86816406,0.34979248,-0.050598145
1601134270949,160,-0.88500977,0.3685913,-0.016418457
1601134270949,161,-0.9121094,0.35028076,-0.09625244
1601134270950,162,-0.88500977,0.3685913,-0.016418457
1601134270950,163,-1.2490234,0.08001709,-0.045959473
1601134270950,164,-0.86816406,0.34979248,-0.050598145
1601134270950,165,-0.86816406,0.34979248,-0.050598145
1601134270950,166,-0.88500977,0.3685913,-0.016418457
1601134270950,167,-0.9121094,0.35028076,-0.09625244
1601134270951,168,-0.86816406,0.34979248,-0.050598145
1601134270951,169,-1.2490234,0.08001709,-0.045959473
1601134270951,170,-0.984375,0.32489014,-0.08062744
1601134270951,171,-0.9121094,0.35028076,-0.09625244
1601134270951,172,-1.1420898,0.25823975,0.02508545
1601134270970,173,-0.9121094,0.35028076,-0.09625244
1601134270970,174,-0.90600586,0.22259521,0.030944824
1601134270970,175,-0.9121094,0.35028076,-0.09625244
1601134270970,176,-0.9121094,0.35028076,-0.09625244
1601134270970,177,-1.0532227,0.3319702,-0.027160645
1601134270970,178,-0.83813477,0.34710693,0.04144287
1601134270970,179,-1.1420898,0.25823975,0.02508545
1601134270971,180,-0.89331055,0.26849365,-0.066223145
1601134270971,181,-0.83813477,0.34710693,0.04144287
1601134270971,182,-0.984375,0.32489014,-0.08062744
1601134270971,183,-0.88500977,0.3685913,-0.016418457
1601134270971,184,-0.90600586,0.22259521,0.030944824
1601134270971,185,-0.984375,0.32489014,-0.08062744
1601134270971,186,-0.984375,0.32489014,-0.08062744
1601134270971,187,-1.067627,0.32781982,0.03778076
1601134270972,188,-0.984375,0.32489014,-0.08062744
1601134270972,189,-1.0532227,0.3319702,-0.027160645
1601134270972,190,-1.0532227,0.3319702,-0.027160645
1601134270972,191,-0.98535156,0.30218506,0.0602417
1601134270972,192,-0.984375,0.32489014,-0.08062744
1601134270972,193,-1.0532227,0.3319702,-0.027160645
1601134270972,194,-0.86816406,0.34979248,-0.050598145
1601134270972,195,-0.94311523,0.31903076,0.06097412
1601134270972,196,-0.83813477,0.34710693,0.04144287
1601134270972,197,-1.067627,0.32781982,0.03778076
1601134270972,198,-1.0532227,0.3319702,-0.027160645
1601134270973,199,-0.88500977,0.3685913,-0.016418457
1601134270973,200,-1.067627,0.32781982,0.03778076
1601134270973,201,-0.88500977,0.3685913,-0.016418457
1601134270973,202,-1.0532227,0.3319702,-0.027160645
1601134270973,203,-0.98535156,0.30218506,0.0602417
1601134270973,204,-1.067627,0.32781982,0.03778076
1601134270973,205,-0.98535156,0.30218506,0.0602417
1601134270973,206,-0.99243164,0.32122803,0.041931152
1601134270974,207,-0.94311523,0.31903076,0.06097412
1601134270974,208,-1.112793,0.25115967,-0.030822754
1601134270975,209,-0.99243164,0.32122803,0.041931152
1601134270975,210,-1.067627,0.32781982,0.03778076
1601134270975,211,-0.86816406,0.34979248,-0.050598145
1601134270975,212,-0.86816406,0.34979248,-0.050598145
1601134270975,213,-1.067627,0.32781982,0.03778076
1601134270975,214,-0.9121094,0.35028076,-0.09625244
1601134270975,215,-0.98535156,0.30218506,0.0602417
1601134270975,216,-0.984375,0.32489014,-0.08062744
1601134270976,217,-0.94628906,0.260437,-0.0068969727
1601134270976,218,-0.94311523,0.31903076,0.06097412
1601134270976,219,-0.94628906,0.260437,-0.0068969727
1601134270976,220,-0.99365234,0.2267456,-0.054748535
1601134270976,221,-0.9121094,0.35028076,-0.09625244
1601134270976,222,-0.9121094,0.35028076,-0.09625244
1601134270976,223,-0.98535156,0.30218506,0.0602417
1601134270976,224,-0.94311523,0.31903076,0.06097412
1601134270976,225,-0.984375,0.32489014,-0.08062744
1601134270977,226,-1.2490234,0.08001709,-0.045959473
1601134270977,227,-0.99365234,0.2267456,-0.054748535
1601134270977,228,-0.984375,0.32489014,-0.08062744
1601134270977,229,-0.98535156,0.30218506,0.0602417
1601134270977,230,-0.94311523,0.31903076,0.06097412
1601134270978,231,-1.0532227,0.3319702,-0.027160645
1601134270979,232,-0.97387695,0.23846436,-0.070373535
1601134270979,233,-1.0532227,0.3319702,-0.027160645
1601134270980,234,-0.939209,0.2321167,-0.086242676
1601134270981,235,-1.067627,0.32781982,0.03778076
1601134270986,236,-1.1420898,0.25823975,0.02508545
1601134270987,237,-0.97387695,0.23846436,-0.070373535
1601134270987,238,-1.0532227,0.3319702,-0.027160645
1601134270987,239,-1.067627,0.32781982,0.03778076
1601134270987,240,-0.939209,0.2321167,-0.086242676
1601134270988,241,-0.94311523,0.31903076,0.06097412
1601134270988,242,-0.98535156,0.30218506,0.0602417
1601134270988,243,-0.99243164,0.32122803,0.041931152
1601134270989,244,-0.99243164,0.32122803,0.041931152
1601134270989,245,-0.99243164,0.32122803,0.041931152
1601134270989,246,-0.94628906,0.260437,-0.0068969727
1601134270989,247,-0.90600586,0.22259521,0.030944824
1601134270989,248,-1.067627,0.32781982,0.03778076
1601134270989,249,-0.99365234,0.2267456,-0.054748535
1601134270989,250,-1.0219727,0.2645874,-0.10235596
1601134270989,251,-0.97387695,0.23846436,-0.070373535
1601134270989,252,-0.99243164,0.32122803,0.041931152
1601134271006,253,-0.94628906,0.260437,-0.0068969727
1601134271006,254,-0.94311523,0.31903076,0.06097412
1601134271006,255,-0.99365234,0.2267456,-0.054748535
1601134271006,256,-0.94628906,0.260437,-0.0068969727
1601134271006,257,-0.97387695,0.23846436,-0.070373535
1601134271006,258,-1.1345215,0.34295654,-0.117492676
1601134271006,259,-0.939209,0.2321167,-0.086242676
1601134271006,260,-0.98535156,0.30218506,0.0602417
1601134271007,261,-0.83813477,0.34710693,0.04144287
1601134271007,262,-0.94628906,0.260437,-0.0068969727
1601134271007,263,-1.0219727,0.2645874,-0.10235596
1601134271007,264,-0.99365234,0.2267456,-0.054748535
1601134271007,265,-0.99243164,0.32122803,0.041931152
1601134271007,266,-0.98535156,0.30218506,0.0602417
1601134271007,267,-1.1345215,0.34295654,-0.117492676
1601134271007,268,-0.99365234,0.2267456,-0.054748535
1601134271008,269,-1.1142578,0.33270264,-0.108947754
1601134271008,270,-1.1142578,0.33270264,-0.108947754
1601134271008,271,-0.97387695,0.23846436,-0.070373535
1601134271008,272,-1.0219727,0.2645874,-0.10235596
1601134271008,273,-0.939209,0.2321167,-0.086242676
1601134271008,274,-0.97387695,0.23846436,-0.070373535
1601134271008,275,-0.94628906,0.260437,-0.0068969727
1601134271008,276,-0.94311523,0.31903076,0.06097412
1601134271008,277,-0.939209,0.2321167,-0.086242676
1601134271008,278,-0.99243164,0.32122803,0.041931152
1601134271009,279,-0.99365234,0.2267456,-0.054748535
1601134271009,280,-0.94311523,0.31903076,0.06097412
1601134271009,281,-0.9819336,0.33099365,-0.18804932
1601134271009,282,-0.88500977,0.3685913,-0.016418457
1601134271009,283,-0.96899414,0.42279053,-0.24298096
1601134271009,284,-1.0219727,0.2645874,-0.10235596
1601134271009,285,-0.939209,0.2321167,-0.086242676
1601134271009,286,-1.0219727,0.2645874,-0.10235596
1601134271009,287,-0.9819336,0.33099365,-0.18804932
1601134271010,288,-1.1345215,0.34295654,-0.117492676
1601134271010,289,-0.94628906,0.260437,-0.0068969727
1601134271010,290,-1.1142578,0.33270264,-0.108947754
1601134271010,291,-0.99243164,0.32122803,0.041931152
1601134271010,292,-0.9819336,0.33099365,-0.18804932
1601134271010,293,-1.1345215,0.34295654,-0.117492676
1601134271011,294,-0.86816406,0.34979248,-0.050598145
1601134271011,295,-1.0219727,0.2645874,-0.10235596
1601134271012,296,-0.97387695,0.23846436,-0.070373535
1601134271012,297,-0.96899414,0.42279053,-0.24298096
1601134271012,298,-0.9121094,0.35028076,-0.09625244
1601134271013,299,-0.9379883,0.37005615,-0.2720337
1601134271013,300,-0.99365234,0.2267456,-0.054748535
1601134271013,301,-0.9379883,0.37005615,-0.2720337
1601134271013,302,-1.1345215,0.34295654,-0.117492676
1601134271013,303,-1.1142578,0.33270264,-0.108947754
1601134271015,304,-0.96899414,0.42279053,-0.24298096
1601134271015,305,-0.939209,0.2321167,-0.086242676
1601134271015,306,-0.984375,0.32489014,-0.08062744
1601134271015,307,-1.1345215,0.34295654,-0.117492676
1601134271016,308,-1.0532227,0.3319702,-0.027160645
1601134271016,309,-1.0219727,0.2645874,-0.10235596
1601134271016,310,-0.97387695,0.23846436,-0.070373535
1601134271016,311,-0.8869629,0.34246826,-0.28179932
1601134271016,312,-1.1142578,0.33270264,-0.108947754
1601134271016,313,-0.9819336,0.33099365,-0.18804932
1601134271019,314,-0.94628906,0.260437,-0.0068969727
1601134271019,315,-1.1142578,0.33270264,-0.108947754
1601134271020,316,-0.8869629,0.34246826,-0.28179932
1601134271021,317,-1.067627,0.32781982,0.03778076
1601134271021,318,-0.9379883,0.37005615,-0.2720337
1601134271021,319,-0.86572266,0.36883545,-0.29180908
1601134271021,320,-0.98535156,0.30218506,0.0602417
1601134271021,321,-0.8869629,0.34246826,-0.28179932
1601134271021,322,-0.96899414,0.42279053,-0.24298096
1601134271022,323,-0.99365234,0.2267456,-0.054748535
1601134271027,324,-0.939209,0.2321167,-0.086242676
1601134271027,325,-0.97387695,0.23846436,-0.070373535
1601134271027,326,-0.9819336,0.33099365,-0.18804932
1601134271027,327,-1.0219727,0.2645874,-0.10235596
1601134271027,328,-0.94311523,0.31903076,0.06097412
1601134271027,329,-0.86572266,0.36883545,-0.29180908
1601134271027,330,-0.96899414,0.42279053,-0.24298096
1601134271028,331,-0.9819336,0.33099365,-0.18804932
1601134271028,332,-0.96899414,0.42279053,-0.24298096
1601134271028,333,-1.1345215,0.34295654,-0.117492676
1601134271028,334,-0.9379883,0.37005615,-0.2720337
1601134271028,335,-0.939209,0.2321167,-0.086242676
1601134271028,336,-0.99243164,0.32122803,0.041931152
1601134271029,337,-0.86572266,0.36883545,-0.29180908
1601134271030,338,-0.9379883,0.37005615,-0.2720337
1601134271032,339,-0.8869629,0.34246826,-0.28179932
1601134271037,340,-0.86572266,0.36883545,-0.29180908
1601134271037,341,-0.94628906,0.260437,-0.0068969727
1601134271037,342,-0.9379883,0.37005615,-0.2720337
1601134271037,343,-0.99365234,0.2267456,-0.054748535
1601134271037,344,-1.1142578,0.33270264,-0.108947754
1601134271037,345,-0.8869629,0.34246826,-0.28179932
1601134271037,346,-0.97387695,0.23846436,-0.070373535
1601134271037,347,-1.0219727,0.2645874,-0.10235596
1601134271038,348,-1.1345215,0.34295654,-0.117492676
1601134271038,349,-1.1345215,0.34295654,-0.117492676
1601134271038,350,-0.8869629,0.34246826,-0.28179932
1601134271038,351,-0.86572266,0.36883545,-0.29180908
1601134271038,352,-0.939209,0.2321167,-0.086242676
1601134271042,353,-1.1142578,0.33270264,-0.108947754
1601134271042,354,-0.9819336,0.33099365,-0.18804932
1601134271042,355,-0.86572266,0.36883545,-0.29180908
1601134271042,356,-1.1142578,0.33270264,-0.108947754
1601134271042,357,-0.96899414,0.42279053,-0.24298096
1601134271042,358,-0.9819336,0.33099365,-0.18804932
1601134271042,359,-0.9379883,0.37005615,-0.2720337
1601134271042,360,-0.9819336,0.33099365,-0.18804932
1601134271043,361,-0.8869629,0.34246826,-0.28179932
1601134271045,362,-0.96899414,0.42279053,-0.24298096
1601134271045,363,-0.86572266,0.36883545,-0.29180908
1601134271045,364,-1.0219727,0.2645874,-0.10235596
1601134271045,365,-0.96899414,0.42279053,-0.24298096
1601134271047,366,-0.9379883,0.37005615,-0.2720337
1601134271047,367,-0.9379883,0.37005615,-0.2720337
1601134271048,368,-1.1345215,0.34295654,-0.117492676
1601134271048,369,-0.8869629,0.34246826,-0.28179932
1601134271050,370,-0.8869629,0.34246826,-0.28179932
1601134271050,371,-1.1142578,0.33270264,-0.108947754
1601134271051,372,-0.86572266,0.36883545,-0.29180908
1601134271051,373,-0.86572266,0.36883545,-0.29180908
1601134271052,374,-0.9819336,0.33099365,-0.18804932
1601134271053,375,-0.96899414,0.42279053,-0.24298096
1601134271057,376,-0.9379883,0.37005615,-0.2720337
1601134271058,377,-0.8869629,0.34246826,-0.28179932
1601134271059,378,-0.86572266,0.36883545,-0.29180908
1601134272852,379,-0.86987305,0.40985107,-0.31158447
1601134272852,380,-0.86987305,0.40985107,-0.31158447
1601134272856,381,-0.86987305,0.40985107,-0.31158447
1601134272871,382,-0.86987305,0.40985107,-0.31158447
1601134272871,383,-0.86987305,0.40985107,-0.31158447
1601134272871,384,-0.86987305,0.40985107,-0.31158447
1601134272871,385,-0.8857422,0.44036865,-0.3135376
1601134272871,386,-0.86987305,0.40985107,-0.31158447
1601134272871,387,-0.8857422,0.44036865,-0.3135376
1601134272872,388,-0.8857422,0.44036865,-0.3135376
1601134272872,389,-0.86987305,0.40985107,-0.31158447
1601134272872,390,-0.88720703,0.4694214,-0.24761963
1601134272872,391,-0.8857422,0.44036865,-0.3135376
1601134272872,392,-0.86987305,0.40985107,-0.31158447
1601134272873,393,-0.8857422,0.44036865,-0.3135376
1601134272873,394,-0.88720703,0.4694214,-0.24761963
1601134272873,395,-0.86987305,0.40985107,-0.31158447
1601134272873,396,-0.88720703,0.4694214,-0.24761963
1601134272873,397,-0.9338379,0.49822998,-0.1531372
1601134272873,398,-0.88720703,0.4694214,-0.24761963
1601134272873,399,-0.8857422,0.44036865,-0.3135376
1601134272873,400,-0.88720703,0.4694214,-0.24761963
1601134272873,401,-0.8857422,0.44036865,-0.3135376
1601134272873,402,-0.88720703,0.4694214,-0.24761963
1601134272873,403,-0.8857422,0.44036865,-0.3135376
1601134272874,404,-0.9338379,0.49822998,-0.1531372
1601134272874,405,-0.9338379,0.49822998,-0.1531372
1601134272874,406,-0.9338379,0.49822998,-0.1531372
1601134272892,407,-1.0009766,0.22845459,-0.022277832
1601134272892,408,-1.0009766,0.22845459,-0.022277832
1601134272892,409,-0.8857422,0.44036865,-0.3135376
1601134272892,410,-0.9338379,0.49822998,-0.1531372
1601134272892,411,-0.88720703,0.4694214,-0.24761963
1601134272892,412,-0.8857422,0.44036865,-0.3135376
1601134272892,413,-0.88720703,0.4694214,-0.24761963
1601134272892,414,-1.0009766,0.22845459,-0.022277832
1601134272892,415,-1.0009766,0.22845459,-0.022277832
1601134272893,416,-0.9338379,0.49822998,-0.1531372
1601134272893,417,-0.97509766,0.36468506,0.04559326
1601134272893,418,-1.0009766,0.22845459,-0.022277832
1601134272893,419,-0.97509766,0.36468506,0.04559326
1601134272893,420,-0.9338379,0.49822998,-0.1531372
1601134272893,421,-0.9831543,0.3414917,0.07879639
1601134272893,422,-1.0009766,0.22845459,-0.022277832
1601134272893,423,-1.0009766,0.22845459,-0.022277832
1601134272893,424,-0.97509766,0.36468506,0.04559326
1601134272893,425,-0.97509766,0.36468506,0.04559326
1601134272893,426,-0.97509766,0.36468506,0.04559326
1601134272893,427,-0.97509766,0.36468506,0.04559326
1601134272894,428,-0.9338379,0.49822998,-0.1531372
1601134272894,429,-0.9831543,0.3414917,0.07879639
1601134272894,430,-0.88720703,0.4694214,-0.24761963
1601134272894,431,-0.88720703,0.4694214,-0.24761963
1601134272894,432,-0.9338379,0.49822998,-0.1531372
1601134272894,433,-0.9572754,0.3505249,0.08099365
1601134272894,434,-0.9338379,0.49822998,-0.1531372
1601134272894,435,-1.0009766,0.22845459,-0.022277832
1601134272894,436,-0.9831543,0.3414917,0.07879639
1601134272894,437,-0.9831543,0.3414917,0.07879639
1601134272894,438,-0.9831543,0.3414917,0.07879639
1601134272894,439,-0.9572754,0.3505249,0.08099365
1601134272895,440,-0.97509766,0.36468506,0.04559326
1601134272895,441,-0.9572754,0.3505249,0.08099365
1601134272895,442,-0.95458984,0.32244873,0.06048584
1601134272896,443,-0.95458984,0.32244873,0.06048584
1601134272896,444,-0.9831543,0.3414917,0.07879639
1601134272896,445,-0.9572754,0.3505249,0.08099365
1601134272900,446,-1.0009766,0.22845459,-0.022277832
1601134272901,447,-1.0009766,0.22845459,-0.022277832
1601134272901,448,-0.95458984,0.32244873,0.06048584
1601134272901,449,-0.9831543,0.3414917,0.07879639
1601134272901,450,-0.97509766,0.36468506,0.04559326
1601134272901,451,-0.96069336,0.30291748,0.041931152
1601134272901,452,-0.9572754,0.3505249,0.08099365
1601134272902,453,-0.9572754,0.3505249,0.08099365
1601134272906,454,-0.95458984,0.32244873,0.06048584
1601134272906,455,-0.9572754,0.3505249,0.08099365
1601134272906,456,-0.96069336,0.30291748,0.03704834
1601134272906,457,-0.95458984,0.32244873,0.06048584
1601134272906,458,-0.95458984,0.32244873,0.06048584
1601134272906,459,-0.9609375,0.3336792,0.07562256
1601134272906,460,-0.96069336,0.30291748,0.041931152
1601134272906,461,-0.96069336,0.30291748,0.041931152
1601134272906,462,-0.96069336,0.30291748,0.041931152
1601134272906,463,-0.96069336,0.30291748,0.041931152
1601134272906,464,-0.93188477,0.36883545,0.10223389
1601134272907,465,-0.96069336,0.30291748,0.03704834
1601134272907,466,-0.9831543,0.3414917,0.07879639
1601134272907,467,-0.96069336,0.30291748,0.041931152
1601134272907,468,-0.9042969,0.35906982,0.07879639
1601134272907,469,-0.95458984,0.32244873,0.06048584
1601134272913,470,-0.96069336,0.30291748,0.03704834
1601134272913,471,-0.9609375,0.3336792,0.07562256
1601134272913,472,-0.96069336,0.30291748,0.03704834
1601134272913,473,-0.9572754,0.3505249,0.08099365
1601134272913,474,-0.93188477,0.36883545,0.10223389
1601134272913,475,-0.9609375,0.3336792,0.07562256
1601134272913,476,-0.9042969,0.35906982,0.07879639
1601134272913,477,-0.95458984,0.32244873,0.06048584
1601134272914,478,-0.97509766,0.36468506,0.04559326
1601134272914,479,-0.9609375,0.3336792,0.07562256
1601134272915,480,-0.96069336,0.30291748,0.03704834
1601134272916,481,-0.96069336,0.30291748,0.041931152
1601134272932,482,-0.9609375,0.3336792,0.07562256
1601134272933,483,-0.96069336,0.30291748,0.03704834
1601134272933,484,-0.96069336,0.30291748,0.041931152
1601134272933,485,-0.96069336,0.30291748,0.03704834
1601134272933,486,-0.97509766,0.36468506,0.04559326
1601134272934,487,-0.93188477,0.36883545,0.10223389
1601134272934,488,-0.93188477,0.36883545,0.10223389
1601134272935,489,-0.89990234,0.3361206,0.023864746
1601134272935,490,-0.89990234,0.3361206,0.023864746
1601134272935,491,-0.9042969,0.35906982,0.07879639
1601134272935,492,-0.96069336,0.30291748,0.03704834
1601134272935,493,-0.93188477,0.36883545,0.10223389
1601134272935,494,-0.9609375,0.3336792,0.07562256
1601134272935,495,-0.9609375,0.3336792,0.07562256
1601134272935,496,-0.9831543,0.3414917,0.07879639
1601134272935,497,-0.9042969,0.35906982,0.07879639
1601134272935,498,-0.93188477,0.36883545,0.10223389
1601134272935,499,-1.0625,0.3348999,0.0026245117
1601134272935,500,-1.0625,0.3348999,0.0026245117
1601134272936,501,-0.89990234,0.3361206,0.023864746
1601134272936,502,-0.89990234,0.3361206,0.023864746
1601134272936,503,-0.9042969,0.35906982,0.07879639
1601134272936,504,-0.9831543,0.3414917,0.07879639
1601134272936,505,-0.93188477,0.36883545,0.10223389
1601134272936,506,-0.9572754,0.3505249,0.08099365
1601134272937,507,-1.0625,0.3348999,0.0026245117
1601134272937,508,-0.9042969,0.35906982,0.07879639
1601134272938,509,-0.9819336,0.2868042,0.0036010742
1601134272938,510,-0.9609375,0.3336792,0.07562256
1601134272938,511,-0.9819336,0.2868042,0.0036010742
1601134272938,512,-0.9042969,0.35906982,0.07879639
1601134272938,513,-0.95458984,0.32244873,0.06048584
1601134272938,514,-0.9819336,0.2868042,0.0036010742
1601134272938,515,-1.0625,0.3348999,0.0026245117
1601134272938,516,-0.96069336,0.30291748,0.041931152
1601134272938,517,-0.93188477,0.36883545,0.10223389
1601134272944,518,-0.9819336,0.2868042,0.0036010742
1601134272944,519,-0.89990234,0.3361206,0.023864746
1601134272944,520,-1.0249023,0.33148193,-0.13800049
1601134272945,521,-1.0249023,0.33148193,-0.13800049
1601134272945,522,-1.0249023,0.33148193,-0.13800049
1601134272945,523,-0.96069336,0.30291748,0.03704834
1601134272945,524,-0.9902344,0.51239014,-0.13800049
1601134272945,525,-0.9609375,0.3336792,0.07562256
1601134272945,526,-0.9902344,0.51239014,-0.13800049
1601134272945,527,-0.89990234,0.3361206,0.023864746
1601134272945,528,-0.91918945,0.3378296,-0.15924072
1601134272946,529,-0.9902344,0.51239014,-0.13800049
1601134272946,530,-1.0249023,0.33148193,-0.13800049
1601134272946,531,-1.0625,0.3348999,0.0026245117
1601134272946,532,-0.9042969,0.35906982,0.07879639
1601134272946,533,-0.9572754,0.3505249,0.08099365
1601134272959,534,-0.89990234,0.3361206,0.023864746
1601134272959,535,-0.94091797,0.3505249,-0.20611572
1601134272959,536,-0.91918945,0.3378296,-0.15924072
1601134272960,537,-0.9902344,0.51239014,-0.13800049
1601134272960,538,-0.92529297,0.4244995,-0.19708252
1601134272960,539,-1.0625,0.3348999,0.0026245117
1601134272960,540,-0.91918945,0.3378296,-0.15924072
1601134272960,541,-0.89990234,0.3361206,0.023864746
1601134272960,542,-0.9819336,0.2868042,0.0036010742
1601134272960,543,-0.94091797,0.3505249,-0.20611572
1601134272960,544,-1.0625,0.3348999,0.0026245117
1601134272960,545,-1.0625,0.3348999,0.0026245117
1601134272960,546,-0.9819336,0.2868042,0.0036010742
1601134272960,547,-0.93188477,0.36883545,0.10223389
1601134272960,548,-0.91918945,0.3378296,-0.15924072
1601134272960,549,-0.9819336,0.2868042,0.0036010742
1601134272961,550,-0.94091797,0.3505249,-0.20611572
1601134272961,551,-0.95458984,0.32244873,0.06048584
1601134272961,552,-0.83251953,0.62420654,-0.10357666
1601134272961,553,-1.0249023,0.33148193,-0.13800049
1601134272961,554,-0.96069336,0.30291748,0.041931152
1601134272961,555,-0.94091797,0.3505249,-0.20611572
1601134272961,556,-1.0249023,0.33148193,-0.13800049
1601134272961,557,-0.96069336,0.30291748,0.03704834
1601134272961,558,-0.9819336,0.2868042,0.0036010742
1601134272961,559,-0.9609375,0.3336792,0.07562256
1601134272962,560,-1.0249023,0.33148193,-0.13800049
1601134272962,561,-0.93188477,0.36883545,0.10223389
1601134272962,562,-0.9902344,0.51239014,-0.13800049
1601134272970,563,-0.9042969,0.35906982,0.07879639
1601134272970,564,-0.92529297,0.4244995,-0.19708252
1601134272970,565,-1.0249023,0.33148193,-0.13800049
1601134272970,566,-0.9902344,0.51239014,-0.13800049
1601134272970,567,-0.83251953,0.62420654,-0.10357666
1601134272971,568,-0.9902344,0.51239014,-0.13800049
1601134272971,569,-0.9042969,0.35906982,0.07879639
1601134272972,570,-0.92529297,0.4244995,-0.19708252
1601134272972,571,-0.91918945,0.3378296,-0.15924072
1601134272972,572,-0.91918945,0.3378296,-0.15924072
1601134272972,573,-0.89990234,0.3361206,0.023864746
1601134272972,574,-0.95751953,0.65911865,-0.074279785
1601134272972,575,-0.95751953,0.65911865,-0.074279785
1601134272975,576,-0.92529297,0.4244995,-0.19708252
1601134272976,577,-0.91918945,0.3378296,-0.15924072
1601134272976,578,-0.83251953,0.62420654,-0.10357666
1601134272976,579,-0.94091797,0.3505249,-0.20611572
1601134272976,580,-0.94091797,0.3505249,-0.20611572
1601134272976,581,-1.0625,0.3348999,0.0026245117
1601134272976,582,-0.9902344,0.51239014,-0.13800049
1601134272976,583,-1.1918945,0.70184326,-0.31549072
1601134272976,584,-0.92529297,0.4244995,-0.19708252
1601134272977,585,-1.1918945,0.70184326,-0.31549072
1601134272989,586,-0.94091797,0.3505249,-0.20611572
1601134272989,587,-0.83251953,0.62420654,-0.10357666
1601134272989,588,-0.92529297,0.4244995,-0.19708252
1601134272989,589,-0.89990234,0.3361206,0.023864746
1601134272989,590,-0.9819336,0.2868042,0.0036010742
1601134272989,591,-0.91918945,0.3378296,-0.15924072
1601134272989,592,-1.0688477,0.71917725,-0.4216919
1601134272990,593,-0.94091797,0.3505249,-0.20611572
1601134272990,594,-0.83251953,0.62420654,-0.10357666
1601134272990,595,-1.0688477,0.71917725,-0.4216919
1601134272990,596,-0.6347656,-0.14898682,-0.20245361
1601134272990,597,-0.92529297,0.4244995,-0.19708252
1601134272990,598,-0.6347656,-0.14898682,-0.20245361
1601134272990,599,-0.83251953,0.62420654,-0.10357666
1601134272990,600,-1.0625,0.3348999,0.0026245117
1601134272990,601,-1.0249023,0.33148193,-0.13800049
1601134272991,602,-0.95751953,0.65911865,-0.074279785
1601134272991,603,-0.95751953,0.65911865,-0.074279785
1601134272991,604,-0.92529297,0.4244995,-0.19708252
1601134272996,605,-0.95751953,0.65911865,-0.074279785
1601134272996,606,-0.31420898,-0.38531494,-0.14678955
1601134272996,607,-0.83251953,0.62420654,-0.10357666
1601134272996,608,-0.31420898,-0.38531494,-0.14678955
1601134272997,609,-0.95751953,0.65911865,-0.074279785
1601134272997,610,-0.9902344,0.51239014,-0.13800049
1601134272997,611,-1.1918945,0.70184326,-0.31549072
1601134272997,612,-0.91918945,0.3378296,-0.15924072
1601134272997,613,-1.1918945,0.70184326,-0.31549072
1601134272997,614,-1.0688477,0.71917725,-0.4216919
1601134272997,615,-1.0541992,0.9257202,-0.36993408
1601134272997,616,-0.9819336,0.2868042,0.0036010742
1601134272998,617,-1.0541992,0.9257202,-0.36993408
1601134273004,618,-0.95751953,0.65911865,-0.074279785
1601134273005,619,-0.94091797,0.3505249,-0.20611572
1601134273005,620,-1.1918945,0.70184326,-0.31549072
1601134273005,621,-0.6347656,-0.14898682,-0.20245361
1601134273005,622,-1.0688477,0.71917725,-0.4216919
1601134273006,623,-0.6347656,-0.14898682,-0.20245361
1601134273006,624,-1.1054688,1.8527222,0.109313965
1601134273006,625,-1.0249023,0.33148193,-0.13800049
1601134273006,626,-1.1054688,1.8527222,0.109313965
1601134273007,627,-0.92529297,0.4244995,-0.19708252
1601134273013,628,-0.83251953,0.62420654,-0.10357666
1601134273014,629,-0.83251953,0.62420654,-0.10357666
1601134273015,630,-1.0688477,0.71917725,-0.4216919
1601134273015,631,-0.31420898,-0.38531494,-0.14678955
1601134273015,632,-0.31420898,-0.38531494,-0.14678955
1601134273016,633,-0.6347656,-0.14898682,-0.20245361
1601134273016,634,-1.0170898,0.17572021,1.2953491
1601134273016,635,-0.9902344,0.51239014,-0.13800049
1601134273016,636,-1.1918945,0.70184326,-0.31549072
1601134273022,637,-1.1918945,0.70184326,-0.31549072
1601134273022,638,-0.95751953,0.65911865,-0.074279785
1601134273025,639,-1.0688477,0.71917725,-0.4216919
1601134273025,640,-1.0541992,0.9257202,-0.36993408
1601134273025,641,-1.0541992,0.9257202,-0.36993408
1601134273025,642,-0.31420898,-0.38531494,-0.14678955
1601134273025,643,-1.0170898,0.17572021,1.2953491
1601134273025,644,-0.25830078,0.6366577,0.27972412
1601134273025,645,-1.0541992,0.9257202,-0.36993408
1601134273025,646,-0.95751953,0.65911865,-0.074279785
1601134273026,647,-1.1918945,0.70184326,-0.31549072
1601134273026,648,-1.0688477,0.71917725,-0.4216919
1601134273026,649,-0.6347656,-0.14898682,-0.20245361
1601134273026,650,-1.0688477,0.71917725,-0.4216919
1601134273034,651,-1.1054688,1.8527222,0.109313965
1601134273034,652,-0.6347656,-0.14898682,-0.20245361
1601134273034,653,-1.0170898,0.17572021,1.2953491
1601134273034,654,-0.25830078,0.6366577,0.27972412
1601134273034,655,-1.1054688,1.8527222,0.109313965
1601134273035,656,-0.91918945,0.3378296,-0.15924072
1601134273035,657,-1.1918945,0.70184326,-0.31549072
1601134273035,658,-0.94091797,0.3505249,-0.20611572
1601134273042,659,-1.1054688,1.8527222,0.109313965
1601134273042,660,-0.31420898,-0.38531494,-0.14678955
1601134273043,661,-0.25830078,0.6366577,0.27972412
1601134273043,662,-0.31420898,-0.38531494,-0.14678955
1601134273043,663,-1.0170898,0.17572021,1.2953491
1601134273043,664,-1.0541992,0.9257202,-0.36993408
1601134273044,665,-1.0688477,0.71917725,-0.4216919
1601134273044,666,-0.92529297,0.4244995,-0.19708252
1601134273044,667,-1.0170898,0.17572021,1.2953491
1601134273057,668,-0.6347656,-0.14898682,-0.20245361
1601134273057,669,-1.1054688,1.8527222,0.109313965
1601134273057,670,-0.25830078,0.6366577,0.27972412
1601134273059,671,-0.83251953,0.62420654,-0.10357666
1601134273059,672,-0.6347656,-0.14898682,-0.20245361
1601134273059,673,-1.0170898,0.17572021,1.2953491
1601134273059,674,-1.0541992,0.9257202,-0.36993408
1601134273059,675,-0.95751953,0.65911865,-0.074279785
1601134273059,676,-0.25830078,0.6366577,0.27972412
1601134273059,677,-0.31420898,-0.38531494,-0.14678955
1601134273059,678,-1.0541992,0.9257202,-0.36993408
1601134273059,679,-0.31420898,-0.38531494,-0.14678955
1601134273059,680,-1.1054688,1.8527222,0.109313965
1601134273060,681,-1.1054688,1.8527222,0.109313965
1601134273060,682,-1.0170898,0.17572021,1.2953491
1601134273060,683,-1.0541992,0.9257202,-0.36993408
1601134273060,684,-1.1918945,0.70184326,-0.31549072
1601134273061,685,-0.25830078,0.6366577,0.27972412
1601134273063,686,-1.1054688,1.8527222,0.109313965
1601134273063,687,-1.0170898,0.17572021,1.2953491
1601134273064,688,-0.25830078,0.6366577,0.27972412
1601134273067,689,-1.0170898,0.17572021,1.2953491
1601134273068,690,-1.0688477,0.71917725,-0.4216919
1601134273068,691,-0.25830078,0.6366577,0.27972412
1601134273068,692,-0.25830078,0.6366577,0.27972412
1601134273071,693,-0.6347656,-0.14898682,-0.20245361
1601134273075,694,-0.31420898,-0.38531494,-0.14678955
1601134273076,695,-1.0541992,0.9257202,-0.36993408
1601134273076,696,-1.1054688,1.8527222,0.109313965
1601134273076,697,-1.0170898,0.17572021,1.2953491
1601134273076,698,-0.25830078,0.6366577,0.27972412
1601134275548,699,-0.94311523,0.7748413,-0.15899658
1601134275548,700,-0.94311523,0.7748413,-0.15899658
1601134275548,701,-0.94311523,0.7748413,-0.15899658
1601134275548,702,-2.0,0.008239746,-1.0317993
1601134275549,703,-0.94311523,0.7748413,-0.15899658
1601134275549,704,-0.94311523,0.7748413,-0.15899658
1601134275549,705,-0.94311523,0.7748413,-0.15899658
1601134275551,706,-2.0,0.008239746,-1.0317993
1601134275553,707,-0.94311523,0.7748413,-0.15899658
1601134275561,708,-2.0,0.008239746,-1.0317993
1601134275561,709,-2.0,0.008239746,-1.0317993
1601134275561,710,-0.7910156,0.3258667,-0.69903564
1601134275561,711,-0.94311523,0.7748413,-0.15899658
1601134275561,712,-2.0,0.008239746,-1.0317993
1601134275561,713,-2.0,0.008239746,-1.0317993
1601134275561,714,-0.94311523,0.7748413,-0.15899658
1601134275561,715,-0.7910156,0.3258667,-0.69903564
1601134275561,716,-0.7910156,0.3258667,-0.69903564
1601134275561,717,-2.0,0.008239746,-1.0317993
1601134275562,718,-1.645752,0.8944702,-0.17926025
1601134275562,719,-0.7910156,0.3258667,-0.69903564
1601134275562,720,-0.7910156,0.3258667,-0.69903564
1601134275562,721,-1.645752,0.8944702,-0.17926025
1601134275562,722,-2.0,0.008239746,-1.0317993
1601134275562,723,-0.7910156,0.3258667,-0.69903564
1601134275562,724,-0.7910156,0.3258667,-0.69903564
1601134275562,725,-0.94311523,0.7748413,-0.15899658
1601134275562,726,-0.7910156,0.3258667,-0.69903564
1601134275565,727,-1.5751953,0.54193115,-0.32647705
1601134275566,728,-0.7368164,-0.5276489,0.13763428
1601134275578,729,-2.0,0.008239746,-1.0317993
1601134275579,730,-1.645752,0.8944702,-0.17926025
1601134275579,731,-2.0,0.008239746,-1.0317993
1601134275579,732,-1.645752,0.8944702,-0.17926025
1601134275579,733,-0.7910156,0.3258667,-0.69903564
1601134275579,734,-1.645752,0.8944702,-0.17926025
1601134275579,735,-1.5751953,0.54193115,-0.32647705
1601134275579,736,-1.5751953,0.54193115,-0.32647705
1601134275579,737,-0.22631836,-0.5444946,0.6691284
1601134275579,738,-0.7368164,-0.5276489,0.13763428
1601134275580,739,-1.645752,0.8944702,-0.17926025
1601134275580,740,-1.5654297,0.06512451,0.5907593
1601134275580,741,-0.7910156,0.3258667,-0.69903564
1601134275580,742,-1.645752,0.8944702,-0.17926025
1601134275580,743,-1.5751953,0.54193115,-0.32647705
1601134275580,744,-1.645752,0.8944702,-0.17926025
1601134275580,745,-1.5751953,0.54193115,-0.32647705
1601134275580,746,-0.7368164,-0.5276489,0.13763428
1601134275580,747,-1.645752,0.8944702,-0.17926025
1601134275580,748,-1.5751953,0.54193115,-0.32647705
1601134275586,749,-2.0,0.51556396,-0.80352783
1601134275586,750,-1.645752,0.8944702,-0.17926025
1601134275586,751,-1.5751953,0.54193115,-0.32647705
1601134275586,752,-0.7368164,-0.5276489,0.13763428
1601134275586,753,-1.5751953,0.54193115,-0.32647705
1601134275586,754,-0.7368164,-0.5276489,0.13763428
1601134275586,755,-0.22631836,-0.5444946,0.6691284
1601134275587,756,-1.5751953,0.54193115,-0.32647705
1601134275587,757,-0.22631836,-0.5444946,0.6691284
1601134275587,758,-0.7368164,-0.5276489,0.13763428
1601134275587,759,-1.1276855,0.7418823,-0.37652588
1601134275587,760,-1.5654297,0.06512451,0.5907593
1601134275588,761,-1.5751953,0.54193115,-0.32647705
1601134275599,762,-0.4855957,0.46209717,-0.81500244
1601134275599,763,-0.7368164,-0.5276489,0.13763428
1601134275599,764,-0.22631836,-0.5444946,0.6691284
1601134275599,765,-0.7368164,-0.5276489,0.13763428
1601134275599,766,-1.5654297,0.06512451,0.5907593
1601134275599,767,-0.22631836,-0.5444946,0.6691284
1601134275605,768,-0.22631836,-0.5444946,0.6691284
1601134275605,769,-0.7368164,-0.5276489,0.13763428
1601134275606,770,-0.7368164,-0.5276489,0.13763428
1601134275606,771,-0.22631836,-0.5444946,0.6691284
1601134275606,772,-1.5654297,0.06512451,0.5907593
1601134275606,773,-1.5654297,0.06512451,0.5907593
1601134275606,774,-0.22631836,-0.5444946,0.6691284
1601134275606,775,-2.0,0.51556396,-0.80352783
1601134275606,776,-1.5654297,0.06512451,0.5907593
1601134275606,777,-0.22631836,-0.5444946,0.6691284
1601134275606,778,-2.0,0.51556396,-0.80352783
1601134275606,779,-1.5654297,0.06512451,0.5907593
1601134275606,780,-0.22631836,-0.5444946,0.6691284
1601134275606,781,-2.0,0.51556396,-0.80352783
1601134275607,782,-1.1276855,0.7418823,-0.37652588
1601134275607,783,-1.5654297,0.06512451,0.5907593
1601134275607,784,-2.0,0.51556396,-0.80352783
1601134275607,785,-0.4621582,0.06829834,-0.5576782
1601134275607,786,-2.0,0.51556396,-0.80352783
1601134275607,787,-2.0,0.51556396,-0.80352783
1601134275609,788,-1.1276855,0.7418823,-0.37652588
1601134275609,789,-2.0,0.51556396,-0.80352783
1601134275609,790,-1.5654297,0.06512451,0.5907593
1601134275611,791,-1.1276855,0.7418823,-0.37652588
1601134275611,792,-2.0,0.51556396,-0.80352783
1601134275611,793,-0.4855957,0.46209717,-0.81500244
1601134275611,794,-1.5654297,0.06512451,0.5907593
1601134275611,795,-1.1276855,0.7418823,-0.37652588
1601134275611,796,-1.3989258,0.29193115,-0.51812744
1601134275612,797,-2.0,0.51556396,-0.80352783
1601134275612,798,-1.1276855,0.7418823,-0.37652588
1601134275612,799,-0.4855957,0.46209717,-0.81500244
1601134275612,800,-1.1276855,0.7418823,-0.37652588
1601134275613,801,-1.1276855,0.7418823,-0.37652588
1601134275613,802,-0.4855957,0.46209717,-0.81500244
1601134275613,803,-1.1276855,0.7418823,-0.37652588
1601134275613,804,-0.4621582,0.06829834,-0.5576782
1601134275613,805,-0.4855957,0.46209717,-0.81500244
1601134275614,806,-1.3989258,0.29193115,-0.51812744
1601134275614,807,-1.1276855,0.7418823,-0.37652588
1601134275614,808,-0.4855957,0.46209717,-0.81500244
1601134275614,809,-0.4621582,0.06829834,-0.5576782
1601134275615,810,-0.4621582,0.06829834,-0.5576782
1601134275615,811,-0.4855957,0.46209717,-0.81500244
1601134275617,812,-1.1254883,0.74871826,0.13031006
1601134275617,813,-0.4855957,0.46209717,-0.81500244
1601134275617,814,-1.5812988,1.7841187,0.37835693
1601134275617,815,-1.3989258,0.29193115,-0.51812744
1601134275617,816,-0.4621582,0.06829834,-0.5576782
1601134275617,817,-0.4855957,0.46209717,-0.81500244
1601134275617,818,-1.1254883,0.74871826,0.13031006
1601134275617,819,-1.3989258,0.29193115,-0.51812744
1601134275618,820,-0.4855957,0.46209717,-0.81500244
1601134275618,821,-0.4621582,0.06829834,-0.5576782
1601134275618,822,-0.4621582,0.06829834,-0.5576782
1601134275618,823,-2.0,1.4176636,0.105407715
1601134275619,824,-1.1254883,0.74871826,0.13031006
1601134275619,825,-1.3989258,0.29193115,-0.51812744
1601134275619,826,-0.4621582,0.06829834,-0.5576782
1601134275619,827,-1.3989258,0.29193115,-0.51812744
1601134275619,828,-0.4621582,0.06829834,-0.5576782
1601134275619,829,-1.1254883,0.74871826,0.13031006
1601134275619,830,-1.3989258,0.29193115,-0.51812744
1601134275624,831,-1.5812988,1.7841187,0.37835693
1601134275624,832,-1.1254883,0.74871826,0.13031006
1601134275624,833,-1.5812988,1.7841187,0.37835693
1601134275624,834,-0.4621582,0.06829834,-0.5576782
1601134275624,835,-2.0,1.4176636,0.105407715
1601134275625,836,-1.3989258,0.29193115,-0.51812744
1601134275625,837,-1.1254883,0.74871826,0.13031006
1601134275625,838,-1.1254883,0.74871826,0.13031006
1601134275625,839,-1.5812988,1.7841187,0.37835693
1601134275625,840,-1.5812988,1.7841187,0.37835693
1601134275625,841,-1.3989258,0.29193115,-0.51812744
1601134275631,842,-1.8552246,1.2140503,0.53948975
1601134275631,843,-1.5812988,1.7841187,0.37835693
1601134275633,844,-1.3989258,0.29193115,-0.51812744
1601134275633,845,-2.0,1.4176636,0.105407715
1601134275633,846,-1.1254883,0.74871826,0.13031006
1601134275633,847,-1.8269043,1.0673218,0.35516357
1601134275634,848,-2.0,1.4176636,0.105407715
1601134275634,849,-2.0,1.4176636,0.105407715
1601134275634,850,-1.8552246,1.2140503,0.53948975
1601134275634,851,-1.1254883,0.74871826,0.13031006
1601134275634,852,-1.8552246,1.2140503,0.53948975
1601134275634,853,-1.5812988,1.7841187,0.37835693
1601134275635,854,-1.8552246,1.2140503,0.53948975
1601134275635,855,-2.0,1.4176636,0.105407715
1601134275635,856,-1.8552246,1.2140503,0.53948975
1601134275635,857,-2.0,1.4176636,0.105407715
1601134275635,858,-1.8269043,1.0673218,0.35516357
1601134275652,859,-1.5812988,1.7841187,0.37835693
1601134275652,860,-0.98706055,0.11273193,0.27801514
1601134275652,861,-1.1254883,0.74871826,0.13031006
1601134275652,862,-1.8552246,1.2140503,0.53948975
1601134275652,863,-0.6196289,-0.117004395,-0.33306885
1601134275652,864,-1.8269043,1.0673218,0.35516357
1601134275653,865,-1.8552246,1.2140503,0.53948975
1601134275654,866,-1.8269043,1.0673218,0.35516357
1601134275654,867,-1.8269043,1.0673218,0.35516357
1601134275654,868,-0.98706055,0.11273193,0.27801514
1601134275654,869,-0.98706055,0.11273193,0.27801514
1601134275655,870,-1.5812988,1.7841187,0.37835693
1601134275655,871,-0.6196289,-0.117004395,-0.33306885
1601134275655,872,-1.8269043,1.0673218,0.35516357
1601134275655,873,-1.5812988,1.7841187,0.37835693
1601134275655,874,-0.98706055,0.11273193,0.27801514
1601134275655,875,-1.8269043,1.0673218,0.35516357
1601134275655,876,-0.98706055,0.11273193,0.27801514
1601134275655,877,-0.98706055,0.11273193,0.27801514
1601134275655,878,-2.0,1.4176636,0.105407715
1601134275655,879,-2.0,1.4176636,0.105407715
1601134275656,880,-0.6196289,-0.117004395,-0.33306885
1601134275656,881,-0.46875,0.049743652,-0.26885986
1601134275657,882,-0.46875,0.049743652,-0.26885986
1601134275657,883,-2.0,1.4176636,0.105407715
1601134275658,884,-1.8552246,1.2140503,0.53948975
1601134275658,885,-0.98706055,0.11273193,0.27801514
1601134275658,886,-1.8552246,1.2140503,0.53948975
1601134275658,887,-0.6196289,-0.117004395,-0.33306885
1601134275658,888,-0.6196289,-0.117004395,-0.33306885
1601134275659,889,-0.26879883,0.5463257,-0.32476807
1601134275660,890,-1.8552246,1.2140503,0.53948975
1601134275660,891,-0.46875,0.049743652,-0.26885986
1601134275660,892,-0.6196289,-0.117004395,-0.33306885
1601134275660,893,-0.26879883,0.5463257,-0.32476807
1601134275660,894,-0.6196289,-0.117004395,-0.33306885
1601134275661,895,-1.8269043,1.0673218,0.35516357
1601134275661,896,-0.46875,0.049743652,-0.26885986
1601134275661,897,-1.8269043,1.0673218,0.35516357
1601134275663,898,-0.26879883,0.5463257,-0.32476807
1601134275663,899,-0.57910156,0.20501709,-0.5911255
1601134275663,900,-1.8269043,1.0673218,0.35516357
1601134275663,901,-0.57910156,0.20501709,-0.5911255
1601134275664,902,-0.46875,0.049743652,-0.26885986
1601134275664,903,-0.57910156,0.20501709,-0.5911255
1601134275664,904,-0.46875,0.049743652,-0.26885986
1601134275664,905,-0.46875,0.049743652,-0.26885986
1601134275664,906,-0.98706055,0.11273193,0.27801514
1601134275664,907,-0.26879883,0.5463257,-0.32476807
1601134275664,908,-1.284668,0.6586304,-0.59088135
1601134275664,909,-0.98706055,0.11273193,0.27801514
1601134275664,910,-1.284668,0.6586304,-0.59088135
1601134275664,911,-0.26879883,0.5463257,-0.32476807
1601134275664,912,-1.284668,0.6586304,-0.59088135
1601134275664,913,-0.98706055,0.11273193,0.27801514
1601134275668,914,-0.26879883,0.5463257,-0.32476807
1601134275668,915,-0.6196289,-0.117004395,-0.33306885
1601134275668,916,-0.46875,0.049743652,-0.26885986
1601134275668,917,-0.6196289,-0.117004395,-0.33306885
1601134275668,918,-0.57910156,0.20501709,-0.5911255
1601134275668,919,-0.6196289,-0.117004395,-0.33306885
1601134275668,920,-0.26879883,0.5463257,-0.32476807
1601134275668,921,-0.46875,0.049743652,-0.26885986
1601134275674,922,-0.57910156,0.20501709,-0.5911255
1601134275674,923,-1.3525391,0.98114014,-0.6309204
1601134275675,924,-1.3525391,0.98114014,-0.6309204
1601134275675,925,-1.284668,0.6586304,-0.59088135
1601134275675,926,-0.26879883,0.5463257,-0.32476807
1601134275675,927,-0.57910156,0.20501709,-0.5911255
1601134275675,928,-1.3525391,0.98114014,-0.6309204
1601134275675,929,-0.46875,0.049743652,-0.26885986
1601134275675,930,-2.0,0.9118042,-0.18829346
1601134275675,931,-1.3525391,0.98114014,-0.6309204
1601134275675,932,-2.0,0.9118042,-0.18829346
1601134275675,933,-2.0,1.999939,1.236023
1601134275679,934,-1.284668,0.6586304,-0.59088135
1601134275679,935,-1.284668,0.6586304,-0.59088135
1601134275681,936,-0.57910156,0.20501709,-0.5911255
1601134275681,937,-0.26879883,0.5463257,-0.32476807
1601134275681,938,-1.3525391,0.98114014,-0.6309204
1601134275681,939,-1.284668,0.6586304,-0.59088135
1601134275681,940,-0.57910156,0.20501709,-0.5911255
1601134275682,941,-2.0,1.999939,1.236023
1601134275685,942,-1.3525391,0.98114014,-0.6309204
1601134275687,943,-0.57910156,0.20501709,-0.5911255
1601134275687,944,-0.26879883,0.5463257,-0.32476807
1601134275687,945,-2.0,0.9118042,-0.18829346
1601134275687,946,-2.0,0.9118042,-0.18829346
1601134275687,947,-1.3525391,0.98114014,-0.6309204
1601134275687,948,-0.9116211,-0.81988525,0.4393921
1601134275687,949,-2.0,0.9118042,-0.18829346
1601134275687,950,-2.0,1.999939,1.236023
1601134275696,951,-1.284668,0.6586304,-0.59088135
1601134275697,952,-2.0,0.9118042,-0.18829346
1601134275697,953,-1.284668,0.6586304,-0.59088135
1601134275697,954,-0.9116211,-0.81988525,0.4393921
1601134275697,955,-2.0,1.999939,1.236023
1601134275697,956,-0.9116211,-0.81988525,0.4393921
1601134275697,957,-0.8425293,0.45672607,-0.16412354
1601134275697,958,-0.8425293,0.45672607,-0.16412354
1601134275698,959,-0.9116211,-0.81988525,0.4393921
1601134275698,960,-2.0,1.999939,1.236023
1601134275698,961,-0.8425293,0.45672607,-0.16412354
1601134275698,962,-1.3525391,0.98114014,-0.6309204
1601134275698,963,-2.0,0.9118042,-0.18829346
1601134275698,964,-2.0,1.999939,1.236023
1601134275698,965,-1.2009277,0.21966553,-0.425354
1601134275698,966,-0.57910156,0.20501709,-0.5911255
1601134275698,967,-1.2009277,0.21966553,-0.425354
1601134275698,968,-0.8425293,0.45672607,-0.16412354
1601134275698,969,-1.3525391,0.98114014,-0.6309204
1601134275699,970,-0.9116211,-0.81988525,0.4393921
1601134275699,971,-1.2009277,0.21966553,-0.425354
1601134275699,972,-2.0,0.9118042,-0.18829346
1601134275699,973,-0.9116211,-0.81988525,0.4393921
1601134275700,974,-0.76123047,0.31097412,-0.33673096
1601134275700,975,-2.0,1.999939,1.236023
1601134275703,976,-0.8425293,0.45672607,-0.16412354
1601134275703,977,-2.0,0.9118042,-0.18829346
1601134275707,978,-1.2009277,0.21966553,-0.425354
1601134275708,979,-1.2009277,0.21966553,-0.425354
1601134275708,980,-2.0,1.999939,1.236023
1601134275708,981,-0.8425293,0.45672607,-0.16412354
1601134275709,982,-0.8581543,0.44451904,-0.5256958
1601134275709,983,-0.9116211,-0.81988525,0.4393921
1601134275709,984,-1.284668,0.6586304,-0.59088135
1601134275709,985,-0.9116211,-0.81988525,0.4393921
1601134275709,986,-1.3525391,0.98114014,-0.6309204
1601134275709,987,-2.0,1.999939,1.236023
1601134275709,988,-0.76123047,0.31097412,-0.33673096
1601134275710,989,-0.76123047,0.31097412,-0.33673096
1601134275710,990,-0.76123047,0.31097412,-0.33673096
1601134275711,991,-1.2009277,0.21966553,-0.425354
1601134275712,992,-0.8425293,0.45672607,-0.16412354
1601134275712,993,-0.76123047,0.31097412,-0.33673096
1601134275712,994,-2.0,0.9118042,-0.18829346
1601134275712,995,-0.9116211,-0.81988525,0.4393921
1601134275712,996,-0.8425293,0.45672607,-0.16412354
1601134275719,997,-0.8581543,0.44451904,-0.5256958
1601134275719,998,-0.8581543,0.44451904,-0.5256958
1601134275719,999,-0.8581543,0.44451904,-0.5256958
1601134275719,1000,-0.76123047,0.31097412,-0.33673096
1601134275719,1001,-2.0,1.999939,1.236023
1601134275719,1002,-1.2009277,0.21966553,-0.425354
1601134275719,1003,-0.9116211,-0.81988525,0.4393921
1601134275719,1004,-0.8425293,0.45672607,-0.16412354
1601134275719,1005,-0.8581543,0.44451904,-0.5256958
1601134275720,1006,-0.8425293,0.45672607,-0.16412354
1601134275720,1007,-1.2009277,0.21966553,-0.425354
1601134275724,1008,-1.2009277,0.21966553,-0.425354
1601134275724,1009,-0.76123047,0.31097412,-0.33673096
1601134275726,1010,-1.2009277,0.21966553,-0.425354
1601134275726,1011,-0.8581543,0.44451904,-0.5256958
1601134275727,1012,-0.76123047,0.31097412,-0.33673096
1601134275727,1013,-0.8581543,0.44451904,-0.5256958
1601134275727,1014,-0.76123047,0.31097412,-0.33673096
1601134275727,1015,-0.76123047,0.31097412,-0.33673096
1601134275727,1016,-0.8581543,0.44451904,-0.5256958
1601134275727,1017,-0.8581543,0.44451904,-0.5256958
1601134275728,1018,-0.8581543,0.44451904,-0.5256958
1601134277914,1019,-0.9038086,0.61395264,-0.8977661
1601134277922,1020,-0.9038086,0.61395264,-0.8977661
1601134277922,1021,-0.9038086,0.61395264,-0.8977661
1601134277929,1022,-0.9038086,0.61395264,-0.8977661
1601134277929,1023,-0.9038086,0.61395264,-0.8977661
1601134277929,1024,-0.9038086,0.61395264,-0.8977661
1601134277929,1025,-0.9038086,0.61395264,-0.8977661
1601134277930,1026,-0.8508301,0.44744873,-0.8374634
1601134277930,1027,-0.9038086,0.61395264,-0.8977661
1601134277935,1028,-0.7138672,0.38909912,-0.73883057
1601134277935,1029,-0.8508301,0.44744873,-0.8374634
1601134277935,1030,-0.8508301,0.44744873,-0.8374634
1601134277935,1031,-0.9038086,0.61395264,-0.8977661
1601134277935,1032,-0.8508301,0.44744873,-0.8374634
1601134277935,1033,-0.7138672,0.38909912,-0.73883057
1601134277935,1034,-0.8508301,0.44744873,-0.8374634
1601134277936,1035,-0.47875977,0.4701538,-0.45489502
1601134277936,1036,-0.47875977,0.4701538,-0.45489502
1601134277936,1037,-0.8508301,0.44744873,-0.8374634
1601134277936,1038,-0.7138672,0.38909912,-0.73883057
1601134277936,1039,-0.9038086,0.61395264,-0.8977661
1601134277936,1040,-0.8508301,0.44744873,-0.8374634
1601134277937,1041,-0.8508301,0.44744873,-0.8374634
1601134277942,1042,-0.8508301,0.44744873,-0.8374634
1601134277942,1043,-0.7138672,0.38909912,-0.73883057
1601134277943,1044,-0.7138672,0.38909912,-0.73883057
1601134277943,1045,-0.7138672,0.38909912,-0.73883057
1601134277943,1046,-0.47875977,0.4701538,-0.45489502
1601134277943,1047,-0.7138672,0.38909912,-0.73883057
1601134277943,1048,-0.66796875,0.65374756,-0.48638916
1601134277943,1049,-0.7138672,0.38909912,-0.73883057
1601134277943,1050,-0.47875977,0.4701538,-0.45489502
1601134277943,1051,-0.66796875,0.65374756,-0.48638916
1601134277948,1052,-0.66796875,0.65374756,-0.48638916
1601134277949,1053,-0.47875977,0.4701538,-0.45489502
1601134277949,1054,-0.66796875,0.65374756,-0.48638916
1601134277949,1055,-0.7138672,0.38909912,-0.73883057
1601134277949,1056,-0.78027344,0.729187,-0.5093384
1601134277949,1057,-0.8508301,0.44744873,-0.8374634
1601134277949,1058,-0.78027344,0.729187,-0.5093384
1601134277949,1059,-0.47875977,0.4701538,-0.45489502
1601134277949,1060,-0.78027344,0.729187,-0.5093384
1601134277949,1061,-0.47875977,0.4701538,-0.45489502
1601134277949,1062,-0.66796875,0.65374756,-0.48638916
1601134277965,1063,-0.47875977,0.4701538,-0.45489502
1601134277965,1064,-0.5710449,0.72406006,-0.35968018
1601134277965,1065,-0.7138672,0.38909912,-0.73883057
1601134277965,1066,-0.66796875,0.65374756,-0.48638916
1601134277965,1067,-0.47875977,0.4701538,-0.45489502
1601134277965,1068,-0.47875977,0.4701538,-0.45489502
1601134277965,1069,-0.66796875,0.65374756,-0.48638916
1601134277965,1070,-0.66796875,0.65374756,-0.48638916
1601134277965,1071,-0.78027344,0.729187,-0.5093384
1601134277965,1072,-0.78027344,0.729187,-0.5093384
1601134277966,1073,-0.78027344,0.729187,-0.5093384
1601134277966,1074,-0.5710449,0.72406006,-0.35968018
1601134277966,1075,-0.5131836,0.72698975,-0.26446533
1601134277966,1076,-0.5710449,0.72406006,-0.35968018
1601134277966,1077,-0.78027344,0.729187,-0.5093384
1601134277966,1078,-0.66796875,0.65374756,-0.48638916
1601134277966,1079,-0.5131836,0.72698975,-0.26446533
1601134277966,1080,-0.5710449,0.72406006,-0.35968018
1601134277966,1081,-0.78027344,0.729187,-0.5093384
1601134277966,1082,-0.5710449,0.72406006,-0.35968018
1601134277967,1083,-0.66796875,0.65374756,-0.48638916
1601134277967,1084,-0.5710449,0.72406006,-0.35968018
1601134277967,1085,-0.6447754,0.76434326,-0.4241333
1601134277967,1086,-0.5710449,0.72406006,-0.35968018
1601134277967,1087,-0.5131836,0.72698975,-0.26446533
1601134277967,1088,-0.78027344,0.729187,-0.5093384
1601134277967,1089,-0.5710449,0.72406006,-0.35968018
1601134277967,1090,-0.6447754,0.76434326,-0.4241333
1601134277967,1091,-0.5131836,0.72698975,-0.26446533
1601134277968,1092,-0.5131836,0.72698975,-0.26446533
1601134277968,1093,-0.78027344,0.729187,-0.5093384
1601134277968,1094,-0.5131836,0.72698975,-0.26446533
1601134277968,1095,-0.6447754,0.76434326,-0.4241333
1601134277969,1096,-0.6225586,0.7850952,-0.26104736
1601134277971,1097,-0.6225586,0.7850952,-0.26104736
1601134277972,1098,-0.6447754,0.76434326,-0.4241333
1601134277972,1099,-0.5710449,0.72406006,-0.35968018
1601134277978,1100,-0.5131836,0.72698975,-0.26446533
1601134277979,1101,-0.5131836,0.72698975,-0.26446533
1601134277979,1102,-0.5710449,0.72406006,-0.35968018
1601134277979,1103,-0.6447754,0.76434326,-0.4241333
1601134277979,1104,-0.5131836,0.72698975,-0.26446533
1601134277979,1105,-0.6447754,0.76434326,-0.4241333
1601134277979,1106,-0.6225586,0.7850952,-0.26104736
1601134277979,1107,-0.30004883,0.61273193,-0.014221191
1601134277980,1108,-0.30004883,0.61273193,-0.014221191
1601134277980,1109,-0.6225586,0.7850952,-0.26104736
1601134277980,1110,-0.6447754,0.76434326,-0.4241333
1601134277980,1111,-0.30004883,0.61273193,-0.014221191
1601134277980,1112,-0.72631836,0.6732788,-0.023742676
1601134277980,1113,-0.6225586,0.7850952,-0.26104736
1601134277980,1114,-0.6447754,0.76434326,-0.4241333
1601134277980,1115,-0.30004883,0.61273193,-0.014221191
1601134277980,1116,-0.6225586,0.7850952,-0.26104736
1601134277981,1117,-0.5131836,0.72698975,-0.26446533
1601134277981,1118,-0.72631836,0.6732788,-0.023742676
1601134277983,1119,-0.6225586,0.7850952,-0.26104736
1601134277988,1120,-1.111084,0.61712646,-0.08648682
1601134277988,1121,-0.30004883,0.61273193,-0.014221191
1601134277988,1122,-0.6225586,0.7850952,-0.26104736
1601134277988,1123,-0.72631836,0.6732788,-0.023742676
1601134277988,1124,-1.1325684,0.093444824,0.038269043
1601134277989,1125,-0.30004883,0.61273193,-0.014221191
1601134277989,1126,-0.6447754,0.76434326,-0.4241333
1601134277989,1127,-0.72631836,0.6732788,-0.023742676
1601134277989,1128,-0.6447754,0.76434326,-0.4241333
1601134277989,1129,-0.30004883,0.61273193,-0.014221191
1601134277990,1130,-0.72631836,0.6732788,-0.023742676
1601134278000,1131,-0.72631836,0.6732788,-0.023742676
1601134278000,1132,-1.111084,0.61712646,-0.08648682
1601134278000,1133,-1.005127,0.15325928,-0.08282471
1601134278000,1134,-1.111084,0.61712646,-0.08648682
1601134278000,1135,-1.111084,0.61712646,-0.08648682
1601134278000,1136,-1.1325684,0.093444824,0.038269043
1601134278001,1137,-0.6225586,0.7850952,-0.26104736
1601134278001,1138,-0.72631836,0.6732788,-0.023742676
1601134278001,1139,-0.30004883,0.61273193,-0.014221191
1601134278001,1140,-1.111084,0.61712646,-0.08648682
1601134278001,1141,-0.30004883,0.61273193,-0.014221191
1601134278001,1142,-0.72631836,0.6732788,-0.023742676
1601134278001,1143,-1.111084,0.61712646,-0.08648682
1601134278001,1144,-1.111084,0.61712646,-0.08648682
1601134278002,1145,-1.1325684,0.093444824,0.038269043
1601134278002,1146,-1.005127,0.15325928,-0.08282471
1601134278002,1147,-1.1325684,0.093444824,0.038269043
1601134278002,1148,-1.005127,0.15325928,-0.08282471
1601134278002,1149,-0.72631836,0.6732788,-0.023742676
1601134278009,1150,-1.111084,0.61712646,-0.08648682
1601134278009,1151,-1.111084,0.61712646,-0.08648682
1601134278009,1152,-1.1325684,0.093444824,0.038269043
1601134278009,1153,-1.1325684,0.093444824,0.038269043
1601134278009,1154,-1.9116211,0.66937256,-0.21099854
1601134278010,1155,-1.1325684,0.093444824,0.038269043
1601134278010,1156,-0.6225586,0.7850952,-0.26104736
1601134278010,1157,-1.9116211,0.66937256,-0.21099854
1601134278010,1158,-1.005127,0.15325928,-0.08282471
1601134278014,1159,-1.9116211,0.66937256,-0.21099854
1601134278015,1160,-1.005127,0.15325928,-0.08282471
1601134278015,1161,-1.1325684,0.093444824,0.038269043
1601134278015,1162,-1.9116211,0.66937256,-0.21099854
1601134278015,1163,-1.005127,0.15325928,-0.08282471
1601134278015,1164,-1.4316406,0.1671753,-0.16119385
1601134278016,1165,-1.4316406,0.1671753,-0.16119385
1601134278016,1166,-0.30004883,0.61273193,-0.014221191
1601134278016,1167,-1.9116211,0.66937256,-0.21099854
1601134278016,1168,-1.005127,0.15325928,-0.08282471
1601134278016,1169,-0.77368164,0.2838745,-0.11138916
1601134278026,1170,-1.1325684,0.093444824,0.038269043
1601134278026,1171,-1.4316406,0.1671753,-0.16119385
1601134278026,1172,-1.005127,0.15325928,-0.08282471
1601134278026,1173,-1.9116211,0.66937256,-0.21099854
1601134278026,1174,-0.77368164,0.2838745,-0.11138916
1601134278026,1175,-1.9116211,0.66937256,-0.21099854
1601134278026,1176,-1.4316406,0.1671753,-0.16119385
1601134278026,1177,-0.72631836,0.6732788,-0.023742676
1601134278027,1178,-0.67407227,0.35760498,-0.41558838
1601134278027,1179,-1.4316406,0.1671753,-0.16119385
1601134278027,1180,-1.9116211,0.66937256,-0.21099854
1601134278027,1181,-0.77368164,0.2838745,-0.11138916
1601134278027,1182,-1.2751465,0.23480225,-0.65948486
1601134278027,1183,-1.4316406,0.1671753,-0.16119385
1601134278027,1184,-1.0041504,0.4179077,-0.3135376
1601134278036,1185,-0.67407227,0.35760498,-0.41558838
1601134278036,1186,-0.77368164,0.2838745,-0.11138916
1601134278036,1187,-1.2751465,0.23480225,-0.65948486
1601134278037,1188,-1.005127,0.15325928,-0.08282471
1601134278037,1189,-1.0041504,0.4179077,-0.3135376
1601134278037,1190,-0.77368164,0.2838745,-0.11138916
1601134278037,1191,-0.72314453,0.9557495,-0.3587036
1601134278037,1192,-0.67407227,0.35760498,-0.41558838
1601134278037,1193,-0.77368164,0.2838745,-0.11138916
1601134278037,1194,-0.72314453,0.9557495,-0.3587036
1601134278039,1195,-1.111084,0.61712646,-0.08648682
1601134278047,1196,-1.4316406,0.1671753,-0.16119385
1601134278047,1197,-1.9116211,0.66937256,-0.21099854
1601134278049,1198,-0.67407227,0.35760498,-0.41558838
1601134278050,1199,-0.77368164,0.2838745,-0.11138916
1601134278050,1200,-0.7861328,1.0861206,0.42010498
1601134278051,1201,-0.67407227,0.35760498,-0.41558838
1601134278051,1202,-1.2751465,0.23480225,-0.65948486
1601134278051,1203,-0.67407227,0.35760498,-0.41558838
1601134278051,1204,-0.67407227,0.35760498,-0.41558838
1601134278056,1205,-1.1325684,0.093444824,0.038269043
1601134278056,1206,-1.4316406,0.1671753,-0.16119385
1601134278056,1207,-1.2751465,0.23480225,-0.65948486
1601134278056,1208,-1.4316406,0.1671753,-0.16119385
1601134278057,1209,-1.2751465,0.23480225,-0.65948486
1601134278057,1210,-1.0041504,0.4179077,-0.3135376
1601134278057,1211,-1.0041504,0.4179077,-0.3135376
1601134278057,1212,-0.7861328,1.0861206,0.42010498
1601134278057,1213,-0.72314453,0.9557495,-0.3587036
1601134278057,1214,-1.2751465,0.23480225,-0.65948486
1601134278058,1215,-0.77368164,0.2838745,-0.11138916
1601134278059,1216,-0.77368164,0.2838745,-0.11138916
1601134278059,1217,-1.0041504,0.4179077,-0.3135376
1601134278065,1218,-0.72314453,0.9557495,-0.3587036
1601134278065,1219,-0.72314453,0.9557495,-0.3587036
1601134278065,1220,-1.0041504,0.4179077,-0.3135376
1601134278065,1221,-0.7861328,1.0861206,0.42010498
1601134278065,1222,-0.7861328,1.0861206,0.42010498
1601134278065,1223,-1.005127,0.15325928,-0.08282471
1601134278065,1224,-0.87158203,1.2345581,0.5128784
1601134278066,1225,-0.87158203,1.2345581,0.5128784
1601134278066,1226,-1.2751465,0.23480225,-0.65948486
1601134278066,1227,-0.67407227,0.35760498,-0.41558838
1601134278066,1228,-0.7861328,1.0861206,0.42010498
1601134278066,1229,-0.87158203,1.2345581,0.5128784
1601134278070,1230,-0.72314453,0.9557495,-0.3587036
1601134278071,1231,-0.67407227,0.35760498,-0.41558838
1601134278071,1232,-0.17578125,1.3588257,0.0770874
1601134278071,1233,-1.9116211,0.66937256,-0.21099854
1601134278071,1234,-0.17578125,1.3588257,0.0770874
1601134278071,1235,-0.17578125,1.3588257,0.0770874
1601134278071,1236,-1.4316406,0.1671753,-0.16119385
1601134278071,1237,-1.2751465,0.23480225,-0.65948486
1601134278071,1238,-0.87158203,1.2345581,0.5128784
1601134278079,1239,-1.0041504,0.4179077,-0.3135376
1601134278079,1240,-1.0041504,0.4179077,-0.3135376
1601134278079,1241,-0.5202637,1.6974487,-1.1755981
1601134278080,1242,-0.72314453,0.9557495,-0.3587036
1601134278080,1243,-1.2751465,0.23480225,-0.65948486
1601134278080,1244,-0.7861328,1.0861206,0.42010498
1601134278081,1245,-0.767334,1.4266968,-1.1748657
1601134278081,1246,-1.0041504,0.4179077,-0.3135376
1601134278081,1247,-0.17578125,1.3588257,0.0770874
1601134278081,1248,-0.77368164,0.2838745,-0.11138916
1601134278081,1249,-1.2844238,0.3287964,-0.72052
1601134278081,1250,-0.72314453,0.9557495,-0.3587036
1601134278081,1251,-0.87158203,1.2345581,0.5128784
1601134278081,1252,-1.4987793,0.12738037,-0.67315674
1601134278081,1253,-0.5202637,1.6974487,-1.1755981
1601134278081,1254,-0.87158203,1.2345581,0.5128784
1601134278081,1255,-0.7861328,1.0861206,0.42010498
1601134278081,1256,-0.67407227,0.35760498,-0.41558838
1601134278081,1257,-0.5202637,1.6974487,-1.1755981
1601134278085,1258,-1.7277832,0.17303467,0.14129639
1601134278087,1259,-0.17578125,1.3588257,0.0770874
1601134278087,1260,-0.5202637,1.6974487,-1.1755981
1601134278087,1261,-0.767334,1.4266968,-1.1748657
1601134278087,1262,-0.72314453,0.9557495,-0.3587036
1601134278087,1263,-0.17578125,1.3588257,0.0770874
1601134278087,1264,-0.5202637,1.6974487,-1.1755981
1601134278087,1265,-1.2751465,0.23480225,-0.65948486
1601134278087,1266,-0.767334,1.4266968,-1.1748657
1601134278088,1267,-0.7861328,1.0861206,0.42010498
1601134278093,1268,-1.2844238,0.3287964,-0.72052
1601134278094,1269,-0.7861328,1.0861206,0.42010498
1601134278094,1270,-0.767334,1.4266968,-1.1748657
1601134278094,1271,-0.87158203,1.2345581,0.5128784
1601134278095,1272,-1.2844238,0.3287964,-0.72052
1601134278095,1273,-0.17578125,1.3588257,0.0770874
1601134278095,1274,-1.4975586,0.4310913,0.011169434
1601134278095,1275,-0.5202637,1.6974487,-1.1755981
1601134278095,1276,-1.4987793,0.12738037,-0.67315674
1601134278095,1277,-0.87158203,1.2345581,0.5128784
1601134278095,1278,-1.4987793,0.12738037,-0.67315674
1601134278095,1279,-0.767334,1.4266968,-1.1748657
1601134278095,1280,-0.87158203,1.2345581,0.5128784
1601134278096,1281,-1.2844238,0.3287964,-0.72052
1601134278096,1282,-0.767334,1.4266968,-1.1748657
1601134278096,1283,-1.0041504,0.4179077,-0.3135376
1601134278096,1284,-1.2844238,0.3287964,-0.72052
1601134278096,1285,-1.3215332,0.2838745,0.016052246
1601134278097,1286,-1.7277832,0.17303467,0.14129639
1601134278098,1287,-0.17578125,1.3588257,0.0770874
1601134278101,1288,-1.2844238,0.3287964,-0.72052
1601134278101,1289,-0.5202637,1.6974487,-1.1755981
1601134278101,1290,-1.4987793,0.12738037,-0.67315674
1601134278101,1291,-0.17578125,1.3588257,0.0770874
1601134278102,1292,-1.4987793,0.12738037,-0.67315674
1601134278102,1293,-0.5202637,1.6974487,-1.1755981
1601134278102,1294,-0.767334,1.4266968,-1.1748657
1601134278102,1295,-1.4975586,0.4310913,0.011169434
1601134278107,1296,-0.72314453,0.9557495,-0.3587036
1601134278107,1297,-1.7277832,0.17303467,0.14129639
1601134278107,1298,-0.5202637,1.6974487,-1.1755981
1601134278108,1299,-0.7861328,1.0861206,0.42010498
1601134278108,1300,-1.4987793,0.12738037,-0.67315674
1601134278108,1301,-1.7277832,0.17303467,0.14129639
1601134278108,1302,-1.7277832,0.17303467,0.14129639
1601134278108,1303,-1.4975586,0.4310913,0.011169434
1601134278108,1304,-1.3215332,0.2838745,0.016052246
1601134278108,1305,-1.3215332,0.2838745,0.016052246
1601134278109,1306,-1.4975586,0.4310913,0.011169434
1601134278110,1307,-0.767334,1.4266968,-1.1748657
1601134278122,1308,-1.2844238,0.3287964,-0.72052
1601134278123,1309,-1.4975586,0.4310913,0.011169434
1601134278123,1310,-1.4987793,0.12738037,-0.67315674
1601134278123,1311,-1.7277832,0.17303467,0.14129639
1601134278123,1312,-1.7277832,0.17303467,0.14129639
1601134278123,1313,-1.3215332,0.2838745,0.016052246
1601134278124,1314,-1.4975586,0.4310913,0.011169434
1601134278125,1315,-1.2844238,0.3287964,-0.72052
1601134278125,1316,-0.767334,1.4266968,-1.1748657
1601134278125,1317,-1.3215332,0.2838745,0.016052246
1601134278125,1318,-1.4975586,0.4310913,0.011169434
1601134278125,1319,-1.4987793,0.12738037,-0.67315674
1601134278125,1320,-1.3215332,0.2838745,0.016052246
1601134278125,1321,-0.87158203,1.2345581,0.5128784
1601134278125,1322,-1.2844238,0.3287964,-0.72052
1601134278126,1323,-1.4987793,0.12738037,-0.67315674
1601134278126,1324,-1.3215332,0.2838745,0.016052246
1601134278126,1325,-1.7277832,0.17303467,0.14129639
1601134278126,1326,-1.4975586,0.4310913,0.011169434
1601134278126,1327,-0.17578125,1.3588257,0.0770874
1601134278127,1328,-1.7277832,0.17303467,0.14129639
1601134278127,1329,-0.5202637,1.6974487,-1.1755981
1601134278130,1330,-0.767334,1.4266968,-1.1748657
1601134278130,1331,-1.3215332,0.2838745,0.016052246
1601134278130,1332,-1.2844238,0.3287964,-0.72052
1601134278132,1333,-1.4987793,0.12738037,-0.67315674
1601134278133,1334,-1.4975586,0.4310913,0.011169434
1601134278133,1335,-1.7277832,0.17303467,0.14129639
1601134278134,1336,-1.3215332,0.2838745,0.016052246
1601134278134,1337,-1.4975586,0.4310913,0.011169434
1601134278135,1338,-1.3215332,0.2838745,0.016052246
1601134280420,1339,-1.3718262,1.2699585,0.69940186
1601134280420,1340,-0.064697266,1.388855,0.13153076
1601134280432,1341,-1.3718262,1.2699585,0.69940186
1601134280432,1342,-1.3718262,1.2699585,0.69940186
1601134280432,1343,-0.068603516,1.999939,-0.24078369
1601134280435,1344,-1.3718262,1.2699585,0.69940186
1601134280435,1345,-0.064697266,1.388855,0.13153076
1601134280435,1346,-1.3718262,1.2699585,0.69940186
1601134280435,1347,-1.3718262,1.2699585,0.69940186
1601134280435,1348,-0.068603516,1.999939,-0.24078369
1601134280435,1349,-1.3718262,1.2699585,0.69940186
1601134280435,1350,-1.3718262,1.2699585,0.69940186
1601134280436,1351,-1.3718262,1.2699585,0.69940186
1601134280436,1352,-1.3718262,1.2699585,0.69940186
1601134280436,1353,-0.064697266,1.388855,0.13153076
1601134280436,1354,-0.21826172,1.1554565,-0.3369751
1601134280436,1355,-0.064697266,1.388855,0.13153076
1601134280436,1356,-0.064697266,1.388855,0.13153076
1601134280436,1357,-0.58691406,0.4725952,-0.2962036
1601134280436,1358,-0.064697266,1.388855,0.13153076
1601134280436,1359,-0.064697266,1.388855,0.13153076
1601134280436,1360,-0.21826172,1.1554565,-0.3369751
1601134280436,1361,-0.068603516,1.999939,-0.24078369
1601134280436,1362,-0.064697266,1.388855,0.13153076
1601134280436,1363,-0.068603516,1.999939,-0.24078369
1601134280436,1364,-0.21826172,1.1554565,-0.3369751
1601134280438,1365,-0.7277832,0.08416748,-0.3682251
1601134280438,1366,-0.58691406,0.4725952,-0.2962036
1601134280438,1367,-0.068603516,1.999939,-0.24078369
1601134280438,1368,-0.064697266,1.388855,0.13153076
1601134280438,1369,-0.7277832,0.08416748,-0.3682251
1601134280438,1370,-0.21826172,1.1554565,-0.3369751
1601134280438,1371,-0.9682617,0.37860107,-0.866272
1601134280438,1372,-0.064697266,1.388855,0.13153076
1601134280438,1373,-0.068603516,1.999939,-0.24078369
1601134280438,1374,-0.068603516,1.999939,-0.24078369
1601134280438,1375,-0.9682617,0.37860107,-0.866272
1601134280456,1376,-0.58691406,0.4725952,-0.2962036
1601134280460,1377,-0.58691406,0.4725952,-0.2962036
1601134280460,1378,-1.0478516,1.045105,-1.2097778
1601134280460,1379,-0.068603516,1.999939,-0.24078369
1601134280460,1380,-0.068603516,1.999939,-0.24078369
1601134280460,1381,-0.21826172,1.1554565,-0.3369751
1601134280461,1382,-0.068603516,1.999939,-0.24078369
1601134280461,1383,-0.2993164,1.2399292,-1.206604
1601134280461,1384,-0.58691406,0.4725952,-0.2962036
1601134280461,1385,0.0056152344,1.2221069,-0.8743286
1601134280461,1386,-0.7277832,0.08416748,-0.3682251
1601134280461,1387,-1.0478516,1.045105,-1.2097778
1601134280461,1388,-0.32373047,1.5675659,-0.7966919
1601134280461,1389,-0.7277832,0.08416748,-0.3682251
1601134280461,1390,-0.21826172,1.1554565,-0.3369751
1601134280461,1391,-0.21826172,1.1554565,-0.3369751
1601134280461,1392,-0.7277832,0.08416748,-0.3682251
1601134280461,1393,-0.9682617,0.37860107,-0.866272
1601134280461,1394,-0.9682617,0.37860107,-0.866272
1601134280461,1395,-0.2993164,1.2399292,-1.206604
1601134280461,1396,-0.9682617,0.37860107,-0.866272
1601134280461,1397,-0.21826172,1.1554565,-0.3369751
1601134280461,1398,-0.7429199,1.3356323,-1.1299438
1601134280462,1399,-0.58691406,0.4725952,-0.2962036
1601134280462,1400,-0.58691406,0.4725952,-0.2962036
1601134280462,1401,-0.7277832,0.08416748,-0.3682251
1601134280462,1402,-1.0478516,1.045105,-1.2097778
1601134280462,1403,-0.21826172,1.1554565,-0.3369751
1601134280462,1404,-0.21826172,1.1554565,-0.3369751
1601134280462,1405,-0.2993164,1.2399292,-1.206604
1601134280462,1406,-1.0478516,1.045105,-1.2097778
1601134280462,1407,-1.0478516,1.045105,-1.2097778
1601134280462,1408,-0.58691406,0.4725952,-0.2962036
1601134280462,1409,-0.58691406,0.4725952,-0.2962036
1601134280462,1410,0.0056152344,1.2221069,-0.8743286
1601134280462,1411,-0.96533203,1.1911011,-1.3035278
1601134280462,1412,-0.9682617,0.37860107,-0.866272
1601134280462,1413,0.0056152344,1.2221069,-0.8743286
1601134280462,1414,-0.7277832,0.08416748,-0.3682251
1601134280463,1415,-0.7277832,0.08416748,-0.3682251
1601134280463,1416,-0.7277832,0.08416748,-0.3682251
1601134280463,1417,-0.32373047,1.5675659,-0.7966919
1601134280463,1418,-0.2993164,1.2399292,-1.206604
1601134280463,1419,-1.0478516,1.045105,-1.2097778
1601134280464,1420,-0.58691406,0.4725952,-0.2962036
1601134280464,1421,-0.7429199,1.3356323,-1.1299438
1601134280464,1422,-0.32373047,1.5675659,-0.7966919
1601134280464,1423,-0.2993164,1.2399292,-1.206604
1601134280465,1424,-0.9682617,0.37860107,-0.866272
1601134280465,1425,-0.9682617,0.37860107,-0.866272
1601134280466,1426,-0.7277832,0.08416748,-0.3682251
1601134280470,1427,-0.96533203,1.1911011,-1.3035278
1601134280470,1428,-0.7429199,1.3356323,-1.1299438
1601134280471,1429,0.0056152344,1.2221069,-0.8743286
1601134280471,1430,-0.2993164,1.2399292,-1.206604
1601134280471,1431,-0.9682617,0.37860107,-0.866272
1601134280471,1432,-1.0478516,1.045105,-1.2097778
1601134280471,1433,-0.8664551,1.182312,-1.4187622
1601134280471,1434,-1.0478516,1.045105,-1.2097778
1601134280471,1435,-0.9682617,0.37860107,-0.866272
1601134280471,1436,-0.2993164,1.2399292,-1.206604
1601134280472,1437,-0.8664551,1.182312,-1.4187622
1601134280473,1438,-0.32373047,1.5675659,-0.7966919
1601134280495,1439,-1.0478516,1.045105,-1.2097778
1601134280495,1440,0.0056152344,1.2221069,-0.8743286
1601134280495,1441,-0.2993164,1.2399292,-1.206604
1601134280497,1442,-0.2993164,1.2399292,-1.206604
1601134280497,1443,0.0056152344,1.2221069,-0.8743286
1601134280497,1444,-0.96533203,1.1911011,-1.3035278
1601134280498,1445,-2.0,1.0524292,-1.9998169
1601134280498,1446,0.0056152344,1.2221069,-0.8743286
1601134280498,1447,-0.7429199,1.3356323,-1.1299438
1601134280498,1448,-2.0,0.60272217,-1.5115356
1601134280498,1449,-0.32373047,1.5675659,-0.7966919
1601134280498,1450,-0.96533203,1.1911011,-1.3035278
1601134280498,1451,0.0056152344,1.2221069,-0.8743286
1601134280498,1452,-2.0,1.0524292,-1.9998169
1601134280498,1453,0.0056152344,1.2221069,-0.8743286
1601134280498,1454,-0.32373047,1.5675659,-0.7966919
1601134280498,1455,-0.8664551,1.182312,-1.4187622
1601134280498,1456,-0.32373047,1.5675659,-0.7966919
1601134280499,1457,-0.32373047,1.5675659,-0.7966919
1601134280499,1458,-2.0,0.109558105,-0.6265259
1601134280499,1459,-0.7429199,1.3356323,-1.1299438
1601134280499,1460,-0.7429199,1.3356323,-1.1299438
1601134280499,1461,-0.8664551,1.182312,-1.4187622
1601134280499,1462,-2.0,0.60272217,-1.5115356
1601134280499,1463,-1.6071777,0.28997803,-0.2600708
1601134280499,1464,-0.96533203,1.1911011,-1.3035278
1601134280499,1465,-2.0,1.0524292,-1.9998169
1601134280499,1466,-0.7429199,1.3356323,-1.1299438
1601134280499,1467,-0.7429199,1.3356323,-1.1299438
1601134280499,1468,-1.0478516,1.045105,-1.2097778
1601134280499,1469,-0.32373047,1.5675659,-0.7966919
1601134280499,1470,-0.2993164,1.2399292,-1.206604
1601134280499,1471,-0.7429199,1.3356323,-1.1299438
1601134280499,1472,0.0056152344,1.2221069,-0.8743286
1601134280499,1473,-0.96533203,1.1911011,-1.3035278
1601134280499,1474,-0.32373047,1.5675659,-0.7966919
1601134280500,1475,-0.8664551,1.182312,-1.4187622
1601134280500,1476,-0.96533203,1.1911011,-1.3035278
1601134280500,1477,-2.0,0.60272217,-1.5115356
1601134280500,1478,-0.96533203,1.1911011,-1.3035278
1601134280500,1479,-0.96533203,1.1911011,-1.3035278
1601134280500,1480,-0.8664551,1.182312,-1.4187622
1601134280500,1481,-1.8762207,1.1869507,-0.3213501
1601134280500,1482,-0.8664551,1.182312,-1.4187622
1601134280500,1483,-0.8664551,1.182312,-1.4187622
1601134280500,1484,-0.7429199,1.3356323,-1.1299438
1601134280500,1485,-0.8664551,1.182312,-1.4187622
1601134280500,1486,-2.0,1.0524292,-1.9998169
1601134280500,1487,-2.0,1.0524292,-1.9998169
1601134280500,1488,-2.0,0.109558105,-0.6265259
1601134280502,1489,-2.0,0.60272217,-1.5115356
1601134280511,1490,-2.0,1.0524292,-1.9998169
1601134280511,1491,-0.96533203,1.1911011,-1.3035278
1601134280511,1492,-2.0,0.109558105,-0.6265259
1601134280511,1493,-2.0,1.0524292,-1.9998169
1601134280511,1494,-2.0,1.0524292,-1.9998169
1601134280511,1495,-1.2946777,1.3622437,-0.75909424
1601134280512,1496,-2.0,0.60272217,-1.5115356
1601134280512,1497,-1.6071777,0.28997803,-0.2600708
1601134280512,1498,-2.0,1.0524292,-1.9998169
1601134280513,1499,-2.0,0.109558105,-0.6265259
1601134280525,1500,-2.0,0.60272217,-1.5115356
1601134280525,1501,-0.8664551,1.182312,-1.4187622
1601134280526,1502,-1.6071777,0.28997803,-0.2600708
1601134280526,1503,-2.0,1.0524292,-1.9998169
1601134280526,1504,-2.0,0.60272217,-1.5115356
1601134280526,1505,-2.0,0.60272217,-1.5115356
1601134280526,1506,-2.0,0.109558105,-0.6265259
1601134280526,1507,-1.8762207,1.1869507,-0.3213501
1601134280526,1508,-1.6071777,0.28997803,-0.2600708
1601134280526,1509,-2.0,0.60272217,-1.5115356
1601134280527,1510,-1.2946777,1.3622437,-0.75909424
1601134280527,1511,-2.0,0.109558105,-0.6265259
1601134280527,1512,-2.0,0.60272217,-1.5115356
1601134280527,1513,-2.0,0.109558105,-0.6265259
1601134280527,1514,-1.8762207,1.1869507,-0.3213501
1601134280527,1515,-1.6071777,0.28997803,-0.2600708
1601134280528,1516,-1.6071777,0.28997803,-0.2600708
1601134280528,1517,-1.6071777,0.28997803,-0.2600708
1601134280528,1518,-1.8762207,1.1869507,-0.3213501
1601134280528,1519,-1.8762207,1.1869507,-0.3213501
1601134280528,1520,-1.8762207,1.1869507,-0.3213501
1601134280528,1521,-0.6176758,1.3146362,-1.1487427
1601134280528,1522,-1.2946777,1.3622437,-0.75909424
1601134280528,1523,-2.0,0.109558105,-0.6265259
1601134280528,1524,-1.8762207,1.1869507,-0.3213501
1601134280537,1525,-1.2946777,1.3622437,-0.75909424
1601134280537,1526,-2.0,0.109558105,-0.6265259
1601134280537,1527,-1.2946777,1.3622437,-0.75909424
1601134280538,1528,-0.6176758,1.3146362,-1.1487427
1601134280538,1529,-0.6176758,1.3146362,-1.1487427
1601134280538,1530,-0.42260742,0.9352417,-0.9348755
1601134280538,1531,-1.6071777,0.28997803,-0.2600708
1601134280538,1532,-0.42260742,0.9352417,-0.9348755
1601134280538,1533,-1.2946777,1.3622437,-0.75909424
1601134280538,1534,-0.1328125,0.6642456,-0.8286743
1601134280538,1535,-0.6176758,1.3146362,-1.1487427
1601134280539,1536,-0.1809082,0.50946045,-0.72052
1601134280540,1537,-2.0,0.109558105,-0.6265259
1601134280540,1538,-0.5727539,0.50115967,-0.6104126
1601134280540,1539,-1.6071777,0.28997803,-0.2600708
1601134280540,1540,-1.2946777,1.3622437,-0.75909424
1601134280540,1541,-0.42260742,0.9352417,-0.9348755
1601134280540,1542,-1.8762207,1.1869507,-0.3213501
1601134280544,1543,-0.6176758,1.3146362,-1.1487427
1601134280544,1544,-1.6071777,0.28997803,-0.2600708
1601134280545,1545,-0.42260742,0.9352417,-0.9348755
1601134280545,1546,-0.42260742,0.9352417,-0.9348755
1601134280545,1547,-1.8762207,1.1869507,-0.3213501
1601134280546,1548,-0.1328125,0.6642456,-0.8286743
1601134280547,1549,-0.39892578,0.4257202,-0.5757446
1601134280547,1550,-0.1328125,0.6642456,-0.8286743
1601134280547,1551,-0.6176758,1.3146362,-1.1487427
1601134280547,1552,-1.2946777,1.3622437,-0.75909424
1601134280560,1553,-0.6176758,1.3146362,-1.1487427
1601134280561,1554,-0.1328125,0.6642456,-0.8286743
1601134280561,1555,-0.1809082,0.50946045,-0.72052
1601134280561,1556,-1.8762207,1.1869507,-0.3213501
1601134280561,1557,-0.1809082,0.50946045,-0.72052
1601134280561,1558,-1.2946777,1.3622437,-0.75909424
1601134280561,1559,-0.083740234,0.6408081,-0.628479
1601134280561,1560,-0.6176758,1.3146362,-1.1487427
1601134280562,1561,-0.1809082,0.50946045,-0.72052
1601134280562,1562,-0.42260742,0.9352417,-0.9348755
1601134280562,1563,-0.42260742,0.9352417,-0.9348755
1601134280562,1564,-0.1328125,0.6642456,-0.8286743
1601134280562,1565,-1.2946777,1.3622437,-0.75909424
1601134280562,1566,-0.1809082,0.50946045,-0.72052
1601134280562,1567,-0.6176758,1.3146362,-1.1487427
1601134280562,1568,-0.5727539,0.50115967,-0.6104126
1601134280562,1569,-0.5727539,0.50115967,-0.6104126
1601134280562,1570,-0.42260742,0.9352417,-0.9348755
1601134280562,1571,-0.07348633,0.7994995,-0.5274048
1601134280562,1572,-0.5727539,0.50115967,-0.6104126
1601134280572,1573,-0.1328125,0.6642456,-0.8286743
1601134280572,1574,-0.1328125,0.6642456,-0.8286743
1601134280573,1575,-0.1809082,0.50946045,-0.72052
1601134280573,1576,-0.5727539,0.50115967,-0.6104126
1601134280573,1577,-0.42260742,0.9352417,-0.9348755
1601134280573,1578,-0.39892578,0.4257202,-0.5757446
1601134280573,1579,-0.39892578,0.4257202,-0.5757446
1601134280573,1580,-0.1328125,0.6642456,-0.8286743
1601134280574,1581,-0.39892578,0.4257202,-0.5757446
1601134280574,1582,-0.1809082,0.50946045,-0.72052
1601134280574,1583,-0.083740234,0.6408081,-0.628479
1601134280574,1584,-0.1809082,0.50946045,-0.72052
1601134280584,1585,-0.5727539,0.50115967,-0.6104126
1601134280584,1586,-0.39892578,0.4257202,-0.5757446
1601134280584,1587,-0.39892578,0.4257202,-0.5757446
1601134280584,1588,-0.083740234,0.6408081,-0.628479
1601134280584,1589,-0.083740234,0.6408081,-0.628479
1601134280584,1590,-0.083740234,0.6408081,-0.628479
1601134280584,1591,-0.083740234,0.6408081,-0.628479
1601134280584,1592,-0.5727539,0.50115967,-0.6104126
1601134280584,1593,-0.5727539,0.50115967,-0.6104126
1601134280586,1594,-0.07348633,0.7994995,-0.5274048
1601134280587,1595,-0.07348633,0.7994995,-0.5274048
1601134280587,1596,-0.1328125,0.6642456,-0.8286743
1601134280587,1597,-0.39892578,0.4257202,-0.5757446
1601134280587,1598,-0.46923828,1.2182007,-0.91412354
1601134280587,1599,-0.07348633,0.7994995,-0.5274048
1601134280587,1600,-0.46923828,1.2182007,-0.91412354
1601134280588,1601,-0.07348633,0.7994995,-0.5274048
1601134280588,1602,-0.46923828,1.2182007,-0.91412354
1601134280588,1603,-0.46923828,1.2182007,-0.91412354
1601134280588,1604,-0.46923828,1.2182007,-0.91412354
1601134280588,1605,-0.6176758,1.3146362,-1.1487427
1601134280588,1606,-0.07348633,0.7994995,-0.5274048
1601134280588,1607,-0.5571289,1.1317749,-0.19293213
1601134280588,1608,-0.5571289,1.1317749,-0.19293213
1601134280588,1609,-0.18945312,0.95355225,-0.43511963
1601134280589,1610,-0.5571289,1.1317749,-0.19293213
1601134280589,1611,-0.083740234,0.6408081,-0.628479
1601134280594,1612,-0.5571289,1.1317749,-0.19293213
1601134280594,1613,-0.1809082,0.50946045,-0.72052
1601134280594,1614,-0.46923828,1.2182007,-0.91412354
1601134280595,1615,-0.42260742,0.9352417,-0.9348755
1601134280595,1616,-0.39892578,0.4257202,-0.5757446
1601134280595,1617,-0.5571289,1.1317749,-0.19293213
1601134280595,1618,-0.2536621,0.6954956,-0.52130127
1601134280595,1619,-0.18945312,0.95355225,-0.43511963
1601134280595,1620,-0.083740234,0.6408081,-0.628479
1601134280595,1621,-0.07348633,0.7994995,-0.5274048
1601134280603,1622,-0.18945312,0.95355225,-0.43511963
1601134280603,1623,-0.18945312,0.95355225,-0.43511963
1601134280603,1624,-0.1328125,0.6642456,-0.8286743
1601134280603,1625,-0.2536621,0.6954956,-0.52130127
1601134280603,1626,-0.18945312,0.95355225,-0.43511963
1601134280603,1627,-0.5727539,0.50115967,-0.6104126
1601134280603,1628,-0.5571289,1.1317749,-0.19293213
1601134280603,1629,-0.2536621,0.6954956,-0.52130127
1601134280604,1630,-0.2536621,0.6954956,-0.52130127
1601134280604,1631,-0.46923828,1.2182007,-0.91412354
1601134280604,1632,-0.2536621,0.6954956,-0.52130127
1601134280604,1633,-0.07348633,0.7994995,-0.5274048
1601134280605,1634,-0.18945312,0.95355225,-0.43511963
1601134280605,1635,-0.39892578,0.4257202,-0.5757446
1601134280605,1636,-0.5571289,1.1317749,-0.19293213
1601134280605,1637,-0.1809082,0.50946045,-0.72052
1601134280608,1638,-0.46923828,1.2182007,-0.91412354
1601134280611,1639,-0.2536621,0.6954956,-0.52130127
1601134280611,1640,-0.083740234,0.6408081,-0.628479
1601134280611,1641,-0.5571289,1.1317749,-0.19293213
1601134280616,1642,-0.5727539,0.50115967,-0.6104126
1601134280617,1643,-0.18945312,0.95355225,-0.43511963
1601134280617,1644,-0.18945312,0.95355225,-0.43511963
1601134280618,1645,-0.07348633,0.7994995,-0.5274048
1601134280618,1646,-0.2536621,0.6954956,-0.52130127
1601134280619,1647,-0.46923828,1.2182007,-0.91412354
1601134280620,1648,-0.39892578,0.4257202,-0.5757446
1601134280620,1649,-0.083740234,0.6408081,-0.628479
1601134280621,1650,-0.5571289,1.1317749,-0.19293213
1601134280621,1651,-0.07348633,0.7994995,-0.5274048
1601134280621,1652,-0.18945312,0.95355225,-0.43511963
1601134280622,1653,-0.46923828,1.2182007,-0.91412354
1601134280623,1654,-0.2536621,0.6954956,-0.52130127
1601134280625,1655,-0.5571289,1.1317749,-0.19293213
1601134280625,1656,-0.2536621,0.6954956,-0.52130127
1601134280625,1657,-0.18945312,0.95355225,-0.43511963
1601134280626,1658,-0.2536621,0.6954956,-0.52130127
1601134283000,1659,-0.41210938,0.5853882,-0.8635864
1601134283000,1660,-0.41210938,0.5853882,-0.8635864
1601134283000,1661,-0.41210938,0.5853882,-0.8635864
1601134283000,1662,-0.41210938,0.5853882,-0.8635864
1601134283000,1663,-0.41210938,0.5853882,-0.8635864
1601134283000,1664,-0.4909668,0.4130249,-0.88531494
1601134283001,1665,-0.41210938,0.5853882,-0.8635864
1601134283001,1666,-0.41210938,0.5853882,-0.8635864
1601134283001,1667,-0.41210938,0.5853882,-0.8635864
1601134283001,1668,-0.4909668,0.4130249,-0.88531494
1601134283001,1669,-0.4909668,0.4130249,-0.88531494
1601134283001,1670,-0.41210938,0.5853882,-0.8635864
1601134283001,1671,-0.4909668,0.4130249,-0.88531494
1601134283001,1672,-0.41210938,0.5853882,-0.8635864
1601134283001,1673,-0.4909668,0.4130249,-0.88531494
1601134283001,1674,-0.6921387,0.6239624,-1.3670044
1601134283001,1675,-0.4909668,0.4130249,-0.88531494
1601134283002,1676,-0.6921387,0.6239624,-1.3670044
1601134283002,1677,-0.6303711,0.45550537,-1.0925903
1601134283002,1678,-0.4909668,0.4130249,-0.88531494
1601134283002,1679,-0.6921387,0.6239624,-1.3670044
1601134283002,1680,-0.6921387,0.6239624,-1.3670044
1601134283002,1681,-0.6921387,0.6239624,-1.3670044
1601134283002,1682,-0.6921387,0.6239624,-1.3670044
1601134283002,1683,-0.53564453,0.37005615,-0.8726196
1601134283002,1684,-0.4909668,0.4130249,-0.88531494
1601134283006,1685,-0.6303711,0.45550537,-1.0925903
1601134283006,1686,-0.6303711,0.45550537,-1.0925903
1601134283006,1687,-0.6303711,0.45550537,-1.0925903
1601134283007,1688,-0.4909668,0.4130249,-0.88531494
1601134283007,1689,-0.53564453,0.37005615,-0.8726196
1601134283007,1690,-0.6303711,0.45550537,-1.0925903
1601134283007,1691,-0.6921387,0.6239624,-1.3670044
1601134283007,1692,-0.5354004,0.3756714,-0.7407837
1601134283007,1693,-0.6921387,0.6239624,-1.3670044
1601134283007,1694,-0.4909668,0.4130249,-0.88531494
1601134283007,1695,-0.53564453,0.37005615,-0.8726196
1601134283007,1696,-0.53564453,0.37005615,-0.8726196
1601134283009,1697,-0.5354004,0.3756714,-0.7407837
1601134283014,1698,-0.53564453,0.37005615,-0.8726196
1601134283014,1699,-0.6303711,0.45550537,-1.0925903
1601134283014,1700,-0.5932617,0.5438843,-0.9463501
1601134283014,1701,-0.6303711,0.45550537,-1.0925903
1601134283015,1702,-0.6921387,0.6239624,-1.3670044
1601134283015,1703,-0.53564453,0.37005615,-0.8726196
1601134283015,1704,-0.6921387,0.6239624,-1.3670044
1601134283015,1705,-0.5354004,0.3756714,-0.7407837
1601134283015,1706,-0.5354004,0.3756714,-0.7407837
1601134283016,1707,-0.5932617,0.5438843,-0.9463501
1601134283026,1708,-0.5354004,0.3756714,-0.7407837
1601134283026,1709,-0.65966797,0.8847046,-0.9487915
1601134283026,1710,-0.53564453,0.37005615,-0.8726196
1601134283026,1711,-0.6303711,0.45550537,-1.0925903
1601134283026,1712,-0.5354004,0.3756714,-0.7407837
1601134283027,1713,-0.6303711,0.45550537,-1.0925903
1601134283027,1714,-0.5932617,0.5438843,-0.9463501
1601134283027,1715,-0.5932617,0.5438843,-0.9463501
1601134283027,1716,-0.65966797,0.8847046,-0.9487915
1601134283027,1717,-0.5932617,0.5438843,-0.9463501
1601134283027,1718,-0.65966797,0.8847046,-0.9487915
1601134283027,1719,-0.6303711,0.45550537,-1.0925903
1601134283027,1720,-0.65966797,0.8847046,-0.9487915
1601134283027,1721,-0.5354004,0.3756714,-0.7407837
1601134283028,1722,-0.4831543,0.40985107,-0.362854
1601134283028,1723,-0.53564453,0.37005615,-0.8726196
1601134283028,1724,-0.5932617,0.5438843,-0.9463501
1601134283028,1725,-0.65966797,0.8847046,-0.9487915
1601134283028,1726,-0.4831543,0.40985107,-0.362854
1601134283046,1727,-0.4831543,0.40985107,-0.362854
1601134283046,1728,-0.53564453,0.37005615,-0.8726196
1601134283046,1729,-0.4543457,0.42889404,-0.019104004
1601134283046,1730,-0.53564453,0.37005615,-0.8726196
1601134283047,1731,-0.5932617,0.5438843,-0.9463501
1601134283047,1732,-0.5354004,0.3756714,-0.7407837
1601134283047,1733,-0.4831543,0.40985107,-0.362854
1601134283047,1734,-0.65966797,0.8847046,-0.9487915
1601134283047,1735,-0.5932617,0.5438843,-0.9463501
1601134283047,1736,-0.4543457,0.42889404,-0.019104004
1601134283047,1737,-0.4831543,0.40985107,-0.362854
1601134283048,1738,-0.4543457,0.42889404,-0.019104004
1601134283048,1739,-0.5354004,0.3756714,-0.7407837
1601134283048,1740,-0.4543457,0.42889404,-0.019104004
1601134283048,1741,-0.5354004,0.3756714,-0.7407837
1601134283049,1742,-0.65966797,0.8847046,-0.9487915
1601134283049,1743,-0.4543457,0.42889404,-0.019104004
1601134283049,1744,-0.4831543,0.40985107,-0.362854
1601134283049,1745,-0.4831543,0.40985107,-0.362854
1601134283049,1746,-0.5932617,0.5438843,-0.9463501
1601134283050,1747,-0.4831543,1.0094604,-0.30621338
1601134283050,1748,-0.4831543,1.0094604,-0.30621338
1601134283050,1749,-0.4831543,1.0094604,-0.30621338
1601134283050,1750,-0.4831543,1.0094604,-0.30621338
1601134283050,1751,-0.50561523,1.1842651,-0.4570923
1601134283051,1752,-0.65966797,0.8847046,-0.9487915
1601134283051,1753,-0.50561523,1.1842651,-0.4570923
1601134283051,1754,-0.4831543,1.0094604,-0.30621338
1601134283051,1755,-0.4831543,0.40985107,-0.362854
1601134283051,1756,-0.4543457,0.42889404,-0.019104004
1601134283051,1757,-0.50561523,1.1842651,-0.4570923
1601134283051,1758,-0.50561523,1.1842651,-0.4570923
1601134283051,1759,-0.5932617,0.5438843,-0.9463501
1601134283052,1760,-0.50561523,1.1842651,-0.4570923
1601134283052,1761,-0.4543457,0.42889404,-0.019104004
1601134283052,1762,-0.38500977,1.5336304,0.13885498
1601134283052,1763,-0.38500977,1.5336304,0.13885498
1601134283052,1764,-0.65966797,0.8847046,-0.9487915
1601134283054,1765,-0.4831543,1.0094604,-0.30621338
1601134283061,1766,-0.38500977,1.5336304,0.13885498
1601134283062,1767,-0.38500977,1.5336304,0.13885498
1601134283062,1768,-0.4831543,1.0094604,-0.30621338
1601134283062,1769,-0.06616211,1.4877319,0.1708374
1601134283062,1770,-0.06616211,1.4877319,0.1708374
1601134283062,1771,-0.06616211,1.4877319,0.1708374
1601134283063,1772,-0.4543457,0.42889404,-0.019104004
1601134283063,1773,-0.50561523,1.1842651,-0.4570923
1601134283063,1774,-0.4831543,0.40985107,-0.362854
1601134283063,1775,-0.3293457,0.70184326,-0.4151001
1601134283063,1776,-0.65966797,0.8847046,-0.9487915
1601134283064,1777,-0.38500977,1.5336304,0.13885498
1601134283064,1778,-0.50561523,1.1842651,-0.4570923
1601134283064,1779,-0.3293457,0.70184326,-0.4151001
1601134283064,1780,-0.3293457,0.70184326,-0.4151001
1601134283064,1781,-0.06616211,1.4877319,0.1708374
1601134283064,1782,-0.4831543,1.0094604,-0.30621338
1601134283064,1783,-0.38500977,1.5336304,0.13885498
1601134283072,1784,-0.4543457,0.42889404,-0.019104004
1601134283072,1785,-0.38500977,1.5336304,0.13885498
1601134283072,1786,-0.4831543,0.40985107,-0.362854
1601134283072,1787,-0.06616211,1.4877319,0.1708374
1601134283072,1788,-0.3293457,0.70184326,-0.4151001
1601134283072,1789,-1.0690918,1.1596069,-0.9902954
1601134283072,1790,-0.4831543,1.0094604,-0.30621338
1601134283072,1791,-0.50561523,1.1842651,-0.4570923
1601134283073,1792,-0.50561523,1.1842651,-0.4570923
1601134283073,1793,-0.3293457,0.70184326,-0.4151001
1601134283073,1794,-0.06616211,1.4877319,0.1708374
1601134283073,1795,-0.06616211,1.4877319,0.1708374
1601134283073,1796,-0.38500977,1.5336304,0.13885498
1601134283073,1797,-0.4543457,0.42889404,-0.019104004
1601134283073,1798,-1.0690918,1.1596069,-0.9902954
1601134283073,1799,-0.3293457,0.70184326,-0.4151001
1601134283074,1800,-0.48828125,0.5219116,-0.19781494
1601134283074,1801,-0.38500977,1.5336304,0.13885498
1601134283078,1802,-1.0690918,1.1596069,-0.9902954
1601134283078,1803,-1.0690918,1.1596069,-0.9902954
1601134283079,1804,-1.0690918,1.1596069,-0.9902954
1601134283079,1805,-0.48828125,0.5219116,-0.19781494
1601134283079,1806,-0.48828125,0.5219116,-0.19781494
1601134283079,1807,0.40551758,0.7015991,0.25604248
1601134283079,1808,-0.06616211,1.4877319,0.1708374
1601134283079,1809,-0.48828125,0.5219116,-0.19781494
1601134283079,1810,1.0588379,1.420105,1.0097046
1601134283080,1811,-0.06616211,1.4877319,0.1708374
1601134283092,1812,-0.48828125,0.5219116,-0.19781494
1601134283092,1813,-0.3293457,0.70184326,-0.4151001
1601134283092,1814,-0.4831543,1.0094604,-0.30621338
1601134283092,1815,0.40551758,0.7015991,0.25604248
1601134283092,1816,-1.0690918,1.1596069,-0.9902954
1601134283092,1817,0.40551758,0.7015991,0.25604248
1601134283092,1818,-0.50561523,1.1842651,-0.4570923
1601134283092,1819,-0.3293457,0.70184326,-0.4151001
1601134283092,1820,1.0588379,1.420105,1.0097046
1601134283092,1821,-0.3293457,0.70184326,-0.4151001
1601134283093,1822,-1.0690918,1.1596069,-0.9902954
1601134283093,1823,0.3527832,-0.14605713,1.9203491
1601134283093,1824,-1.0690918,1.1596069,-0.9902954
1601134283093,1825,1.0588379,1.420105,1.0097046
1601134283093,1826,-0.48828125,0.5219116,-0.19781494
1601134283093,1827,0.40551758,0.7015991,0.25604248
1601134283093,1828,0.3527832,-0.14605713,1.9203491
1601134283093,1829,-0.38500977,1.5336304,0.13885498
1601134283093,1830,1.0588379,1.420105,1.0097046
1601134283093,1831,-1.5683594,0.76116943,-0.68463135
1601134283093,1832,0.40551758,0.7015991,0.25604248
1601134283094,1833,-0.48828125,0.5219116,-0.19781494
1601134283094,1834,0.3527832,-0.14605713,1.9203491
1601134283095,1835,0.40551758,0.7015991,0.25604248
1601134283096,1836,-1.0690918,1.1596069,-0.9902954
1601134283097,1837,1.0588379,1.420105,1.0097046
1601134283103,1838,-0.06616211,1.4877319,0.1708374
1601134283105,1839,-0.48828125,0.5219116,-0.19781494
1601134283106,1840,-0.3293457,0.70184326,-0.4151001
1601134283106,1841,0.40551758,0.7015991,0.25604248
1601134283106,1842,-1.0690918,1.1596069,-0.9902954
1601134283106,1843,-1.6481934,1.5690308,-1.4390259
1601134283106,1844,1.0588379,1.420105,1.0097046
1601134283106,1845,1.0588379,1.420105,1.0097046
1601134283106,1846,-0.48828125,0.5219116,-0.19781494
1601134283106,1847,0.3527832,-0.14605713,1.9203491
1601134283106,1848,0.3527832,-0.14605713,1.9203491
1601134283107,1849,-1.5683594,0.76116943,-0.68463135
1601134283107,1850,0.3527832,-0.14605713,1.9203491
1601134283107,1851,0.40551758,0.7015991,0.25604248
1601134283107,1852,0.3527832,-0.14605713,1.9203491
1601134283107,1853,-0.48828125,0.5219116,-0.19781494
1601134283107,1854,-1.5683594,0.76116943,-0.68463135
1601134283116,1855,-1.5683594,0.76116943,-0.68463135
1601134283116,1856,-1.6481934,1.5690308,-1.4390259
1601134283116,1857,-1.6481934,1.5690308,-1.4390259
1601134283116,1858,0.38793945,0.9696655,-0.039367676
1601134283116,1859,-1.5683594,0.76116943,-0.68463135
1601134283116,1860,0.38793945,0.9696655,-0.039367676
1601134283116,1861,1.0588379,1.420105,1.0097046
1601134283116,1862,-1.5683594,0.76116943,-0.68463135
1601134283116,1863,0.40551758,0.7015991,0.25604248
1601134283117,1864,-1.5683594,0.76116943,-0.68463135
1601134283117,1865,0.8959961,1.999939,1.1122437
1601134283134,1866,0.40551758,0.7015991,0.25604248
1601134283135,1867,-1.6481934,1.5690308,-1.4390259
1601134283137,1868,0.8959961,1.999939,1.1122437
1601134283137,1869,-1.6481934,1.5690308,-1.4390259
1601134283137,1870,1.9997559,1.4889526,1.6903687
1601134283137,1871,-1.6481934,1.5690308,-1.4390259
1601134283137,1872,1.9291992,0.8353882,-0.03692627
1601134283137,1873,0.38793945,0.9696655,-0.039367676
1601134283137,1874,0.3527832,-0.14605713,1.9203491
1601134283137,1875,1.0588379,1.420105,1.0097046
1601134283137,1876,0.38793945,0.9696655,-0.039367676
1601134283138,1877,-1.6481934,1.5690308,-1.4390259
1601134283138,1878,1.0588379,1.420105,1.0097046
1601134283138,1879,0.38793945,0.9696655,-0.039367676
1601134283138,1880,1.9997559,1.4889526,1.6903687
1601134283169,1881,-2.0,1.999939,-1.513977
1601134283169,1882,0.38793945,0.9696655,-0.039367676
1601134283169,1883,-1.28125,-0.72540283,0.13226318
1601134283169,1884,0.3527832,-0.14605713,1.9203491
1601134283169,1885,0.8959961,1.999939,1.1122437
1601134283169,1886,-0.31958008,-0.39093018,-0.25250244
1601134283170,1887,0.38793945,0.9696655,-0.039367676
1601134283170,1888,0.8959961,1.999939,1.1122437
1601134283170,1889,1.9997559,1.4889526,1.6903687
1601134283170,1890,-0.12695312,1.5922241,-0.14654541
1601134283170,1891,1.9291992,0.8353882,-0.03692627
1601134283170,1892,1.9997559,1.4889526,1.6903687
1601134283170,1893,0.8959961,1.999939,1.1122437
1601134283170,1894,1.9291992,0.8353882,-0.03692627
1601134283171,1895,0.8959961,1.999939,1.1122437
1601134283173,1896,0.8959961,1.999939,1.1122437
1601134283173,1897,0.3527832,-0.14605713,1.9203491
1601134283174,1898,1.9997559,1.4889526,1.6903687
1601134283174,1899,-1.5683594,0.76116943,-0.68463135
1601134283174,1900,1.9291992,0.8353882,-0.03692627
1601134283174,1901,-1.6481934,1.5690308,-1.4390259
1601134283174,1902,-2.0,1.999939,-1.513977
1601134283174,1903,1.9997559,1.4889526,1.6903687
1601134283175,1904,0.15112305,1.999939,-0.41314697
1601134283175,1905,-2.0,1.999939,-1.513977
1601134283175,1906,1.9291992,0.8353882,-0.03692627
1601134283175,1907,-0.2709961,1.6056519,-0.47418213
1601134283175,1908,-1.28125,-0.72540283,0.13226318
1601134283175,1909,-1.5683594,0.76116943,-0.68463135
1601134283176,1910,1.9997559,1.4889526,1.6903687
1601134283176,1911,-2.0,1.999939,-1.513977
1601134283176,1912,-1.6481934,1.5690308,-1.4390259
1601134283176,1913,1.9291992,0.8353882,-0.03692627
1601134283176,1914,0.38793945,0.9696655,-0.039367676
1601134283176,1915,-1.28125,-0.72540283,0.13226318
1601134283176,1916,-2.0,1.999939,-1.513977
1601134283176,1917,-1.5683594,0.76116943,-0.68463135
1601134283176,1918,-1.28125,-0.72540283,0.13226318
1601134283176,1919,-0.31958008,-0.39093018,-0.25250244
1601134283176,1920,1.9291992,0.8353882,-0.03692627
1601134283176,1921,0.38793945,0.9696655,-0.039367676
1601134283176,1922,-2.0,1.999939,-1.513977
1601134283177,1923,0.8959961,1.999939,1.1122437
1601134283177,1924,-0.31958008,-0.39093018,-0.25250244
1601134283177,1925,1.9997559,1.4889526,1.6903687
1601134283177,1926,-1.6481934,1.5690308,-1.4390259
1601134283177,1927,-0.12695312,1.5922241,-0.14654541
1601134283177,1928,1.9291992,0.8353882,-0.03692627
1601134283177,1929,-0.31958008,-0.39093018,-0.25250244
1601134283177,1930,-2.0,1.999939,-1.513977
1601134283177,1931,-0.12695312,1.5922241,-0.14654541
1601134283178,1932,-2.0,1.999939,-1.513977
1601134283178,1933,-1.28125,-0.72540283,0.13226318
1601134283178,1934,-0.12695312,1.5922241,-0.14654541
1601134283178,1935,0.8959961,1.999939,1.1122437
1601134283178,1936,0.15112305,1.999939,-0.41314697
1601134283178,1937,-1.28125,-0.72540283,0.13226318
1601134283178,1938,0.15112305,1.999939,-0.41314697
1601134283178,1939,-0.2709961,1.6056519,-0.47418213
1601134283181,1940,0.38793945,0.9696655,-0.039367676
1601134283181,1941,-1.28125,-0.72540283,0.13226318
1601134283182,1942,-1.28125,-0.72540283,0.13226318
1601134283182,1943,0.8959961,1.999939,1.1122437
1601134283182,1944,-0.31958008,-0.39093018,-0.25250244
1601134283182,1945,-0.31958008,-0.39093018,-0.25250244
1601134283182,1946,-0.2709961,1.6056519,-0.47418213
1601134283182,1947,-0.12695312,1.5922241,-0.14654541
1601134283182,1948,-0.31958008,-0.39093018,-0.25250244
1601134283182,1949,1.9997559,1.4889526,1.6903687
1601134283183,1950,-0.12695312,1.5922241,-0.14654541
1601134283183,1951,0.15112305,1.999939,-0.41314697
1601134283183,1952,-0.31958008,-0.39093018,-0.25250244
1601134283183,1953,1.9291992,0.8353882,-0.03692627
1601134283183,1954,1.9997559,1.4889526,1.6903687
1601134283183,1955,-0.12695312,1.5922241,-0.14654541
1601134283183,1956,-0.12695312,1.5922241,-0.14654541
1601134283185,1957,-2.0,1.999939,-1.513977
1601134283185,1958,0.15112305,1.999939,-0.41314697
1601134283185,1959,0.15112305,1.999939,-0.41314697
1601134283185,1960,-0.2709961,1.6056519,-0.47418213
1601134283185,1961,1.9291992,0.8353882,-0.03692627
1601134283186,1962,0.15112305,1.999939,-0.41314697
1601134283186,1963,0.15112305,1.999939,-0.41314697
1601134283186,1964,-0.2709961,1.6056519,-0.47418213
1601134283186,1965,-0.2709961,1.6056519,-0.47418213
1601134283186,1966,-0.2709961,1.6056519,-0.47418213
1601134283186,1967,-0.2709961,1.6056519,-0.47418213
1601134283186,1968,-1.28125,-0.72540283,0.13226318
1601134283186,1969,-2.0,1.999939,-1.513977
1601134283187,1970,-0.31958008,-0.39093018,-0.25250244
1601134283187,1971,-0.12695312,1.5922241,-0.14654541
1601134283187,1972,0.15112305,1.999939,-0.41314697
1601134283187,1973,-0.2709961,1.6056519,-0.47418213
1601134283187,1974,-1.28125,-0.72540283,0.13226318
1601134283187,1975,-0.31958008,-0.39093018,-0.25250244
1601134283189,1976,-0.12695312,1.5922241,-0.14654541
1601134283189,1977,0.15112305,1.999939,-0.41314697
1601134283191,1978,-0.2709961,1.6056519,-0.47418213
1601134285531,1979,-0.3046875,0.7262573,-0.22076416
1601134285531,1980,-0.3046875,0.7262573,-0.22076416
1601134285531,1981,-0.3046875,0.7262573,-0.22076416
1601134285531,1982,-0.3046875,0.7262573,-0.22076416
1601134285532,1983,-0.3046875,0.7262573,-0.22076416
1601134285532,1984,0.00390625,1.0944214,-0.32525635
1601134285541,1985,-0.3046875,0.7262573,-0.22076416
1601134285541,1986,0.00390625,1.0944214,-0.32525635
1601134285541,1987,-0.3046875,0.7262573,-0.22076416
1601134285542,1988,0.00390625,1.0944214,-0.32525635
1601134285542,1989,0.00390625,1.0944214,-0.32525635
1601134285542,1990,0.00390625,1.0944214,-0.32525635
1601134285542,1991,-0.3046875,0.7262573,-0.22076416
1601134285543,1992,-0.3046875,0.7262573,-0.22076416
1601134285544,1993,0.00390625,1.0944214,-0.32525635
1601134285546,1994,0.34350586,1.4660034,-0.56866455
1601134285546,1995,0.34350586,1.4660034,-0.56866455
1601134285559,1996,0.34350586,1.4660034,-0.56866455
1601134285559,1997,0.34350586,1.4660034,-0.56866455
1601134285559,1998,0.00390625,1.0944214,-0.32525635
1601134285559,1999,-0.30688477,1.7233276,-1.156311
1601134285559,2000,0.00390625,1.0944214,-0.32525635
1601134285559,2001,-0.41455078,0.64764404,-1.0317993
1601134285560,2002,0.34350586,1.4660034,-0.56866455
1601134285560,2003,0.00390625,1.0944214,-0.32525635
1601134285560,2004,0.34350586,1.4660034,-0.56866455
1601134285560,2005,0.34350586,1.4660034,-0.56866455
1601134285560,2006,-0.30688477,1.7233276,-1.156311
1601134285560,2007,-0.30688477,1.7233276,-1.156311
1601134285560,2008,0.34350586,1.4660034,-0.56866455
1601134285560,2009,-0.3046875,0.7262573,-0.22076416
1601134285560,2010,-0.41455078,0.64764404,-1.0317993
1601134285560,2011,-0.30688477,1.7233276,-1.156311
1601134285560,2012,-0.41455078,0.64764404,-1.0317993
1601134285561,2013,0.34350586,1.4660034,-0.56866455
1601134285562,2014,-0.30688477,1.7233276,-1.156311
1601134285562,2015,0.00390625,1.0944214,-0.32525635
1601134285562,2016,-0.30688477,1.7233276,-1.156311
1601134285562,2017,-0.22460938,-0.07281494,-0.26226807
1601134285562,2018,-0.22460938,-0.07281494,-0.26226807
1601134285562,2019,-0.22460938,-0.07281494,-0.26226807
1601134285562,2020,-0.41455078,0.64764404,-1.0317993
1601134285562,2021,-0.30688477,1.7233276,-1.156311
1601134285562,2022,0.16137695,0.07733154,1.1317749
1601134285562,2023,-0.30688477,1.7233276,-1.156311
1601134285564,2024,-0.41455078,0.64764404,-1.0317993
1601134285564,2025,-0.30688477,1.7233276,-1.156311
1601134285565,2026,0.16137695,0.07733154,1.1317749
1601134285573,2027,0.34350586,1.4660034,-0.56866455
1601134285574,2028,-0.41455078,0.64764404,-1.0317993
1601134285574,2029,-0.41455078,0.64764404,-1.0317993
1601134285575,2030,-0.22460938,-0.07281494,-0.26226807
1601134285575,2031,-0.22460938,-0.07281494,-0.26226807
1601134285575,2032,0.8288574,0.80145264,0.72698975
1601134285575,2033,0.16137695,0.07733154,1.1317749
1601134285575,2034,-0.22460938,-0.07281494,-0.26226807
1601134285575,2035,0.8288574,0.80145264,0.72698975
1601134285575,2036,-0.41455078,0.64764404,-1.0317993
1601134285575,2037,-0.30688477,1.7233276,-1.156311
1601134285580,2038,0.16137695,0.07733154,1.1317749
1601134285580,2039,-0.41455078,0.64764404,-1.0317993
1601134285580,2040,-0.41455078,0.64764404,-1.0317993
1601134285580,2041,0.8288574,0.80145264,0.72698975
1601134285581,2042,-0.22460938,-0.07281494,-0.26226807
1601134285581,2043,0.16137695,0.07733154,1.1317749
1601134285581,2044,0.0546875,1.5109253,-0.52545166
1601134285581,2045,0.8288574,0.80145264,0.72698975
1601134285581,2046,-0.22460938,-0.07281494,-0.26226807
1601134285581,2047,-0.22460938,-0.07281494,-0.26226807
1601134285581,2048,-0.2319336,1.0160522,-0.9343872
1601134285581,2049,0.0546875,1.5109253,-0.52545166
1601134285581,2050,0.8288574,0.80145264,0.72698975
1601134285581,2051,0.16137695,0.07733154,1.1317749
1601134285583,2052,0.0546875,1.5109253,-0.52545166
1601134285584,2053,0.16137695,0.07733154,1.1317749
1601134285585,2054,-0.2319336,1.0160522,-0.9343872
1601134285585,2055,0.0546875,1.5109253,-0.52545166
1601134285593,2056,0.16137695,0.07733154,1.1317749
1601134285593,2057,0.8288574,0.80145264,0.72698975
1601134285593,2058,0.8288574,0.80145264,0.72698975
1601134285593,2059,-0.22460938,-0.07281494,-0.26226807
1601134285595,2060,0.26098633,0.230896,-0.22662354
1601134285595,2061,-0.2319336,1.0160522,-0.9343872
1601134285596,2062,0.0546875,1.5109253,-0.52545166
1601134285596,2063,0.16137695,0.07733154,1.1317749
1601134285596,2064,0.26098633,0.230896,-0.22662354
1601134285596,2065,-0.2319336,1.0160522,-0.9343872
1601134285596,2066,-0.2319336,1.0160522,-0.9343872
1601134285596,2067,0.16137695,0.07733154,1.1317749
1601134285596,2068,0.0546875,1.5109253,-0.52545166
1601134285596,2069,0.0546875,1.5109253,-0.52545166
1601134285596,2070,0.43554688,0.72283936,0.36224365
1601134285596,2071,0.8288574,0.80145264,0.72698975
1601134285597,2072,0.8288574,0.80145264,0.72698975
1601134285597,2073,0.26098633,0.230896,-0.22662354
1601134285597,2074,0.26098633,0.230896,-0.22662354
1601134285607,2075,-0.2319336,1.0160522,-0.9343872
1601134285607,2076,0.8288574,0.80145264,0.72698975
1601134285607,2077,-0.2319336,1.0160522,-0.9343872
1601134285607,2078,0.0546875,1.5109253,-0.52545166
1601134285607,2079,0.0546875,1.5109253,-0.52545166
1601134285608,2080,0.26098633,0.230896,-0.22662354
1601134285608,2081,0.43554688,0.72283936,0.36224365
1601134285608,2082,0.26098633,0.230896,-0.22662354
1601134285608,2083,0.43554688,0.72283936,0.36224365
1601134285608,2084,0.012207031,1.999939,0.07489014
1601134285609,2085,0.43554688,0.72283936,0.36224365
1601134285609,2086,0.26098633,0.230896,-0.22662354
1601134285609,2087,0.0546875,1.5109253,-0.52545166
1601134285609,2088,0.012207031,1.999939,0.07489014
1601134285609,2089,-0.2319336,1.0160522,-0.9343872
1601134285609,2090,-0.2319336,1.0160522,-0.9343872
1601134285609,2091,0.21069336,1.4054565,0.8226929
1601134285616,2092,0.43554688,0.72283936,0.36224365
1601134285616,2093,0.012207031,1.999939,0.07489014
1601134285616,2094,0.012207031,1.999939,0.07489014
1601134285617,2095,0.21069336,1.4054565,0.8226929
1601134285617,2096,0.43554688,0.72283936,0.36224365
1601134285617,2097,0.26098633,0.230896,-0.22662354
1601134285617,2098,0.26098633,0.230896,-0.22662354
1601134285617,2099,-0.2319336,1.0160522,-0.9343872
1601134285617,2100,0.43554688,0.72283936,0.36224365
1601134285617,2101,0.012207031,1.999939,0.07489014
1601134285618,2102,0.012207031,1.999939,0.07489014
1601134285618,2103,0.43554688,0.72283936,0.36224365
1601134285619,2104,0.21069336,1.4054565,0.8226929
1601134285620,2105,0.36083984,0.31976318,0.43719482
1601134285620,2106,0.36083984,0.31976318,0.43719482
1601134285621,2107,0.21069336,1.4054565,0.8226929
1601134285621,2108,0.012207031,1.999939,0.07489014
1601134285622,2109,0.21069336,1.4054565,0.8226929
1601134285632,2110,0.36083984,0.31976318,0.43719482
1601134285632,2111,0.36083984,0.31976318,0.43719482
1601134285633,2112,0.43554688,0.72283936,0.36224365
1601134285633,2113,-1.5126953,1.447937,-1.5737915
1601134285633,2114,0.012207031,1.999939,0.07489014
1601134285633,2115,-1.5126953,1.447937,-1.5737915
1601134285633,2116,0.36083984,0.31976318,0.43719482
1601134285633,2117,0.26098633,0.230896,-0.22662354
1601134285633,2118,0.21069336,1.4054565,0.8226929
1601134285634,2119,0.012207031,1.999939,0.07489014
1601134285634,2120,0.21069336,1.4054565,0.8226929
1601134285635,2121,-1.5126953,1.447937,-1.5737915
1601134285635,2122,-1.5126953,1.447937,-1.5737915
1601134285635,2123,-1.1025391,0.5350952,-0.73321533
1601134285635,2124,-1.1025391,0.5350952,-0.73321533
1601134285635,2125,0.36083984,0.31976318,0.43719482
1601134285635,2126,0.21069336,1.4054565,0.8226929
1601134285635,2127,0.43554688,0.72283936,0.36224365
1601134285643,2128,0.21069336,1.4054565,0.8226929
1601134285643,2129,-1.1025391,0.5350952,-0.73321533
1601134285645,2130,-1.1025391,0.5350952,-0.73321533
1601134285646,2131,0.46362305,0.89227295,0.08856201
1601134285646,2132,0.46362305,0.89227295,0.08856201
1601134285646,2133,0.46362305,0.89227295,0.08856201
1601134285646,2134,0.36083984,0.31976318,0.43719482
1601134285646,2135,0.55444336,1.4164429,0.8187866
1601134285646,2136,-1.5126953,1.447937,-1.5737915
1601134285646,2137,0.012207031,1.999939,0.07489014
1601134285650,2138,0.36083984,0.31976318,0.43719482
1601134285651,2139,0.46362305,0.89227295,0.08856201
1601134285651,2140,-1.5126953,1.447937,-1.5737915
1601134285651,2141,0.55444336,1.4164429,0.8187866
1601134285651,2142,-1.1025391,0.5350952,-0.73321533
1601134285651,2143,0.36083984,0.31976318,0.43719482
1601134285651,2144,0.55444336,1.4164429,0.8187866
1601134285651,2145,0.111083984,0.72161865,0.6298218
1601134285651,2146,0.46362305,0.89227295,0.08856201
1601134285651,2147,0.21069336,1.4054565,0.8226929
1601134285667,2148,-1.5126953,1.447937,-1.5737915
1601134285667,2149,-1.1025391,0.5350952,-0.73321533
1601134285667,2150,0.111083984,0.72161865,0.6298218
1601134285667,2151,0.46362305,0.89227295,0.08856201
1601134285667,2152,0.6081543,1.1605835,0.17694092
1601134285668,2153,0.62231445,1.999939,-1.3560181
1601134285668,2154,0.6081543,1.1605835,0.17694092
1601134285668,2155,0.111083984,0.72161865,0.6298218
1601134285668,2156,-1.1025391,0.5350952,-0.73321533
1601134285668,2157,0.55444336,1.4164429,0.8187866
1601134285668,2158,0.62231445,1.999939,-1.3560181
1601134285668,2159,0.6081543,1.1605835,0.17694092
1601134285668,2160,-1.5126953,1.447937,-1.5737915
1601134285669,2161,-1.5126953,1.447937,-1.5737915
1601134285669,2162,0.55444336,1.4164429,0.8187866
1601134285669,2163,-1.1025391,0.5350952,-0.73321533
1601134285669,2164,0.36083984,0.31976318,0.43719482
1601134285670,2165,0.46362305,0.89227295,0.08856201
1601134285670,2166,0.111083984,0.72161865,0.6298218
1601134285671,2167,0.55444336,1.4164429,0.8187866
1601134285671,2168,0.111083984,0.72161865,0.6298218
1601134285671,2169,0.62231445,1.999939,-1.3560181
1601134285671,2170,0.111083984,0.72161865,0.6298218
1601134285671,2171,-1.1025391,0.5350952,-0.73321533
1601134285671,2172,-0.38256836,1.420105,-1.1231079
1601134285671,2173,0.46362305,0.89227295,0.08856201
1601134285671,2174,0.6081543,1.1605835,0.17694092
1601134285671,2175,-1.5126953,1.447937,-1.5737915
1601134285671,2176,0.55444336,1.4164429,0.8187866
1601134285671,2177,-1.1025391,0.5350952,-0.73321533
1601134285672,2178,0.111083984,0.72161865,0.6298218
1601134285672,2179,0.46362305,0.89227295,0.08856201
1601134285672,2180,0.46362305,0.89227295,0.08856201
1601134285683,2181,0.6081543,1.1605835,0.17694092
1601134285683,2182,-1.1796875,0.4545288,0.20184326
1601134285683,2183,0.55444336,1.4164429,0.8187866
1601134285683,2184,0.62231445,1.999939,-1.3560181
1601134285683,2185,0.6081543,1.1605835,0.17694092
1601134285683,2186,-0.38256836,1.420105,-1.1231079
1601134285683,2187,0.62231445,1.999939,-1.3560181
1601134285683,2188,-0.890625,0.36932373,0.27630615
1601134285685,2189,0.62231445,1.999939,-1.3560181
1601134285685,2190,-1.1796875,0.4545288,0.20184326
1601134285685,2191,-0.2890625,0.6071167,0.06341553
1601134285685,2192,0.6081543,1.1605835,0.17694092
1601134285685,2193,-0.025634766,1.6244507,-0.15509033
1601134285685,2194,0.62231445,1.999939,-1.3560181
1601134285685,2195,0.55444336,1.4164429,0.8187866
1601134285685,2196,0.55444336,1.4164429,0.8187866
1601134285685,2197,0.111083984,0.72161865,0.6298218
1601134285686,2198,-0.38256836,1.420105,-1.1231079
1601134285686,2199,-0.38256836,1.420105,-1.1231079
1601134285686,2200,-0.890625,0.36932373,0.27630615
1601134285686,2201,-1.1796875,0.4545288,0.20184326
1601134285686,2202,0.28295898,1.6608276,-0.21685791
1601134285686,2203,-0.2890625,0.6071167,0.06341553
1601134285686,2204,-0.38256836,1.420105,-1.1231079
1601134285686,2205,0.28222656,1.0702515,-0.15899658
1601134285691,2206,0.6081543,1.1605835,0.17694092
1601134285691,2207,0.111083984,0.72161865,0.6298218
1601134285692,2208,-1.1796875,0.4545288,0.20184326
1601134285692,2209,-0.38256836,1.420105,-1.1231079
1601134285692,2210,0.6081543,1.1605835,0.17694092
1601134285692,2211,-0.890625,0.36932373,0.27630615
1601134285692,2212,-0.025634766,1.6244507,-0.15509033
1601134285692,2213,0.111083984,0.72161865,0.6298218
1601134285692,2214,0.27026367,0.8942261,-0.31671143
1601134285693,2215,-1.1796875,0.4545288,0.20184326
1601134285693,2216,0.62231445,1.999939,-1.3560181
1601134285699,2217,-0.38256836,1.420105,-1.1231079
1601134285700,2218,0.62231445,1.999939,-1.3560181
1601134285700,2219,-0.890625,0.36932373,0.27630615
1601134285700,2220,-0.2890625,0.6071167,0.06341553
1601134285700,2221,0.16601562,0.9984741,-0.6008911
1601134285701,2222,-0.2890625,0.6071167,0.06341553
1601134285701,2223,-0.890625,0.36932373,0.27630615
1601134285701,2224,-0.025634766,1.6244507,-0.15509033
1601134285701,2225,0.17553711,0.82684326,-0.59454346
1601134285701,2226,-1.1796875,0.4545288,0.20184326
1601134285701,2227,-0.2890625,0.6071167,0.06341553
1601134285702,2228,-0.38256836,1.420105,-1.1231079
1601134285702,2229,-0.38256836,1.420105,-1.1231079
1601134285702,2230,0.6081543,1.1605835,0.17694092
1601134285702,2231,-0.025634766,1.6244507,-0.15509033
1601134285702,2232,0.28295898,1.6608276,-0.21685791
1601134285702,2233,-1.1796875,0.4545288,0.20184326
1601134285704,2234,0.28295898,1.6608276,-0.21685791
1601134285705,2235,-0.025634766,1.6244507,-0.15509033
1601134285705,2236,-0.890625,0.36932373,0.27630615
1601134285710,2237,0.62231445,1.999939,-1.3560181
1601134285710,2238,0.28295898,1.6608276,-0.21685791
1601134285710,2239,0.28222656,1.0702515,-0.15899658
1601134285712,2240,-0.890625,0.36932373,0.27630615
1601134285712,2241,-0.38256836,1.420105,-1.1231079
1601134285713,2242,-0.2890625,0.6071167,0.06341553
1601134285713,2243,0.28295898,1.6608276,-0.21685791
1601134285713,2244,-1.1796875,0.4545288,0.20184326
1601134285713,2245,-0.2890625,0.6071167,0.06341553
1601134285714,2246,0.27026367,0.8942261,-0.31671143
1601134285721,2247,0.28222656,1.0702515,-0.15899658
1601134285721,2248,0.28222656,1.0702515,-0.15899658
1601134285722,2249,0.16601562,0.9984741,-0.6008911
1601134285722,2250,0.27026367,0.8942261,-0.31671143
1601134285722,2251,0.28222656,1.0702515,-0.15899658
1601134285722,2252,0.16601562,0.9984741,-0.6008911
1601134285723,2253,-0.025634766,1.6244507,-0.15509033
1601134285723,2254,-1.1796875,0.4545288,0.20184326
1601134285723,2255,-0.025634766,1.6244507,-0.15509033
1601134285724,2256,-1.1796875,0.4545288,0.20184326
1601134285731,2257,0.17553711,0.82684326,-0.59454346
1601134285731,2258,-0.890625,0.36932373,0.27630615
1601134285731,2259,0.17553711,0.82684326,-0.59454346
1601134285732,2260,-0.890625,0.36932373,0.27630615
1601134285732,2261,-0.890625,0.36932373,0.27630615
1601134285732,2262,0.28295898,1.6608276,-0.21685791
1601134285732,2263,0.27026367,0.8942261,-0.31671143
1601134285732,2264,-0.2890625,0.6071167,0.06341553
1601134285732,2265,0.16601562,0.9984741,-0.6008911
1601134285733,2266,0.27026367,0.8942261,-0.31671143
1601134285733,2267,0.28295898,1.6608276,-0.21685791
1601134285733,2268,-0.025634766,1.6244507,-0.15509033
1601134285734,2269,0.28222656,1.0702515,-0.15899658
1601134285734,2270,-0.2890625,0.6071167,0.06341553
1601134285735,2271,0.28222656,1.0702515,-0.15899658
1601134285736,2272,0.17553711,0.82684326,-0.59454346
1601134285736,2273,0.27026367,0.8942261,-0.31671143
1601134285745,2274,0.28295898,1.6608276,-0.21685791
1601134285745,2275,-0.025634766,1.6244507,-0.15509033
1601134285745,2276,0.27026367,0.8942261,-0.31671143
1601134285745,2277,0.28295898,1.6608276,-0.21685791
1601134285745,2278,0.28222656,1.0702515,-0.15899658
1601134285745,2279,0.16601562,0.9984741,-0.6008911
1601134285746,2280,0.27026367,0.8942261,-0.31671143
1601134285746,2281,0.16601562,0.9984741,-0.6008911
1601134285746,2282,0.16601562,0.9984741,-0.6008911
1601134285746,2283,0.16601562,0.9984741,-0.6008911
1601134285746,2284,0.28222656,1.0702515,-0.15899658
1601134285746,2285,0.17553711,0.82684326,-0.59454346
1601134285746,2286,0.27026367,0.8942261,-0.31671143
1601134285747,2287,-0.2890625,0.6071167,0.06341553
1601134285752,2288,0.17553711,0.82684326,-0.59454346
1601134285752,2289,0.17553711,0.82684326,-0.59454346
1601134285752,2290,0.16601562,0.9984741,-0.6008911
1601134285752,2291,0.17553711,0.82684326,-0.59454346
1601134285753,2292,-0.025634766,1.6244507,-0.15509033
1601134285756,2293,0.17553711,0.82684326,-0.59454346
1601134285759,2294,0.28295898,1.6608276,-0.21685791
1601134285760,2295,0.28222656,1.0702515,-0.15899658
1601134285761,2296,0.27026367,0.8942261,-0.31671143
1601134285761,2297,0.16601562,0.9984741,-0.6008911
1601134285763,2298,0.17553711,0.82684326,-0.59454346
1601134287873,2299,0.087402344,0.3751831,-0.7168579
1601134287873,2300,0.087402344,0.3751831,-0.7168579
1601134287873,2301,0.087402344,0.3751831,-0.7168579
1601134287874,2302,0.087402344,0.3751831,-0.7168579
1601134287874,2303,-0.09008789,0.71380615,-0.72076416
1601134287874,2304,0.087402344,0.3751831,-0.7168579
1601134287874,2305,0.087402344,0.3751831,-0.7168579
1601134287874,2306,-0.09008789,0.71380615,-0.72076416
1601134287874,2307,-0.09008789,0.71380615,-0.72076416
1601134287877,2308,0.087402344,0.3751831,-0.7168579
1601134287877,2309,0.087402344,0.3751831,-0.7168579
1601134287877,2310,0.087402344,0.3751831,-0.7168579
1601134287878,2311,0.087646484,0.732605,-0.7703247
1601134287878,2312,-0.09008789,0.71380615,-0.72076416
1601134287878,2313,0.087402344,0.3751831,-0.7168579
1601134287879,2314,-0.09008789,0.71380615,-0.72076416
1601134287880,2315,-0.09008789,0.71380615,-0.72076416
1601134287880,2316,0.087646484,0.732605,-0.7703247
1601134287880,2317,-0.09008789,0.71380615,-0.72076416
1601134287880,2318,-0.09008789,0.71380615,-0.72076416
1601134287880,2319,0.087646484,0.732605,-0.7703247
1601134287881,2320,0.0625,1.6517944,-0.14581299
1601134287888,2321,-0.09008789,0.71380615,-0.72076416
1601134287888,2322,0.0625,1.6517944,-0.14581299
1601134287889,2323,0.087646484,0.732605,-0.7703247
1601134287889,2324,-0.09008789,0.71380615,-0.72076416
1601134287889,2325,0.0625,1.6517944,-0.14581299
1601134287889,2326,0.087646484,0.732605,-0.7703247
1601134287889,2327,0.0625,1.6517944,-0.14581299
1601134287890,2328,0.0625,1.6517944,-0.14581299
