# Sensor position: Chest
# Sensor side: Right
# Activity type: Movement
# Activity code: 9
# Subject id: s1735229
timestamp,seq,accel_x,accel_y,accel_z
1601136986426,0,-0.014160156,-0.92559814,0.054138184
1601136986430,1,-0.014160156,-0.92559814,0.054138184
1601136986430,2,-0.050048828,-1.0059204,0.26116943
1601136986431,3,-0.014160156,-0.92559814,0.054138184
1601136986434,4,0.09277344,-0.92926025,0.199646
1601136986434,5,-0.050048828,-1.0059204,0.26116943
1601136986434,6,-0.050048828,-1.0059204,0.26116943
1601136986450,7,0.031982422,-0.9927368,0.21136475
1601136986450,8,-0.014160156,-0.92559814,0.054138184
1601136986451,9,-0.014160156,-0.92559814,0.054138184
1601136986451,10,-0.014160156,-0.92559814,0.054138184
1601136986451,11,-0.050048828,-1.0059204,0.26116943
1601136986451,12,0.09277344,-0.92926025,0.199646
1601136986451,13,0.09277344,-0.92926025,0.199646
1601136986453,14,-0.014160156,-0.92559814,0.054138184
1601136986454,15,-0.014160156,-0.92559814,0.054138184
1601136986454,16,0.031982422,-0.9927368,0.21136475
1601136986454,17,-0.050048828,-1.0059204,0.26116943
1601136986454,18,0.0107421875,-0.96343994,0.21722412
1601136986454,19,0.0107421875,-0.96343994,0.21722412
1601136986455,20,-0.014160156,-0.92559814,0.054138184
1601136986455,21,-0.050048828,-1.0059204,0.26116943
1601136986455,22,0.031982422,-0.9927368,0.21136475
1601136986455,23,-0.050048828,-1.0059204,0.26116943
1601136986456,24,0.09277344,-0.92926025,0.199646
1601136986457,25,0.09277344,-0.92926025,0.199646
1601136986457,26,0.0107421875,-0.96343994,0.21722412
1601136986457,27,-0.015625,-1.0081177,0.1852417
1601136986457,28,0.031982422,-0.9927368,0.21136475
1601136986457,29,0.031982422,-0.9927368,0.21136475
1601136986471,30,-0.015625,-1.0081177,0.1852417
1601136986472,31,-0.015625,-1.0081177,0.1852417
1601136986472,32,0.09277344,-0.92926025,0.199646
1601136986472,33,0.02709961,-0.99542236,0.15130615
1601136986472,34,0.031982422,-0.9927368,0.21136475
1601136986472,35,-0.050048828,-1.0059204,0.26116943
1601136986472,36,0.02709961,-0.99542236,0.15130615
1601136986476,37,0.0107421875,-0.96343994,0.21722412
1601136986476,38,0.09277344,-0.92926025,0.199646
1601136986476,39,0.036376953,-0.9939575,0.11248779
1601136986476,40,-0.050048828,-1.0059204,0.26116943
1601136986479,41,0.0107421875,-0.96343994,0.21722412
1601136986480,42,-0.014160156,-0.92559814,0.054138184
1601136986480,43,0.09277344,-0.92926025,0.199646
1601136986480,44,0.02709961,-0.99542236,0.15130615
1601136986480,45,0.0107421875,-0.96343994,0.21722412
1601136986480,46,0.09277344,-0.92926025,0.199646
1601136986480,47,-0.050048828,-1.0059204,0.26116943
1601136986480,48,-0.015625,-1.0081177,0.1852417
1601136986480,49,0.036376953,-0.9939575,0.11248779
1601136986480,50,0.036376953,-0.9939575,0.11248779
1601136986480,51,0.031982422,-0.9927368,0.21136475
1601136986484,52,0.031982422,-0.9927368,0.21136475
1601136986493,53,0.0107421875,-0.96343994,0.21722412
1601136986493,54,0.09277344,-0.92926025,0.199646
1601136986493,55,-0.015625,-1.0081177,0.1852417
1601136986493,56,0.031982422,-0.9927368,0.21136475
1601136986494,57,0.036621094,-1.048645,0.10467529
1601136986494,58,0.036621094,-1.048645,0.10467529
1601136986494,59,0.02709961,-0.99542236,0.15130615
1601136986494,60,0.036621094,-1.048645,0.10467529
1601136986494,61,-0.015625,-1.0081177,0.1852417
1601136986494,62,0.031982422,-0.9927368,0.21136475
1601136986495,63,-0.015625,-1.0081177,0.1852417
1601136986496,64,0.0107421875,-0.96343994,0.21722412
1601136986496,65,0.026123047,-1.0278931,0.054870605
1601136986505,66,0.02709961,-0.99542236,0.15130615
1601136986506,67,0.02709961,-0.99542236,0.15130615
1601136986506,68,0.026123047,-1.0278931,0.054870605
1601136986506,69,0.036376953,-0.9939575,0.11248779
1601136986506,70,0.02709961,-0.99542236,0.15130615
1601136986506,71,-0.015625,-1.0081177,0.1852417
1601136986506,72,0.0107421875,-0.96343994,0.21722412
1601136986506,73,0.0107421875,-0.96343994,0.21722412
1601136986507,74,0.07495117,-1.0244751,0.0053100586
1601136986508,75,0.026123047,-1.0278931,0.054870605
1601136986509,76,0.1340332,-1.003479,-0.038879395
1601136986509,77,0.036376953,-0.9939575,0.11248779
1601136986509,78,0.07495117,-1.0244751,0.0053100586
1601136986509,79,0.02709961,-0.99542236,0.15130615
1601136986510,80,0.036621094,-1.048645,0.10467529
1601136986511,81,0.036376953,-0.9939575,0.11248779
1601136986511,82,0.036621094,-1.048645,0.10467529
1601136986516,83,0.036376953,-0.9939575,0.11248779
1601136986516,84,-0.015625,-1.0081177,0.1852417
1601136986517,85,0.026123047,-1.0278931,0.054870605
1601136986518,86,0.17163086,-0.94317627,-0.08917236
1601136986519,87,0.026123047,-1.0278931,0.054870605
1601136986526,88,0.07495117,-1.0244751,0.0053100586
1601136986526,89,-0.015625,-1.0081177,0.1852417
1601136986539,90,0.036621094,-1.048645,0.10467529
1601136986539,91,0.02709961,-0.99542236,0.15130615
1601136986539,92,0.036621094,-1.048645,0.10467529
1601136986539,93,0.07495117,-1.0244751,0.0053100586
1601136986539,94,0.07495117,-1.0244751,0.0053100586
1601136986539,95,0.036376953,-0.9939575,0.11248779
1601136986539,96,0.3137207,-1.1963501,-0.066467285
1601136986540,97,0.1340332,-1.003479,-0.038879395
1601136986540,98,0.1340332,-1.003479,-0.038879395
1601136986544,99,0.17163086,-0.94317627,-0.08917236
1601136986544,100,0.02709961,-0.99542236,0.15130615
1601136986544,101,0.3137207,-1.1963501,-0.066467285
1601136986544,102,0.026123047,-1.0278931,0.054870605
1601136986545,103,0.2084961,-1.1314087,-0.0491333
1601136986545,104,0.036376953,-0.9939575,0.11248779
1601136986545,105,0.1340332,-1.003479,-0.038879395
1601136986545,106,0.1340332,-1.003479,-0.038879395
1601136986545,107,0.036621094,-1.048645,0.10467529
1601136986545,108,0.2084961,-1.1314087,-0.0491333
1601136986546,109,0.026123047,-1.0278931,0.054870605
1601136986549,110,0.17163086,-0.94317627,-0.08917236
1601136986549,111,0.036376953,-0.9939575,0.11248779
1601136986549,112,0.3137207,-1.1963501,-0.066467285
1601136986549,113,0.07495117,-1.0244751,0.0053100586
1601136986549,114,0.17871094,-0.694397,-0.33868408
1601136986549,115,0.17163086,-0.94317627,-0.08917236
1601136986549,116,0.3251953,-0.8965454,-0.1765747
1601136986549,117,0.3137207,-1.1963501,-0.066467285
1601136986549,118,0.6357422,-1.0010376,-0.13946533
1601136986549,119,0.026123047,-1.0278931,0.054870605
1601136986551,120,0.036621094,-1.048645,0.10467529
1601136986551,121,0.036621094,-1.048645,0.10467529
1601136986561,122,0.17871094,-0.694397,-0.33868408
1601136986561,123,0.2084961,-1.1314087,-0.0491333
1601136986561,124,0.2084961,-1.1314087,-0.0491333
1601136986562,125,0.50756836,-0.9841919,-0.022033691
1601136986562,126,0.07495117,-1.0244751,0.0053100586
1601136986562,127,0.1340332,-1.003479,-0.038879395
1601136986562,128,0.17163086,-0.94317627,-0.08917236
1601136986562,129,0.17163086,-0.94317627,-0.08917236
1601136986562,130,0.1340332,-1.003479,-0.038879395
1601136986562,131,0.026123047,-1.0278931,0.054870605
1601136986562,132,0.026123047,-1.0278931,0.054870605
1601136986563,133,0.07495117,-1.0244751,0.0053100586
1601136986563,134,0.17871094,-0.694397,-0.33868408
1601136986563,135,0.17871094,-0.694397,-0.33868408
1601136986563,136,0.2578125,-0.770813,0.0026245117
1601136986563,137,0.07495117,-1.0244751,0.0053100586
1601136986564,138,0.3137207,-1.1963501,-0.066467285
1601136986565,139,0.17163086,-0.94317627,-0.08917236
1601136986569,140,0.07495117,-1.0244751,0.0053100586
1601136986570,141,0.3251953,-0.8965454,-0.1765747
1601136986570,142,0.1340332,-1.003479,-0.038879395
1601136986570,143,0.3251953,-0.8965454,-0.1765747
1601136986570,144,0.1340332,-1.003479,-0.038879395
1601136986570,145,0.3137207,-1.1963501,-0.066467285
1601136986570,146,0.3137207,-1.1963501,-0.066467285
1601136986570,147,0.6357422,-1.0010376,-0.13946533
1601136986570,148,0.3251953,-0.8965454,-0.1765747
1601136986570,149,0.6357422,-1.0010376,-0.13946533
1601136986574,150,0.17163086,-0.94317627,-0.08917236
1601136986582,151,0.1340332,-1.003479,-0.038879395
1601136986582,152,0.2084961,-1.1314087,-0.0491333
1601136986582,153,0.2084961,-1.1314087,-0.0491333
1601136986582,154,0.17163086,-0.94317627,-0.08917236
1601136986582,155,0.50756836,-0.9841919,-0.022033691
1601136986582,156,0.3137207,-1.1963501,-0.066467285
1601136986582,157,0.46850586,-0.95562744,-0.0064086914
1601136986583,158,0.17163086,-0.94317627,-0.08917236
1601136986583,159,0.17871094,-0.694397,-0.33868408
1601136986584,160,0.3137207,-1.1963501,-0.066467285
1601136986584,161,0.17871094,-0.694397,-0.33868408
1601136986584,162,0.50756836,-0.9841919,-0.022033691
1601136986584,163,0.29174805,-1.1675415,0.27215576
1601136986584,164,0.2578125,-0.770813,0.0026245117
1601136986584,165,0.3251953,-0.8965454,-0.1765747
1601136986584,166,0.2578125,-0.770813,0.0026245117
1601136986584,167,0.46850586,-0.95562744,-0.0064086914
1601136986584,168,0.3251953,-0.8965454,-0.1765747
1601136986585,169,0.6357422,-1.0010376,-0.13946533
1601136986585,170,0.2084961,-1.1314087,-0.0491333
1601136986587,171,0.6357422,-1.0010376,-0.13946533
1601136986598,172,0.2084961,-1.1314087,-0.0491333
1601136986598,173,0.6357422,-1.0010376,-0.13946533
1601136986598,174,0.50756836,-0.9841919,-0.022033691
1601136986598,175,0.50756836,-0.9841919,-0.022033691
1601136986599,176,0.3137207,-1.1963501,-0.066467285
1601136986599,177,0.29174805,-1.1675415,0.27215576
1601136986599,178,0.2578125,-0.770813,0.0026245117
1601136986599,179,0.2084961,-1.1314087,-0.0491333
1601136986599,180,0.46850586,-0.95562744,-0.0064086914
1601136986599,181,0.26733398,-0.8850708,0.23040771
1601136986599,182,0.17871094,-0.694397,-0.33868408
1601136986599,183,0.29174805,-1.1675415,0.27215576
1601136986599,184,0.50756836,-0.9841919,-0.022033691
1601136986599,185,0.3251953,-0.8965454,-0.1765747
1601136986599,186,0.17871094,-0.694397,-0.33868408
1601136986599,187,0.46850586,-0.95562744,-0.0064086914
1601136986599,188,0.17871094,-0.694397,-0.33868408
1601136986599,189,0.2578125,-0.770813,0.0026245117
1601136986600,190,0.2084961,-1.1314087,-0.0491333
1601136986606,191,0.2578125,-0.770813,0.0026245117
1601136986606,192,0.26733398,-0.8850708,0.23040771
1601136986606,193,0.3251953,-0.8965454,-0.1765747
1601136986606,194,0.6357422,-1.0010376,-0.13946533
1601136986606,195,0.26733398,-0.8850708,0.23040771
1601136986607,196,-0.015380859,-0.8765259,0.22601318
1601136986607,197,-0.015380859,-0.8765259,0.22601318
1601136986607,198,0.46850586,-0.95562744,-0.0064086914
1601136986607,199,0.25854492,-0.75323486,0.2897339
1601136986607,200,0.17871094,-0.694397,-0.33868408
1601136986607,201,0.46850586,-0.95562744,-0.0064086914
1601136986607,202,0.29174805,-1.1675415,0.27215576
1601136986607,203,0.50756836,-0.9841919,-0.022033691
1601136986607,204,0.3251953,-0.8965454,-0.1765747
1601136986607,205,0.11328125,-1.5256958,0.5429077
1601136986607,206,-0.015380859,-0.8765259,0.22601318
1601136986620,207,0.29174805,-1.1675415,0.27215576
1601136986620,208,0.29174805,-1.1675415,0.27215576
1601136986620,209,0.3251953,-0.8965454,-0.1765747
1601136986621,210,0.26733398,-0.8850708,0.23040771
1601136986621,211,0.25854492,-0.75323486,0.2897339
1601136986621,212,0.2578125,-0.770813,0.0026245117
1601136986621,213,0.6357422,-1.0010376,-0.13946533
1601136986621,214,0.2163086,-0.866272,0.06976318
1601136986621,215,0.25854492,-0.75323486,0.2897339
1601136986621,216,0.50756836,-0.9841919,-0.022033691
1601136986621,217,0.6357422,-1.0010376,-0.13946533
1601136986621,218,0.26733398,-0.8850708,0.23040771
1601136986621,219,0.6357422,-1.0010376,-0.13946533
1601136986621,220,0.2578125,-0.770813,0.0026245117
1601136986621,221,-0.015380859,-0.8765259,0.22601318
1601136986621,222,0.46850586,-0.95562744,-0.0064086914
1601136986621,223,0.50756836,-0.9841919,-0.022033691
1601136986621,224,0.46850586,-0.95562744,-0.0064086914
1601136986622,225,0.11328125,-1.5256958,0.5429077
1601136986622,226,-0.015380859,-0.8765259,0.22601318
1601136986622,227,-0.020751953,-0.7017212,-0.013000488
1601136986622,228,0.11328125,-1.5256958,0.5429077
1601136986623,229,-0.05029297,-0.8892212,0.04925537
1601136986623,230,0.25854492,-0.75323486,0.2897339
1601136986623,231,0.2163086,-0.866272,0.06976318
1601136986623,232,0.26733398,-0.8850708,0.23040771
1601136986623,233,-0.020751953,-0.7017212,-0.013000488
1601136986623,234,0.11328125,-1.5256958,0.5429077
1601136986623,235,-0.05029297,-0.8892212,0.04925537
1601136986623,236,0.2163086,-0.866272,0.06976318
1601136986623,237,0.2163086,-0.866272,0.06976318
1601136986623,238,-0.020751953,-0.7017212,-0.013000488
1601136986623,239,0.25854492,-0.75323486,0.2897339
1601136986625,240,0.2578125,-0.770813,0.0026245117
1601136986627,241,-0.11425781,-1.5828247,0.2946167
1601136986627,242,0.29174805,-1.1675415,0.27215576
1601136986634,243,0.50756836,-0.9841919,-0.022033691
1601136986635,244,-0.11425781,-1.5828247,0.2946167
1601136986635,245,-0.05029297,-0.8892212,0.04925537
1601136986635,246,-0.05053711,-0.8753052,0.08343506
1601136986635,247,0.11328125,-1.5256958,0.5429077
1601136986635,248,-0.015380859,-0.8765259,0.22601318
1601136986635,249,0.46850586,-0.95562744,-0.0064086914
1601136986635,250,0.29174805,-1.1675415,0.27215576
1601136986635,251,-0.11425781,-1.5828247,0.2946167
1601136986635,252,0.26733398,-0.8850708,0.23040771
1601136986635,253,-0.05053711,-0.8753052,0.08343506
1601136986636,254,0.29174805,-1.1675415,0.27215576
1601136986644,255,-0.41357422,-0.79156494,-0.18927002
1601136986644,256,-0.05053711,-0.8753052,0.08343506
1601136986644,257,0.2163086,-0.866272,0.06976318
1601136986644,258,-0.015380859,-0.8765259,0.22601318
1601136986644,259,0.26733398,-0.8850708,0.23040771
1601136986644,260,-0.020751953,-0.7017212,-0.013000488
1601136986644,261,-0.41357422,-0.79156494,-0.18927002
1601136986644,262,0.25854492,-0.75323486,0.2897339
1601136986645,263,0.2578125,-0.770813,0.0026245117
1601136986645,264,0.26733398,-0.8850708,0.23040771
1601136986645,265,-0.020751953,-0.7017212,-0.013000488
1601136986645,266,0.46850586,-0.95562744,-0.0064086914
1601136986645,267,0.25854492,-0.75323486,0.2897339
1601136986645,268,-0.05029297,-0.8892212,0.04925537
1601136986645,269,-0.41357422,-0.79156494,-0.18927002
1601136986645,270,-0.11425781,-1.5828247,0.2946167
1601136986649,271,-0.015380859,-0.8765259,0.22601318
1601136986650,272,-0.05029297,-0.8892212,0.04925537
1601136986650,273,-0.015380859,-0.8765259,0.22601318
1601136986651,274,0.25854492,-0.75323486,0.2897339
1601136986651,275,-0.11425781,-1.5828247,0.2946167
1601136986651,276,0.11328125,-1.5256958,0.5429077
1601136986651,277,-0.05053711,-0.8753052,0.08343506
1601136986657,278,0.11328125,-1.5256958,0.5429077
1601136986657,279,0.29174805,-1.1675415,0.27215576
1601136986658,280,0.25854492,-0.75323486,0.2897339
1601136986658,281,0.2163086,-0.866272,0.06976318
1601136986658,282,-0.05053711,-0.8753052,0.08343506
1601136986658,283,0.2163086,-0.866272,0.06976318
1601136986659,284,-0.41357422,-0.79156494,-0.18927002
1601136986659,285,-0.020751953,-0.7017212,-0.013000488
1601136986659,286,0.26733398,-0.8850708,0.23040771
1601136986659,287,-0.020751953,-0.7017212,-0.013000488
1601136986659,288,-0.05029297,-0.8892212,0.04925537
1601136986659,289,0.11328125,-1.5256958,0.5429077
1601136986659,290,0.11328125,-1.5256958,0.5429077
1601136986659,291,-0.05029297,-0.8892212,0.04925537
1601136986659,292,0.2163086,-0.866272,0.06976318
1601136986659,293,-0.015380859,-0.8765259,0.22601318
1601136986660,294,-0.41357422,-0.79156494,-0.18927002
1601136986660,295,-0.11425781,-1.5828247,0.2946167
1601136986663,296,-0.11425781,-1.5828247,0.2946167
1601136986663,297,0.25854492,-0.75323486,0.2897339
1601136986663,298,-0.05053711,-0.8753052,0.08343506
1601136986663,299,-0.020751953,-0.7017212,-0.013000488
1601136986663,300,-0.05053711,-0.8753052,0.08343506
1601136986663,301,-0.05029297,-0.8892212,0.04925537
1601136986663,302,-0.41357422,-0.79156494,-0.18927002
1601136986664,303,0.11328125,-1.5256958,0.5429077
1601136986670,304,-0.11425781,-1.5828247,0.2946167
1601136986670,305,0.2163086,-0.866272,0.06976318
1601136986670,306,-0.41357422,-0.79156494,-0.18927002
1601136986670,307,-0.020751953,-0.7017212,-0.013000488
1601136986670,308,0.2163086,-0.866272,0.06976318
1601136986670,309,-0.05053711,-0.8753052,0.08343506
1601136986670,310,-0.020751953,-0.7017212,-0.013000488
1601136986670,311,-0.41357422,-0.79156494,-0.18927002
1601136986670,312,-0.05029297,-0.8892212,0.04925537
1601136986673,313,-0.05029297,-0.8892212,0.04925537
1601136986673,314,-0.11425781,-1.5828247,0.2946167
1601136986676,315,-0.05053711,-0.8753052,0.08343506
1601136986676,316,-0.11425781,-1.5828247,0.2946167
1601136986676,317,-0.41357422,-0.79156494,-0.18927002
1601136986676,318,-0.05053711,-0.8753052,0.08343506
1601136986677,319,-0.41357422,-0.79156494,-0.18927002
1601136989581,320,-0.22851562,-1.1199341,0.022644043
1601136989582,321,-0.22851562,-1.1199341,0.022644043
1601136989582,322,-0.22851562,-1.1199341,0.022644043
1601136989582,323,-0.22851562,-1.1199341,0.022644043
1601136989585,324,-0.22851562,-1.1199341,0.022644043
1601136989585,325,0.15673828,-1.492981,-0.24493408
1601136989588,326,-0.22851562,-1.1199341,0.022644043
1601136989590,327,-0.22851562,-1.1199341,0.022644043
1601136989596,328,-0.22851562,-1.1199341,0.022644043
1601136989609,329,0.15673828,-1.492981,-0.24493408
1601136989609,330,0.15673828,-1.492981,-0.24493408
1601136989609,331,0.0063476562,-0.59869385,-0.25079346
1601136989609,332,0.0063476562,-0.59869385,-0.25079346
1601136989609,333,-0.22851562,-1.1199341,0.022644043
1601136989610,334,0.1340332,-0.7612915,-0.24078369
1601136989610,335,-0.22851562,-1.1199341,0.022644043
1601136989610,336,0.6296387,-1.5698853,-0.22174072
1601136989622,337,0.15673828,-1.492981,-0.24493408
1601136989623,338,0.15673828,-1.492981,-0.24493408
1601136989623,339,0.1340332,-0.7612915,-0.24078369
1601136989623,340,0.15673828,-1.492981,-0.24493408
1601136989623,341,0.0063476562,-0.59869385,-0.25079346
1601136989623,342,0.15673828,-1.492981,-0.24493408
1601136989623,343,0.13671875,-0.74957275,-0.20172119
1601136989623,344,0.15673828,-1.492981,-0.24493408
1601136989623,345,0.15673828,-1.492981,-0.24493408
1601136989623,346,0.15673828,-1.492981,-0.24493408
1601136989635,347,0.0063476562,-0.59869385,-0.25079346
1601136989635,348,0.6296387,-1.5698853,-0.22174072
1601136989635,349,0.0063476562,-0.59869385,-0.25079346
1601136989635,350,0.1340332,-0.7612915,-0.24078369
1601136989636,351,0.0063476562,-0.59869385,-0.25079346
1601136989636,352,0.1340332,-0.7612915,-0.24078369
1601136989636,353,0.0063476562,-0.59869385,-0.25079346
1601136989636,354,0.0063476562,-0.59869385,-0.25079346
1601136989636,355,0.0063476562,-0.59869385,-0.25079346
1601136989636,356,0.13134766,-0.60528564,-0.2962036
1601136989636,357,0.1340332,-0.7612915,-0.24078369
1601136989636,358,0.1340332,-0.7612915,-0.24078369
1601136989636,359,0.13671875,-0.74957275,-0.20172119
1601136989638,360,0.0063476562,-0.59869385,-0.25079346
1601136989641,361,0.76904297,-1.1712036,-0.02911377
1601136989641,362,0.1340332,-0.7612915,-0.24078369
1601136989642,363,0.6296387,-1.5698853,-0.22174072
1601136989642,364,0.1340332,-0.7612915,-0.24078369
1601136989642,365,0.6296387,-1.5698853,-0.22174072
1601136989642,366,0.13671875,-0.74957275,-0.20172119
1601136989642,367,0.6296387,-1.5698853,-0.22174072
1601136989642,368,0.6296387,-1.5698853,-0.22174072
1601136989643,369,0.13671875,-0.74957275,-0.20172119
1601136989643,370,0.517334,-1.4024048,0.24920654
1601136989643,371,0.6296387,-1.5698853,-0.22174072
1601136989649,372,0.13671875,-0.74957275,-0.20172119
1601136989649,373,0.13671875,-0.74957275,-0.20172119
1601136989650,374,0.13134766,-0.60528564,-0.2962036
1601136989650,375,0.13134766,-0.60528564,-0.2962036
1601136989650,376,0.036376953,-1.2141724,0.3036499
1601136989650,377,0.13134766,-0.60528564,-0.2962036
1601136989650,378,0.76904297,-1.1712036,-0.02911377
1601136989650,379,0.6296387,-1.5698853,-0.22174072
1601136989650,380,0.1340332,-0.7612915,-0.24078369
1601136989650,381,0.13134766,-0.60528564,-0.2962036
1601136989650,382,0.76904297,-1.1712036,-0.02911377
1601136989651,383,0.13134766,-0.60528564,-0.2962036
1601136989651,384,0.76904297,-1.1712036,-0.02911377
1601136989651,385,0.76904297,-1.1712036,-0.02911377
1601136989651,386,0.76904297,-1.1712036,-0.02911377
1601136989651,387,0.6296387,-1.5698853,-0.22174072
1601136989651,388,0.517334,-1.4024048,0.24920654
1601136989651,389,0.517334,-1.4024048,0.24920654
1601136989652,390,0.13671875,-0.74957275,-0.20172119
1601136989652,391,0.517334,-1.4024048,0.24920654
1601136989656,392,0.1340332,-0.7612915,-0.24078369
1601136989656,393,0.20629883,-0.5274048,0.10247803
1601136989656,394,0.517334,-1.4024048,0.24920654
1601136989656,395,0.13671875,-0.74957275,-0.20172119
1601136989657,396,0.036376953,-1.2141724,0.3036499
1601136989657,397,0.036376953,-1.2141724,0.3036499
1601136989657,398,0.517334,-1.4024048,0.24920654
1601136989657,399,0.13671875,-0.74957275,-0.20172119
1601136989657,400,0.13134766,-0.60528564,-0.2962036
1601136989657,401,0.6296387,-1.5698853,-0.22174072
1601136989657,402,-0.051757812,-0.75494385,0.097595215
1601136989658,403,0.13134766,-0.60528564,-0.2962036
1601136989658,404,0.20629883,-0.5274048,0.10247803
1601136989659,405,0.20629883,-0.5274048,0.10247803
1601136989665,406,0.036376953,-1.2141724,0.3036499
1601136989665,407,0.76904297,-1.1712036,-0.02911377
1601136989665,408,-0.051757812,-0.75494385,0.097595215
1601136989665,409,0.21875,-1.625061,0.46917725
1601136989665,410,0.13671875,-0.74957275,-0.20172119
1601136989665,411,0.01977539,-0.6026001,-0.03375244
1601136989665,412,0.036376953,-1.2141724,0.3036499
1601136989666,413,-0.076416016,-0.52911377,-0.023254395
1601136989666,414,0.036376953,-1.2141724,0.3036499
1601136989666,415,0.13134766,-0.60528564,-0.2962036
1601136989678,416,0.517334,-1.4024048,0.24920654
1601136989678,417,0.20629883,-0.5274048,0.10247803
1601136989678,418,0.036376953,-1.2141724,0.3036499
1601136989678,419,-0.051757812,-0.75494385,0.097595215
1601136989679,420,-0.051757812,-0.75494385,0.097595215
1601136989679,421,0.20629883,-0.5274048,0.10247803
1601136989679,422,-0.45922852,-1.3684692,0.26409912
1601136989679,423,0.20629883,-0.5274048,0.10247803
1601136989680,424,0.21875,-1.625061,0.46917725
1601136989680,425,0.76904297,-1.1712036,-0.02911377
1601136989680,426,-0.067871094,-1.0715942,0.117126465
1601136989680,427,0.76904297,-1.1712036,-0.02911377
1601136989680,428,0.37670898,-1.289856,-0.26031494
1601136989680,429,0.13134766,-0.60528564,-0.2962036
1601136989680,430,0.21875,-1.625061,0.46917725
1601136989680,431,0.517334,-1.4024048,0.24920654
1601136989681,432,-0.051757812,-0.75494385,0.097595215
1601136989681,433,0.01977539,-0.6026001,-0.03375244
1601136989681,434,0.036376953,-1.2141724,0.3036499
1601136989681,435,0.517334,-1.4024048,0.24920654
1601136989681,436,-0.051757812,-0.75494385,0.097595215
1601136989681,437,0.38549805,-1.0335083,-0.05621338
1601136989681,438,0.21875,-1.625061,0.46917725
1601136989681,439,0.76904297,-1.1712036,-0.02911377
1601136989682,440,0.31298828,-0.84332275,-0.23468018
1601136989682,441,0.21875,-1.625061,0.46917725
1601136989682,442,0.01977539,-0.6026001,-0.03375244
1601136989682,443,0.517334,-1.4024048,0.24920654
1601136989682,444,0.012451172,-0.7642212,-0.22491455
1601136989682,445,0.036376953,-1.2141724,0.3036499
1601136989684,446,-0.076416016,-0.52911377,-0.023254395
1601136989684,447,0.01977539,-0.6026001,-0.03375244
1601136989684,448,0.20629883,-0.5274048,0.10247803
1601136989684,449,0.01977539,-0.6026001,-0.03375244
1601136989684,450,-0.051757812,-0.75494385,0.097595215
1601136989690,451,0.036376953,-1.2141724,0.3036499
1601136989690,452,0.20629883,-0.5274048,0.10247803
1601136989690,453,-0.076416016,-0.52911377,-0.023254395
1601136989691,454,-0.45922852,-1.3684692,0.26409912
1601136989691,455,-0.051757812,-0.75494385,0.097595215
1601136989691,456,0.21875,-1.625061,0.46917725
1601136989691,457,0.21875,-1.625061,0.46917725
1601136989691,458,-0.45922852,-1.3684692,0.26409912
1601136989691,459,0.21875,-1.625061,0.46917725
1601136989724,460,0.20629883,-0.5274048,0.10247803
1601136989725,461,0.20629883,-0.5274048,0.10247803
1601136989725,462,-0.076416016,-0.52911377,-0.023254395
1601136989725,463,-0.076416016,-0.52911377,-0.023254395
1601136989725,464,-0.45922852,-1.3684692,0.26409912
1601136989725,465,-0.067871094,-1.0715942,0.117126465
1601136989725,466,-0.067871094,-1.0715942,0.117126465
1601136989726,467,-0.45922852,-1.3684692,0.26409912
1601136989726,468,0.37670898,-1.289856,-0.26031494
1601136989726,469,0.01977539,-0.6026001,-0.03375244
1601136989726,470,0.38549805,-1.0335083,-0.05621338
1601136989726,471,0.37670898,-1.289856,-0.26031494
1601136989726,472,-0.051757812,-0.75494385,0.097595215
1601136989726,473,0.28100586,-1.2456665,-0.020812988
1601136989726,474,-0.067871094,-1.0715942,0.117126465
1601136989726,475,0.01977539,-0.6026001,-0.03375244
1601136989727,476,0.37670898,-1.289856,-0.26031494
1601136989727,477,-0.076416016,-0.52911377,-0.023254395
1601136989727,478,-0.067871094,-1.0715942,0.117126465
1601136989727,479,0.38549805,-1.0335083,-0.05621338
1601136989727,480,0.31298828,-0.84332275,-0.23468018
1601136989727,481,-0.076416016,-0.52911377,-0.023254395
1601136989727,482,0.21875,-1.625061,0.46917725
1601136989727,483,0.34350586,-1.1216431,0.040222168
1601136989728,484,0.38549805,-1.0335083,-0.05621338
1601136989749,485,0.01977539,-0.6026001,-0.03375244
1601136989750,486,-0.051757812,-0.75494385,0.097595215
1601136989750,487,-0.45922852,-1.3684692,0.26409912
1601136989750,488,0.21875,-1.625061,0.46917725
1601136989750,489,0.37670898,-1.289856,-0.26031494
1601136989751,490,0.01977539,-0.6026001,-0.03375244
1601136989753,491,-0.067871094,-1.0715942,0.117126465
1601136989753,492,-0.076416016,-0.52911377,-0.023254395
1601136989753,493,0.18676758,-0.8399048,-0.13189697
1601136989755,494,0.31298828,-0.84332275,-0.23468018
1601136989780,495,-0.076416016,-0.52911377,-0.023254395
1601136989782,496,0.31298828,-0.84332275,-0.23468018
1601136989782,497,-0.45922852,-1.3684692,0.26409912
1601136989782,498,0.38549805,-1.0335083,-0.05621338
1601136989782,499,0.01977539,-0.6026001,-0.03375244
1601136989782,500,0.012451172,-0.7642212,-0.22491455
1601136989783,501,0.28100586,-1.2456665,-0.020812988
1601136989783,502,0.34350586,-1.1216431,0.040222168
1601136989783,503,0.17871094,-0.6621704,-0.12896729
1601136989783,504,0.18676758,-0.8399048,-0.13189697
1601136989783,505,0.012451172,-0.7642212,-0.22491455
1601136989783,506,-0.45922852,-1.3684692,0.26409912
1601136989783,507,-0.067871094,-1.0715942,0.117126465
1601136989783,508,0.37670898,-1.289856,-0.26031494
1601136989783,509,0.012451172,-0.7642212,-0.22491455
1601136989783,510,-0.076416016,-0.52911377,-0.023254395
1601136989783,511,-0.45922852,-1.3684692,0.26409912
1601136989789,512,0.31298828,-0.84332275,-0.23468018
1601136989789,513,0.44873047,-1.2620239,0.3024292
1601136989791,514,0.17871094,-0.6621704,-0.12896729
1601136989791,515,-0.067871094,-1.0715942,0.117126465
1601136989791,516,0.37670898,-1.289856,-0.26031494
1601136989791,517,0.28100586,-1.2456665,-0.020812988
1601136989791,518,0.38549805,-1.0335083,-0.05621338
1601136989792,519,-0.067871094,-1.0715942,0.117126465
1601136989792,520,0.38549805,-1.0335083,-0.05621338
1601136989792,521,-0.45922852,-1.3684692,0.26409912
1601136989792,522,0.37670898,-1.289856,-0.26031494
1601136989792,523,0.28100586,-1.2456665,-0.020812988
1601136989792,524,0.37670898,-1.289856,-0.26031494
1601136989792,525,0.34350586,-1.1216431,0.040222168
1601136989792,526,0.31298828,-0.84332275,-0.23468018
1601136989792,527,0.31298828,-0.84332275,-0.23468018
1601136989792,528,0.34350586,-1.1216431,0.040222168
1601136989792,529,0.012451172,-0.7642212,-0.22491455
1601136989797,530,0.44873047,-1.2620239,0.3024292
1601136989798,531,0.38549805,-1.0335083,-0.05621338
1601136989798,532,0.28808594,-1.2891235,0.12957764
1601136989798,533,0.31298828,-0.84332275,-0.23468018
1601136989798,534,0.38549805,-1.0335083,-0.05621338
1601136989798,535,0.012451172,-0.7642212,-0.22491455
1601136989798,536,-0.067871094,-1.0715942,0.117126465
1601136989798,537,0.012451172,-0.7642212,-0.22491455
1601136989798,538,0.18676758,-0.8399048,-0.13189697
1601136989798,539,0.28100586,-1.2456665,-0.020812988
1601136989800,540,0.28808594,-1.2891235,0.12957764
1601136989800,541,0.18676758,-0.8399048,-0.13189697
1601136989800,542,0.012451172,-0.7642212,-0.22491455
1601136989800,543,0.26708984,-0.73760986,-0.046203613
1601136989801,544,0.28100586,-1.2456665,-0.020812988
1601136989807,545,0.28100586,-1.2456665,-0.020812988
1601136989807,546,0.34350586,-1.1216431,0.040222168
1601136989807,547,0.26708984,-0.73760986,-0.046203613
1601136989807,548,0.17871094,-0.6621704,-0.12896729
1601136989807,549,0.31298828,-0.84332275,-0.23468018
1601136989808,550,0.18676758,-0.8399048,-0.13189697
1601136989808,551,0.37670898,-1.289856,-0.26031494
1601136989808,552,0.1508789,-0.6338501,-0.09625244
1601136989809,553,0.012451172,-0.7642212,-0.22491455
1601136989809,554,0.49926758,-1.2630005,0.09515381
1601136989809,555,0.28100586,-1.2456665,-0.020812988
1601136989809,556,0.34350586,-1.1216431,0.040222168
1601136989809,557,0.5493164,-1.2017212,0.05731201
1601136989809,558,0.1508789,-0.6338501,-0.09625244
1601136989809,559,0.17871094,-0.6621704,-0.12896729
1601136989810,560,0.34350586,-1.1216431,0.040222168
1601136989810,561,0.23046875,-0.9529419,-0.13287354
1601136989810,562,0.38549805,-1.0335083,-0.05621338
1601136989810,563,0.34350586,-1.1216431,0.040222168
1601136989811,564,0.44873047,-1.2620239,0.3024292
1601136989815,565,0.49926758,-1.2630005,0.09515381
1601136989815,566,0.44873047,-1.2620239,0.3024292
1601136989815,567,0.31298828,-0.84332275,-0.23468018
1601136989815,568,0.28808594,-1.2891235,0.12957764
1601136989815,569,0.18676758,-0.8399048,-0.13189697
1601136989815,570,0.28100586,-1.2456665,-0.020812988
1601136989816,571,0.012451172,-0.7642212,-0.22491455
1601136989816,572,0.18676758,-0.8399048,-0.13189697
1601136989817,573,0.5493164,-1.2017212,0.05731201
1601136989821,574,0.17871094,-0.6621704,-0.12896729
1601136989822,575,0.26708984,-0.73760986,-0.046203613
1601136989822,576,0.23046875,-0.9529419,-0.13287354
1601136989822,577,0.28100586,-1.2456665,-0.020812988
1601136989825,578,0.1508789,-0.6338501,-0.09625244
1601136989825,579,0.28808594,-1.2891235,0.12957764
1601136989825,580,0.44873047,-1.2620239,0.3024292
1601136989825,581,0.26708984,-0.73760986,-0.046203613
1601136989826,582,0.34350586,-1.1216431,0.040222168
1601136989826,583,0.34350586,-1.1216431,0.040222168
1601136989827,584,0.49926758,-1.2630005,0.09515381
1601136989850,585,0.17871094,-0.6621704,-0.12896729
1601136989850,586,0.1508789,-0.6338501,-0.09625244
1601136989851,587,0.18676758,-0.8399048,-0.13189697
1601136989852,588,0.17871094,-0.6621704,-0.12896729
1601136989852,589,0.49926758,-1.2630005,0.09515381
1601136989852,590,0.44873047,-1.2620239,0.3024292
1601136989852,591,0.5493164,-1.2017212,0.05731201
1601136989852,592,0.18676758,-0.8399048,-0.13189697
1601136989852,593,0.28808594,-1.2891235,0.12957764
1601136989852,594,0.5493164,-1.2017212,0.05731201
1601136989853,595,0.23046875,-0.9529419,-0.13287354
1601136989853,596,0.44873047,-1.2620239,0.3024292
1601136989853,597,0.17871094,-0.6621704,-0.12896729
1601136989853,598,0.17871094,-0.6621704,-0.12896729
1601136989853,599,0.44873047,-1.2620239,0.3024292
1601136989853,600,0.18676758,-0.8399048,-0.13189697
1601136989853,601,0.26708984,-0.73760986,-0.046203613
1601136989853,602,0.23046875,-0.9529419,-0.13287354
1601136989853,603,0.1508789,-0.6338501,-0.09625244
1601136989853,604,0.49926758,-1.2630005,0.09515381
1601136989853,605,0.28808594,-1.2891235,0.12957764
1601136989853,606,0.28808594,-1.2891235,0.12957764
1601136989854,607,0.26708984,-0.73760986,-0.046203613
1601136989854,608,0.44873047,-1.2620239,0.3024292
1601136989854,609,0.17871094,-0.6621704,-0.12896729
1601136989856,610,0.5493164,-1.2017212,0.05731201
1601136989859,611,0.1508789,-0.6338501,-0.09625244
1601136989863,612,0.49926758,-1.2630005,0.09515381
1601136989868,613,0.5493164,-1.2017212,0.05731201
1601136989868,614,0.23046875,-0.9529419,-0.13287354
1601136989868,615,0.26708984,-0.73760986,-0.046203613
1601136989868,616,0.44873047,-1.2620239,0.3024292
1601136989868,617,0.28808594,-1.2891235,0.12957764
1601136989868,618,0.28808594,-1.2891235,0.12957764
1601136989873,619,0.23046875,-0.9529419,-0.13287354
1601136989874,620,0.1508789,-0.6338501,-0.09625244
1601136989874,621,0.28808594,-1.2891235,0.12957764
1601136989874,622,0.49926758,-1.2630005,0.09515381
1601136989874,623,0.26708984,-0.73760986,-0.046203613
1601136989880,624,0.5493164,-1.2017212,0.05731201
1601136989880,625,0.26708984,-0.73760986,-0.046203613
1601136989880,626,0.26708984,-0.73760986,-0.046203613
1601136989880,627,0.1508789,-0.6338501,-0.09625244
1601136989881,628,0.23046875,-0.9529419,-0.13287354
1601136989881,629,0.1508789,-0.6338501,-0.09625244
1601136989881,630,0.49926758,-1.2630005,0.09515381
1601136989882,631,0.49926758,-1.2630005,0.09515381
1601136989883,632,0.1508789,-0.6338501,-0.09625244
1601136989883,633,0.49926758,-1.2630005,0.09515381
1601136989884,634,0.5493164,-1.2017212,0.05731201
1601136989885,635,0.5493164,-1.2017212,0.05731201
1601136989886,636,0.23046875,-0.9529419,-0.13287354
1601136989889,637,0.23046875,-0.9529419,-0.13287354
1601136989890,638,0.5493164,-1.2017212,0.05731201
1601136989890,639,0.23046875,-0.9529419,-0.13287354
1601136991936,640,-0.09106445,-0.7971802,-0.10015869
1601136991936,641,-0.09106445,-0.7971802,-0.10015869
1601136991936,642,-0.09106445,-0.7971802,-0.10015869
1601136991936,643,-0.09106445,-0.7971802,-0.10015869
1601136991937,644,-0.09106445,-0.7971802,-0.10015869
1601136991937,645,-0.09106445,-0.7971802,-0.10015869
1601136991937,646,-0.09106445,-0.7971802,-0.10015869
1601136991937,647,-0.09106445,-0.7971802,-0.10015869
1601136991937,648,-0.09008789,-0.9692993,0.06976318
1601136991937,649,-0.09008789,-0.9692993,0.06976318
1601136991938,650,-0.09008789,-0.9692993,0.06976318
1601136991938,651,-0.09106445,-0.7971802,-0.10015869
1601136991938,652,-0.09008789,-0.9692993,0.06976318
1601136991947,653,-0.07055664,-1.3652954,0.28070068
1601136991947,654,-0.07055664,-1.3652954,0.28070068
1601136991947,655,-0.21557617,-0.9829712,-0.0115356445
1601136991948,656,-0.09008789,-0.9692993,0.06976318
1601136991948,657,-0.09008789,-0.9692993,0.06976318
1601136991948,658,-0.09106445,-0.7971802,-0.10015869
1601136991948,659,-0.07055664,-1.3652954,0.28070068
1601136991948,660,-0.09008789,-0.9692993,0.06976318
1601136991948,661,-0.09008789,-0.9692993,0.06976318
1601136991948,662,-0.09008789,-0.9692993,0.06976318
1601136991949,663,-0.21557617,-0.9829712,-0.0115356445
1601136991949,664,-0.21557617,-0.9829712,-0.0115356445
1601136991949,665,-0.23608398,-0.66851807,-0.06695557
1601136991950,666,-0.07055664,-1.3652954,0.28070068
1601136991950,667,-0.07055664,-1.3652954,0.28070068
1601136991950,668,-0.09008789,-0.9692993,0.06976318
1601136991950,669,-0.07055664,-1.3652954,0.28070068
1601136991951,670,-0.21557617,-0.9829712,-0.0115356445
1601136991951,671,-0.07055664,-1.3652954,0.28070068
1601136991952,672,-0.07055664,-1.3652954,0.28070068
1601136991953,673,-0.23608398,-0.66851807,-0.06695557
1601136991953,674,-0.23608398,-0.66851807,-0.06695557
1601136991953,675,-0.21557617,-0.9829712,-0.0115356445
1601136991954,676,-0.21557617,-0.9829712,-0.0115356445
1601136991954,677,-0.33032227,-0.88531494,-0.11407471
1601136991955,678,-0.23608398,-0.66851807,-0.06695557
1601136991955,679,-0.21557617,-0.9829712,-0.0115356445
1601136991955,680,-0.33032227,-0.88531494,-0.11407471
1601136991956,681,-0.23608398,-0.66851807,-0.06695557
1601136991956,682,-0.33032227,-0.88531494,-0.11407471
1601136991956,683,-0.07055664,-1.3652954,0.28070068
1601136991956,684,-0.23608398,-0.66851807,-0.06695557
1601136991966,685,-0.07055664,-1.3652954,0.28070068
1601136991966,686,-0.21557617,-0.9829712,-0.0115356445
1601136991966,687,-0.46704102,-1.2971802,-0.09454346
1601136991966,688,-0.33032227,-0.88531494,-0.11407471
1601136991966,689,-0.33032227,-0.88531494,-0.11407471
1601136991966,690,-0.23608398,-0.66851807,-0.06695557
1601136991966,691,-0.46704102,-1.2971802,-0.09454346
1601136991966,692,-0.46704102,-1.2971802,-0.09454346
1601136991966,693,-0.21557617,-0.9829712,-0.0115356445
1601136991967,694,-0.33032227,-0.88531494,-0.11407471
1601136991967,695,-0.52783203,-0.99713135,-0.081604004
1601136991967,696,-0.21557617,-0.9829712,-0.0115356445
1601136991967,697,-0.23608398,-0.66851807,-0.06695557
1601136991967,698,-0.52783203,-0.99713135,-0.081604004
1601136991967,699,-0.46704102,-1.2971802,-0.09454346
1601136991967,700,-0.46704102,-1.2971802,-0.09454346
1601136991968,701,-0.33032227,-0.88531494,-0.11407471
1601136991968,702,-0.52783203,-0.99713135,-0.081604004
1601136991968,703,-0.1459961,-0.708313,-0.22320557
1601136991973,704,-0.46704102,-1.2971802,-0.09454346
1601136991973,705,-0.23608398,-0.66851807,-0.06695557
1601136991973,706,-0.33032227,-0.88531494,-0.11407471
1601136991973,707,-0.33032227,-0.88531494,-0.11407471
1601136991974,708,-0.46704102,-1.2971802,-0.09454346
1601136991974,709,-0.46704102,-1.2971802,-0.09454346
1601136991974,710,-0.52783203,-0.99713135,-0.081604004
1601136991974,711,-0.1459961,-0.708313,-0.22320557
1601136991974,712,-0.23608398,-0.66851807,-0.06695557
1601136991974,713,-0.39208984,-1.1001587,-0.1296997
1601136991975,714,-0.23388672,-1.2258911,-0.03765869
1601136991976,715,-0.52783203,-0.99713135,-0.081604004
1601136991980,716,-0.1418457,-0.92852783,0.026062012
1601136991980,717,-0.52783203,-0.99713135,-0.081604004
1601136991980,718,-0.46704102,-1.2971802,-0.09454346
1601136991980,719,-0.1459961,-0.708313,-0.22320557
1601136991980,720,-0.33032227,-0.88531494,-0.11407471
1601136991980,721,-0.1459961,-0.708313,-0.22320557
1601136991980,722,-0.52783203,-0.99713135,-0.081604004
1601136991980,723,-0.46704102,-1.2971802,-0.09454346
1601136991980,724,-0.1459961,-0.708313,-0.22320557
1601136991982,725,-0.20288086,-0.63726807,-0.09185791
1601136991988,726,-0.39208984,-1.1001587,-0.1296997
1601136991988,727,-0.39208984,-1.1001587,-0.1296997
1601136991988,728,-0.1459961,-0.708313,-0.22320557
1601136991988,729,-0.23388672,-1.2258911,-0.03765869
1601136991989,730,-0.52783203,-0.99713135,-0.081604004
1601136991989,731,-0.39208984,-1.1001587,-0.1296997
1601136991989,732,-0.39208984,-1.1001587,-0.1296997
1601136991989,733,-0.39208984,-1.1001587,-0.1296997
1601136991989,734,-0.23388672,-1.2258911,-0.03765869
1601136991989,735,-0.1459961,-0.708313,-0.22320557
1601136991989,736,-0.1418457,-0.92852783,0.026062012
1601136991989,737,-0.52783203,-0.99713135,-0.081604004
1601136992000,738,-0.1418457,-0.92852783,0.026062012
1601136992000,739,-0.23388672,-1.2258911,-0.03765869
1601136992000,740,-0.20288086,-0.63726807,-0.09185791
1601136992000,741,0.3503418,-1.604065,0.1954956
1601136992000,742,-0.1459961,-0.708313,-0.22320557
1601136992000,743,-0.23388672,-1.2258911,-0.03765869
1601136992000,744,-0.39208984,-1.1001587,-0.1296997
1601136992001,745,-0.20288086,-0.63726807,-0.09185791
1601136992001,746,-0.39208984,-1.1001587,-0.1296997
1601136992001,747,-0.1459961,-0.708313,-0.22320557
1601136992001,748,-0.1418457,-0.92852783,0.026062012
1601136992001,749,-0.1418457,-0.92852783,0.026062012
1601136992001,750,-0.23388672,-1.2258911,-0.03765869
1601136992002,751,0.5859375,-0.9404907,0.13006592
1601136992002,752,-0.52783203,-0.99713135,-0.081604004
1601136992002,753,-0.1418457,-0.92852783,0.026062012
1601136992003,754,0.3503418,-1.604065,0.1954956
1601136992003,755,0.3503418,-1.604065,0.1954956
1601136992029,756,-0.23388672,-1.2258911,-0.03765869
1601136992029,757,-0.20288086,-0.63726807,-0.09185791
1601136992029,758,-0.20288086,-0.63726807,-0.09185791
1601136992029,759,-0.23388672,-1.2258911,-0.03765869
1601136992030,760,0.3503418,-1.604065,0.1954956
1601136992030,761,-0.1418457,-0.92852783,0.026062012
1601136992030,762,0.5859375,-0.9404907,0.13006592
1601136992030,763,-0.20288086,-0.63726807,-0.09185791
1601136992030,764,0.5859375,-0.9404907,0.13006592
1601136992030,765,-0.1459961,-0.708313,-0.22320557
1601136992032,766,0.5859375,-0.9404907,0.13006592
1601136992032,767,-0.1418457,-0.92852783,0.026062012
1601136992032,768,-0.39208984,-1.1001587,-0.1296997
1601136992032,769,0.3503418,-1.604065,0.1954956
1601136992032,770,-0.23388672,-1.2258911,-0.03765869
1601136992033,771,-0.20288086,-0.63726807,-0.09185791
1601136992033,772,0.3503418,-1.604065,0.1954956
1601136992033,773,-0.39208984,-1.1001587,-0.1296997
1601136992033,774,0.3503418,-1.604065,0.1954956
1601136992033,775,0.5859375,-0.9404907,0.13006592
1601136992033,776,-0.20288086,-0.63726807,-0.09185791
1601136992065,777,-0.1418457,-0.92852783,0.026062012
1601136992065,778,0.5859375,-0.9404907,0.13006592
1601136992065,779,0.12597656,-0.6201782,-0.14190674
1601136992065,780,0.12597656,-0.6201782,-0.14190674
1601136992066,781,0.12597656,-0.6201782,-0.14190674
1601136992066,782,0.5859375,-0.9404907,0.13006592
1601136992066,783,0.12597656,-0.6201782,-0.14190674
1601136992067,784,0.23608398,-0.7896118,-0.011047363
1601136992067,785,0.12597656,-0.6201782,-0.14190674
1601136992067,786,0.85961914,-1.4146118,0.51239014
1601136992067,787,0.23608398,-0.7896118,-0.011047363
1601136992067,788,0.23608398,-0.7896118,-0.011047363
1601136992067,789,0.23608398,-0.7896118,-0.011047363
1601136992067,790,0.85961914,-1.4146118,0.51239014
1601136992067,791,0.85961914,-1.4146118,0.51239014
1601136992067,792,0.12597656,-0.6201782,-0.14190674
1601136992067,793,-0.20288086,-0.63726807,-0.09185791
1601136992067,794,-0.23388672,-1.2258911,-0.03765869
1601136992067,795,0.37524414,-0.7913208,0.20257568
1601136992067,796,0.3503418,-1.604065,0.1954956
1601136992068,797,0.23608398,-0.7896118,-0.011047363
1601136992068,798,0.0625,-0.60357666,-0.1687622
1601136992068,799,0.37524414,-0.7913208,0.20257568
1601136992068,800,0.85961914,-1.4146118,0.51239014
1601136992068,801,0.37524414,-0.7913208,0.20257568
1601136992078,802,0.3503418,-1.604065,0.1954956
1601136992078,803,-0.1418457,-0.92852783,0.026062012
1601136992078,804,0.23608398,-0.7896118,-0.011047363
1601136992079,805,0.5859375,-0.9404907,0.13006592
1601136992079,806,0.12597656,-0.6201782,-0.14190674
1601136992080,807,0.85961914,-1.4146118,0.51239014
1601136992080,808,0.12597656,-0.6201782,-0.14190674
1601136992080,809,0.0625,-0.60357666,-0.1687622
1601136992080,810,0.0625,-0.60357666,-0.1687622
1601136992080,811,0.37524414,-0.7913208,0.20257568
1601136992084,812,-0.20288086,-0.63726807,-0.09185791
1601136992084,813,0.5859375,-0.9404907,0.13006592
1601136992084,814,0.3503418,-1.604065,0.1954956
1601136992085,815,0.23608398,-0.7896118,-0.011047363
1601136992085,816,0.12597656,-0.6201782,-0.14190674
1601136992085,817,0.23608398,-0.7896118,-0.011047363
1601136992085,818,0.37524414,-0.7913208,0.20257568
1601136992085,819,0.23608398,-0.7896118,-0.011047363
1601136992085,820,0.85961914,-1.4146118,0.51239014
1601136992085,821,0.7775879,-0.99420166,0.34222412
1601136992085,822,0.0625,-0.60357666,-0.1687622
1601136992086,823,0.7775879,-0.99420166,0.34222412
1601136992090,824,0.5859375,-0.9404907,0.13006592
1601136992090,825,0.7775879,-0.99420166,0.34222412
1601136992090,826,0.85961914,-1.4146118,0.51239014
1601136992090,827,0.85961914,-1.4146118,0.51239014
1601136992090,828,0.0625,-0.60357666,-0.1687622
1601136992091,829,0.85961914,-1.4146118,0.51239014
1601136992091,830,0.37524414,-0.7913208,0.20257568
1601136992091,831,0.7775879,-0.99420166,0.34222412
1601136992091,832,0.0625,-0.60357666,-0.1687622
1601136992091,833,0.53027344,-1.0320435,0.31121826
1601136992091,834,0.7775879,-0.99420166,0.34222412
1601136992091,835,0.37524414,-0.7913208,0.20257568
1601136992092,836,0.37524414,-0.7913208,0.20257568
1601136992093,837,0.0625,-0.60357666,-0.1687622
1601136992093,838,0.7775879,-0.99420166,0.34222412
1601136992093,839,0.12597656,-0.6201782,-0.14190674
1601136992093,840,0.0625,-0.60357666,-0.1687622
1601136992093,841,0.23608398,-0.7896118,-0.011047363
1601136992094,842,0.53027344,-1.0320435,0.31121826
1601136992094,843,0.85961914,-1.4146118,0.51239014
1601136992104,844,0.37524414,-0.7913208,0.20257568
1601136992105,845,0.7775879,-0.99420166,0.34222412
1601136992105,846,0.0625,-0.60357666,-0.1687622
1601136992105,847,0.53027344,-1.0320435,0.31121826
1601136992105,848,0.53027344,-1.0320435,0.31121826
1601136992105,849,0.53027344,-1.0320435,0.31121826
1601136992105,850,0.53027344,-1.0320435,0.31121826
1601136992105,851,0.37524414,-0.7913208,0.20257568
1601136992105,852,0.7775879,-0.99420166,0.34222412
1601136992105,853,0.3486328,-0.72662354,0.11248779
1601136992105,854,0.3486328,-0.72662354,0.11248779
1601136992106,855,0.3486328,-0.72662354,0.11248779
1601136992106,856,0.0625,-0.60357666,-0.1687622
1601136992106,857,0.28466797,-0.8870239,0.014343262
1601136992106,858,0.3486328,-0.72662354,0.11248779
1601136992106,859,0.3486328,-0.72662354,0.11248779
1601136992106,860,0.28466797,-0.8870239,0.014343262
1601136992106,861,0.38671875,-0.91729736,0.06121826
1601136992106,862,0.53027344,-1.0320435,0.31121826
1601136992106,863,0.38671875,-0.91729736,0.06121826
1601136992106,864,0.7775879,-0.99420166,0.34222412
1601136992107,865,0.2265625,-0.98028564,0.015319824
1601136992107,866,0.7775879,-0.99420166,0.34222412
1601136992107,867,0.034423828,-1.100647,0.68133545
1601136992107,868,0.53027344,-1.0320435,0.31121826
1601136992107,869,0.16088867,-1.0298462,-0.04156494
1601136992108,870,0.28466797,-0.8870239,0.014343262
1601136992117,871,0.28466797,-0.8870239,0.014343262
1601136992117,872,0.3486328,-0.72662354,0.11248779
1601136992117,873,0.38671875,-0.91729736,0.06121826
1601136992118,874,0.53027344,-1.0320435,0.31121826
1601136992118,875,0.3486328,-0.72662354,0.11248779
1601136992118,876,0.28466797,-0.8870239,0.014343262
1601136992118,877,0.3486328,-0.72662354,0.11248779
1601136992118,878,0.2265625,-0.98028564,0.015319824
1601136992118,879,0.017822266,-0.8599243,0.32977295
1601136992118,880,0.28466797,-0.8870239,0.014343262
1601136992118,881,0.28466797,-0.8870239,0.014343262
1601136992119,882,0.53027344,-1.0320435,0.31121826
1601136992119,883,0.034423828,-1.100647,0.68133545
1601136992119,884,0.3486328,-0.72662354,0.11248779
1601136992119,885,0.2265625,-0.98028564,0.015319824
1601136992119,886,0.38671875,-0.91729736,0.06121826
1601136992120,887,0.28466797,-0.8870239,0.014343262
1601136992120,888,0.38671875,-0.91729736,0.06121826
1601136992120,889,0.38671875,-0.91729736,0.06121826
1601136992120,890,0.2265625,-0.98028564,0.015319824
1601136992120,891,0.38671875,-0.91729736,0.06121826
1601136992120,892,0.38671875,-0.91729736,0.06121826
1601136992120,893,0.28466797,-0.8870239,0.014343262
1601136992146,894,0.034423828,-1.100647,0.68133545
1601136992146,895,0.2265625,-0.98028564,0.015319824
1601136992146,896,-0.016113281,-0.8821411,-0.005432129
1601136992147,897,0.034423828,-1.100647,0.68133545
1601136992147,898,0.2265625,-0.98028564,0.015319824
1601136992147,899,0.2265625,-0.98028564,0.015319824
1601136992147,900,0.16088867,-1.0298462,-0.04156494
1601136992147,901,0.2265625,-0.98028564,0.015319824
1601136992147,902,0.3486328,-0.72662354,0.11248779
1601136992147,903,0.38671875,-0.91729736,0.06121826
1601136992147,904,0.017822266,-0.8599243,0.32977295
1601136992147,905,0.16088867,-1.0298462,-0.04156494
1601136992148,906,0.034423828,-1.100647,0.68133545
1601136992148,907,-0.16577148,-1.104065,0.10345459
1601136992148,908,0.16088867,-1.0298462,-0.04156494
1601136992148,909,0.16088867,-1.0298462,-0.04156494
1601136992148,910,0.28466797,-0.8870239,0.014343262
1601136992148,911,0.017822266,-0.8599243,0.32977295
1601136992148,912,0.2265625,-0.98028564,0.015319824
1601136992149,913,0.017822266,-0.8599243,0.32977295
1601136992149,914,0.38671875,-0.91729736,0.06121826
1601136992149,915,0.034423828,-1.100647,0.68133545
1601136992149,916,0.2265625,-0.98028564,0.015319824
1601136992149,917,0.034423828,-1.100647,0.68133545
1601136992149,918,0.16088867,-1.0298462,-0.04156494
1601136992149,919,0.034423828,-1.100647,0.68133545
1601136992149,920,0.034423828,-1.100647,0.68133545
1601136992168,921,0.034423828,-1.100647,0.68133545
1601136992168,922,-0.072265625,-0.8340454,-0.11993408
1601136992168,923,0.017822266,-0.8599243,0.32977295
1601136992168,924,0.16088867,-1.0298462,-0.04156494
1601136992168,925,-0.016113281,-0.8821411,-0.005432129
1601136992169,926,0.017822266,-0.8599243,0.32977295
1601136992169,927,-0.016113281,-0.8821411,-0.005432129
1601136992169,928,-0.16577148,-1.104065,0.10345459
1601136992169,929,-0.016113281,-0.8821411,-0.005432129
1601136992169,930,0.16088867,-1.0298462,-0.04156494
1601136992169,931,-0.072265625,-0.8340454,-0.11993408
1601136992187,932,0.017822266,-0.8599243,0.32977295
1601136992188,933,-0.016113281,-0.8821411,-0.005432129
1601136992188,934,0.16088867,-1.0298462,-0.04156494
1601136992188,935,-0.016113281,-0.8821411,-0.005432129
1601136992188,936,0.017822266,-0.8599243,0.32977295
1601136992188,937,0.16088867,-1.0298462,-0.04156494
1601136992188,938,0.017822266,-0.8599243,0.32977295
1601136992189,939,0.017822266,-0.8599243,0.32977295
1601136992189,940,-0.016113281,-0.8821411,-0.005432129
1601136992189,941,-0.016113281,-0.8821411,-0.005432129
1601136992189,942,-0.16577148,-1.104065,0.10345459
1601136992190,943,-0.016113281,-0.8821411,-0.005432129
1601136992190,944,-0.16577148,-1.104065,0.10345459
1601136992190,945,-0.016113281,-0.8821411,-0.005432129
1601136992190,946,-0.16577148,-1.104065,0.10345459
1601136992190,947,-0.16577148,-1.104065,0.10345459
1601136992191,948,-0.16577148,-1.104065,0.10345459
1601136992191,949,-0.072265625,-0.8340454,-0.11993408
1601136992214,950,-0.072265625,-0.8340454,-0.11993408
1601136992214,951,-0.16577148,-1.104065,0.10345459
1601136992214,952,-0.072265625,-0.8340454,-0.11993408
1601136992214,953,-0.16577148,-1.104065,0.10345459
1601136992215,954,-0.072265625,-0.8340454,-0.11993408
1601136992215,955,-0.16577148,-1.104065,0.10345459
1601136992215,956,-0.072265625,-0.8340454,-0.11993408
1601136992215,957,-0.072265625,-0.8340454,-0.11993408
1601136992216,958,-0.072265625,-0.8340454,-0.11993408
1601136992218,959,-0.072265625,-0.8340454,-0.11993408
1601136994085,960,-0.32104492,-1.1030884,0.06390381
1601136994085,961,-0.32104492,-1.1030884,0.06390381
1601136994085,962,-0.32104492,-1.1030884,0.06390381
1601136994085,963,-0.32104492,-1.1030884,0.06390381
1601136994087,964,-0.119628906,-1.3467407,0.29388428
1601136994087,965,-0.32104492,-1.1030884,0.06390381
1601136994088,966,-0.09448242,-1.1419067,0.10394287
1601136994088,967,-0.119628906,-1.3467407,0.29388428
1601136994088,968,-0.32104492,-1.1030884,0.06390381
1601136994088,969,-0.32104492,-1.1030884,0.06390381
1601136994088,970,-0.32104492,-1.1030884,0.06390381
1601136994088,971,-0.119628906,-1.3467407,0.29388428
1601136994088,972,-0.09448242,-1.1419067,0.10394287
1601136994088,973,-0.119628906,-1.3467407,0.29388428
1601136994088,974,-0.32104492,-1.1030884,0.06390381
1601136994088,975,-0.09448242,-1.1419067,0.10394287
1601136994089,976,-0.119628906,-1.3467407,0.29388428
1601136994090,977,-0.23071289,-0.9175415,0.054870605
1601136994090,978,-0.23071289,-0.9175415,0.054870605
1601136994090,979,-0.119628906,-1.3467407,0.29388428
1601136994090,980,-0.119628906,-1.3467407,0.29388428
1601136994090,981,-0.25830078,-1.0046997,0.03338623
1601136994090,982,-0.09448242,-1.1419067,0.10394287
1601136994091,983,-0.09448242,-1.1419067,0.10394287
1601136994091,984,-0.119628906,-1.3467407,0.29388428
1601136994091,985,-0.23071289,-0.9175415,0.054870605
1601136994091,986,-0.23071289,-0.9175415,0.054870605
1601136994091,987,-0.25830078,-1.0046997,0.03338623
1601136994091,988,-0.119628906,-1.3467407,0.29388428
1601136994091,989,-0.25830078,-1.0046997,0.03338623
1601136994091,990,-0.09448242,-1.1419067,0.10394287
1601136994091,991,-0.100097656,-1.2180786,0.09979248
1601136994091,992,-0.100097656,-1.2180786,0.09979248
1601136994092,993,-0.25830078,-1.0046997,0.03338623
1601136994108,994,-0.09448242,-1.1419067,0.10394287
1601136994108,995,-0.23071289,-0.9175415,0.054870605
1601136994108,996,-0.23071289,-0.9175415,0.054870605
1601136994108,997,-0.25830078,-1.0046997,0.03338623
1601136994108,998,-0.25830078,-1.0046997,0.03338623
1601136994108,999,-0.14477539,-1.1582642,0.11566162
1601136994109,1000,-0.09448242,-1.1419067,0.10394287
1601136994109,1001,-0.100097656,-1.2180786,0.09979248
1601136994109,1002,-0.32104492,-1.1030884,0.06390381
1601136994109,1003,-0.100097656,-1.2180786,0.09979248
1601136994109,1004,-0.14477539,-1.1582642,0.11566162
1601136994109,1005,-0.119628906,-1.3467407,0.29388428
1601136994109,1006,-0.23071289,-0.9175415,0.054870605
1601136994109,1007,-0.14477539,-1.1582642,0.11566162
1601136994109,1008,-0.100097656,-1.2180786,0.09979248
1601136994110,1009,-0.100097656,-1.2180786,0.09979248
1601136994110,1010,-0.055908203,-0.8110962,-0.017150879
1601136994110,1011,-0.23071289,-0.9175415,0.054870605
1601136994110,1012,-0.055908203,-0.8110962,-0.017150879
1601136994110,1013,-0.14477539,-1.1582642,0.11566162
1601136994110,1014,-0.055908203,-0.8110962,-0.017150879
1601136994110,1015,-0.14477539,-1.1582642,0.11566162
1601136994111,1016,-0.09448242,-1.1419067,0.10394287
1601136994111,1017,-0.25830078,-1.0046997,0.03338623
1601136994111,1018,-0.14477539,-1.1582642,0.11566162
1601136994112,1019,-0.09448242,-1.1419067,0.10394287
1601136994113,1020,-0.07128906,-0.9380493,0.12200928
1601136994113,1021,-0.07128906,-0.9380493,0.12200928
1601136994113,1022,-0.25830078,-1.0046997,0.03338623
1601136994113,1023,-0.07128906,-0.9380493,0.12200928
1601136994113,1024,-0.23071289,-0.9175415,0.054870605
1601136994113,1025,-0.055908203,-0.8110962,-0.017150879
1601136994123,1026,-0.055908203,-0.8110962,-0.017150879
1601136994124,1027,-0.23071289,-0.9175415,0.054870605
1601136994124,1028,-0.100097656,-1.2180786,0.09979248
1601136994124,1029,0.106933594,-1.0203247,0.13031006
1601136994124,1030,0.106933594,-1.0203247,0.13031006
1601136994124,1031,0.042236328,-0.96832275,0.08758545
1601136994124,1032,-0.25830078,-1.0046997,0.03338623
1601136994125,1033,0.042236328,-0.96832275,0.08758545
1601136994125,1034,0.106933594,-1.0203247,0.13031006
1601136994125,1035,-0.07128906,-0.9380493,0.12200928
1601136994125,1036,0.042236328,-0.96832275,0.08758545
1601136994129,1037,-0.25830078,-1.0046997,0.03338623
1601136994130,1038,-0.14477539,-1.1582642,0.11566162
1601136994130,1039,-0.055908203,-0.8110962,-0.017150879
1601136994134,1040,-0.100097656,-1.2180786,0.09979248
1601136994134,1041,-0.07128906,-0.9380493,0.12200928
1601136994137,1042,0.12109375,-0.99542236,-0.06817627
1601136994149,1043,0.12109375,-0.99542236,-0.06817627
1601136994150,1044,0.24584961,-1.0786743,-0.284729
1601136994150,1045,-0.055908203,-0.8110962,-0.017150879
1601136994150,1046,0.48339844,-1.2537231,-0.020080566
1601136994150,1047,0.12109375,-0.99542236,-0.06817627
1601136994150,1048,0.24584961,-1.0786743,-0.284729
1601136994150,1049,0.106933594,-1.0203247,0.13031006
1601136994151,1050,0.24584961,-1.0786743,-0.284729
1601136994151,1051,0.106933594,-1.0203247,0.13031006
1601136994151,1052,-0.100097656,-1.2180786,0.09979248
1601136994162,1053,-0.14477539,-1.1582642,0.11566162
1601136994162,1054,-0.100097656,-1.2180786,0.09979248
1601136994163,1055,-0.055908203,-0.8110962,-0.017150879
1601136994163,1056,-0.14477539,-1.1582642,0.11566162
1601136994163,1057,-0.07128906,-0.9380493,0.12200928
1601136994163,1058,0.48339844,-1.2537231,-0.020080566
1601136994163,1059,0.106933594,-1.0203247,0.13031006
1601136994163,1060,0.042236328,-0.96832275,0.08758545
1601136994164,1061,-0.055908203,-0.8110962,-0.017150879
1601136994164,1062,0.22949219,-0.93634033,-0.07623291
1601136994166,1063,0.48339844,-1.2537231,-0.020080566
1601136994167,1064,0.22949219,-0.93634033,-0.07623291
1601136994191,1065,0.22949219,-0.93634033,-0.07623291
1601136994191,1066,0.042236328,-0.96832275,0.08758545
1601136994192,1067,-0.07128906,-0.9380493,0.12200928
1601136994192,1068,0.12109375,-0.99542236,-0.06817627
1601136994192,1069,0.1550293,-0.80010986,-0.17340088
1601136994192,1070,-0.07128906,-0.9380493,0.12200928
1601136994192,1071,0.24584961,-1.0786743,-0.284729
1601136994192,1072,-0.14477539,-1.1582642,0.11566162
1601136994192,1073,0.48339844,-1.2537231,-0.020080566
1601136994192,1074,0.106933594,-1.0203247,0.13031006
1601136994192,1075,0.042236328,-0.96832275,0.08758545
1601136994192,1076,0.042236328,-0.96832275,0.08758545
1601136994193,1077,0.12109375,-0.99542236,-0.06817627
1601136994193,1078,0.106933594,-1.0203247,0.13031006
1601136994193,1079,0.3737793,-0.9209595,-0.17974854
1601136994193,1080,-0.07128906,-0.9380493,0.12200928
1601136994193,1081,0.12109375,-0.99542236,-0.06817627
1601136994193,1082,0.1550293,-0.80010986,-0.17340088
1601136994194,1083,0.26245117,-1.0039673,-0.1350708
1601136994194,1084,0.24584961,-1.0786743,-0.284729
1601136994195,1085,0.1550293,-0.80010986,-0.17340088
1601136994196,1086,0.48339844,-1.2537231,-0.020080566
1601136994196,1087,-0.055908203,-0.8110962,-0.017150879
1601136994196,1088,0.3737793,-0.9209595,-0.17974854
1601136994196,1089,0.24584961,-1.0786743,-0.284729
1601136994197,1090,0.22949219,-0.93634033,-0.07623291
1601136994197,1091,0.042236328,-0.96832275,0.08758545
1601136994197,1092,0.1550293,-0.80010986,-0.17340088
1601136994197,1093,0.106933594,-1.0203247,0.13031006
1601136994197,1094,0.3737793,-0.9209595,-0.17974854
1601136994197,1095,0.26245117,-1.0039673,-0.1350708
1601136994200,1096,-0.07128906,-0.9380493,0.12200928
1601136994201,1097,0.48339844,-1.2537231,-0.020080566
1601136994226,1098,0.22949219,-0.93634033,-0.07623291
1601136994227,1099,0.12109375,-0.99542236,-0.06817627
1601136994227,1100,0.1550293,-0.80010986,-0.17340088
1601136994227,1101,0.22949219,-0.93634033,-0.07623291
1601136994227,1102,0.042236328,-0.96832275,0.08758545
1601136994227,1103,0.12695312,-0.9961548,-0.19195557
1601136994227,1104,0.12695312,-0.9961548,-0.19195557
1601136994227,1105,0.26245117,-1.0039673,-0.1350708
1601136994228,1106,0.3737793,-0.9209595,-0.17974854
1601136994229,1107,0.12109375,-0.99542236,-0.06817627
1601136994229,1108,0.26245117,-1.0039673,-0.1350708
1601136994229,1109,0.24584961,-1.0786743,-0.284729
1601136994229,1110,0.12695312,-0.9961548,-0.19195557
1601136994229,1111,0.24584961,-1.0786743,-0.284729
1601136994229,1112,0.48339844,-1.2537231,-0.020080566
1601136994229,1113,0.3737793,-0.9209595,-0.17974854
1601136994229,1114,0.22949219,-0.93634033,-0.07623291
1601136994229,1115,0.48339844,-1.2537231,-0.020080566
1601136994230,1116,0.26245117,-1.0039673,-0.1350708
1601136994230,1117,0.22949219,-0.93634033,-0.07623291
1601136994230,1118,0.106933594,-1.0203247,0.13031006
1601136994230,1119,0.107177734,-1.4319458,0.10882568
1601136994230,1120,0.1550293,-0.80010986,-0.17340088
1601136994230,1121,-0.029785156,-1.0234985,-0.004699707
1601136994230,1122,0.1550293,-0.80010986,-0.17340088
1601136994231,1123,-0.103271484,-0.9692993,0.23309326
1601136994231,1124,0.12109375,-0.99542236,-0.06817627
1601136994231,1125,0.3737793,-0.9209595,-0.17974854
1601136994266,1126,0.1550293,-0.80010986,-0.17340088
1601136994266,1127,0.042236328,-0.96832275,0.08758545
1601136994267,1128,0.107177734,-1.4319458,0.10882568
1601136994267,1129,0.3737793,-0.9209595,-0.17974854
1601136994267,1130,0.3737793,-0.9209595,-0.17974854
1601136994267,1131,0.12695312,-0.9961548,-0.19195557
1601136994267,1132,-0.029785156,-1.0234985,-0.004699707
1601136994268,1133,0.12695312,-0.9961548,-0.19195557
1601136994268,1134,-0.103271484,-0.9692993,0.23309326
1601136994268,1135,0.24584961,-1.0786743,-0.284729
1601136994268,1136,0.26245117,-1.0039673,-0.1350708
1601136994270,1137,0.0075683594,-1.08844,0.32757568
1601136994270,1138,0.12109375,-0.99542236,-0.06817627
1601136994270,1139,0.48339844,-1.2537231,-0.020080566
1601136994271,1140,0.0075683594,-1.08844,0.32757568
1601136994271,1141,0.26245117,-1.0039673,-0.1350708
1601136994271,1142,-0.026123047,-0.8274536,0.36419678
1601136994271,1143,0.107177734,-1.4319458,0.10882568
1601136994271,1144,0.032958984,-0.70196533,0.19378662
1601136994271,1145,-0.029785156,-1.0234985,-0.004699707
1601136994271,1146,0.12695312,-0.9961548,-0.19195557
1601136994271,1147,0.26245117,-1.0039673,-0.1350708
1601136994272,1148,0.107177734,-1.4319458,0.10882568
1601136994272,1149,0.24584961,-1.0786743,-0.284729
1601136994272,1150,-0.029785156,-1.0234985,-0.004699707
1601136994272,1151,0.48339844,-1.2537231,-0.020080566
1601136994272,1152,-0.026123047,-0.8274536,0.36419678
1601136994272,1153,0.12695312,-0.9961548,-0.19195557
1601136994272,1154,0.107177734,-1.4319458,0.10882568
1601136994273,1155,-0.103271484,-0.9692993,0.23309326
1601136994273,1156,0.107177734,-1.4319458,0.10882568
1601136994273,1157,0.107177734,-1.4319458,0.10882568
1601136994274,1158,-0.029785156,-1.0234985,-0.004699707
1601136994274,1159,0.12695312,-0.9961548,-0.19195557
1601136994274,1160,-0.103271484,-0.9692993,0.23309326
1601136994274,1161,-0.029785156,-1.0234985,-0.004699707
1601136994274,1162,0.22949219,-0.93634033,-0.07623291
1601136994274,1163,-0.029785156,-1.0234985,-0.004699707
1601136994274,1164,0.032958984,-0.70196533,0.19378662
1601136994275,1165,0.0075683594,-1.08844,0.32757568
1601136994275,1166,0.1706543,-1.0232544,0.37249756
1601136994275,1167,0.22949219,-0.93634033,-0.07623291
1601136994275,1168,0.0075683594,-1.08844,0.32757568
1601136994275,1169,-0.026123047,-0.8274536,0.36419678
1601136994276,1170,-0.103271484,-0.9692993,0.23309326
1601136994278,1171,0.1706543,-1.0232544,0.37249756
1601136994286,1172,0.1628418,-1.0108032,0.39520264
1601136994286,1173,-0.026123047,-0.8274536,0.36419678
1601136994286,1174,0.114746094,-0.7070923,0.1942749
1601136994286,1175,0.107177734,-1.4319458,0.10882568
1601136994286,1176,-0.103271484,-0.9692993,0.23309326
1601136994287,1177,0.032958984,-0.70196533,0.19378662
1601136994287,1178,0.1550293,-0.80010986,-0.17340088
1601136994287,1179,0.0075683594,-1.08844,0.32757568
1601136994287,1180,0.1550293,-0.80010986,-0.17340088
1601136994287,1181,0.1628418,-1.0108032,0.39520264
1601136994314,1182,-0.103271484,-0.9692993,0.23309326
1601136994315,1183,0.032958984,-0.70196533,0.19378662
1601136994315,1184,0.13110352,-0.9102173,0.23138428
1601136994315,1185,-0.029785156,-1.0234985,-0.004699707
1601136994315,1186,0.0075683594,-1.08844,0.32757568
1601136994315,1187,0.1706543,-1.0232544,0.37249756
1601136994316,1188,0.3737793,-0.9209595,-0.17974854
1601136994316,1189,-0.026123047,-0.8274536,0.36419678
1601136994316,1190,0.114746094,-0.7070923,0.1942749
1601136994316,1191,0.3737793,-0.9209595,-0.17974854
1601136994316,1192,0.13110352,-0.9102173,0.23138428
1601136994326,1193,0.26245117,-1.0039673,-0.1350708
1601136994326,1194,0.08569336,-1.0603638,0.26141357
1601136994327,1195,0.12695312,-0.9961548,-0.19195557
1601136994327,1196,-0.103271484,-0.9692993,0.23309326
1601136994327,1197,0.26245117,-1.0039673,-0.1350708
1601136994327,1198,0.1628418,-1.0108032,0.39520264
1601136994327,1199,0.0075683594,-1.08844,0.32757568
1601136994327,1200,0.032958984,-0.70196533,0.19378662
1601136994327,1201,0.08569336,-1.0603638,0.26141357
1601136994328,1202,0.12695312,-0.9961548,-0.19195557
1601136994339,1203,-0.026123047,-0.8274536,0.36419678
1601136994339,1204,0.001953125,-0.99884033,0.20941162
1601136994339,1205,-0.024902344,-1.0945435,0.14837646
1601136994339,1206,0.107177734,-1.4319458,0.10882568
1601136994339,1207,0.1706543,-1.0232544,0.37249756
1601136994339,1208,-0.026123047,-0.8274536,0.36419678
1601136994339,1209,0.1628418,-1.0108032,0.39520264
1601136994339,1210,0.114746094,-0.7070923,0.1942749
1601136994339,1211,0.001953125,-0.99884033,0.20941162
1601136994340,1212,0.107177734,-1.4319458,0.10882568
1601136994351,1213,0.032958984,-0.70196533,0.19378662
1601136994351,1214,0.0075683594,-1.08844,0.32757568
1601136994355,1215,-0.029785156,-1.0234985,-0.004699707
1601136994355,1216,0.032958984,-0.70196533,0.19378662
1601136994355,1217,-0.103271484,-0.9692993,0.23309326
1601136994355,1218,0.0075683594,-1.08844,0.32757568
1601136994356,1219,0.13110352,-0.9102173,0.23138428
1601136994356,1220,-0.029785156,-1.0234985,-0.004699707
1601136994381,1221,-0.024902344,-1.0945435,0.14837646
1601136994381,1222,0.1706543,-1.0232544,0.37249756
1601136994381,1223,-0.026123047,-0.8274536,0.36419678
1601136994381,1224,0.1706543,-1.0232544,0.37249756
1601136994383,1225,0.1706543,-1.0232544,0.37249756
1601136994383,1226,0.114746094,-0.7070923,0.1942749
1601136994383,1227,-0.026123047,-0.8274536,0.36419678
1601136994383,1228,-0.103271484,-0.9692993,0.23309326
1601136994383,1229,0.08569336,-1.0603638,0.26141357
1601136994383,1230,0.032958984,-0.70196533,0.19378662
1601136994383,1231,0.1628418,-1.0108032,0.39520264
1601136994383,1232,0.032958984,-0.70196533,0.19378662
1601136994384,1233,0.0075683594,-1.08844,0.32757568
1601136994384,1234,0.1706543,-1.0232544,0.37249756
1601136994384,1235,0.1706543,-1.0232544,0.37249756
1601136994384,1236,0.1628418,-1.0108032,0.39520264
1601136994384,1237,0.001953125,-0.99884033,0.20941162
1601136994384,1238,0.1628418,-1.0108032,0.39520264
1601136994385,1239,0.13110352,-0.9102173,0.23138428
1601136994385,1240,-0.026123047,-0.8274536,0.36419678
1601136994385,1241,0.114746094,-0.7070923,0.1942749
1601136994395,1242,0.1628418,-1.0108032,0.39520264
1601136994397,1243,0.114746094,-0.7070923,0.1942749
1601136994398,1244,0.114746094,-0.7070923,0.1942749
1601136994398,1245,-0.024902344,-1.0945435,0.14837646
1601136994398,1246,0.13110352,-0.9102173,0.23138428
1601136994398,1247,0.1628418,-1.0108032,0.39520264
1601136994398,1248,0.114746094,-0.7070923,0.1942749
1601136994398,1249,0.032958984,-0.70196533,0.19378662
1601136994398,1250,0.13110352,-0.9102173,0.23138428
1601136994398,1251,0.08569336,-1.0603638,0.26141357
1601136994398,1252,0.13110352,-0.9102173,0.23138428
1601136994398,1253,0.1706543,-1.0232544,0.37249756
1601136994399,1254,0.08569336,-1.0603638,0.26141357
1601136994399,1255,0.114746094,-0.7070923,0.1942749
1601136994399,1256,0.08569336,-1.0603638,0.26141357
1601136994404,1257,0.001953125,-0.99884033,0.20941162
1601136994404,1258,0.13110352,-0.9102173,0.23138428
1601136994404,1259,0.1628418,-1.0108032,0.39520264
1601136994404,1260,0.08569336,-1.0603638,0.26141357
1601136994404,1261,0.001953125,-0.99884033,0.20941162
1601136994404,1262,0.001953125,-0.99884033,0.20941162
1601136994404,1263,0.001953125,-0.99884033,0.20941162
1601136994405,1264,-0.024902344,-1.0945435,0.14837646
1601136994413,1265,0.114746094,-0.7070923,0.1942749
1601136994414,1266,0.13110352,-0.9102173,0.23138428
1601136994414,1267,-0.024902344,-1.0945435,0.14837646
1601136994414,1268,0.08569336,-1.0603638,0.26141357
1601136994415,1269,-0.024902344,-1.0945435,0.14837646
1601136994415,1270,0.08569336,-1.0603638,0.26141357
1601136994415,1271,0.13110352,-0.9102173,0.23138428
1601136994416,1272,0.001953125,-0.99884033,0.20941162
1601136994416,1273,0.001953125,-0.99884033,0.20941162
1601136994416,1274,-0.024902344,-1.0945435,0.14837646
1601136994416,1275,-0.024902344,-1.0945435,0.14837646
1601136994416,1276,0.08569336,-1.0603638,0.26141357
1601136994416,1277,-0.024902344,-1.0945435,0.14837646
1601136994419,1278,0.001953125,-0.99884033,0.20941162
1601136994420,1279,-0.024902344,-1.0945435,0.14837646
1601136996592,1280,0.08666992,-1.1057739,0.13739014
1601136996592,1281,0.08666992,-1.1057739,0.13739014
1601136996592,1282,0.08666992,-1.1057739,0.13739014
1601136996592,1283,0.011474609,-1.0457153,0.082458496
1601136996592,1284,0.08666992,-1.1057739,0.13739014
1601136996592,1285,0.08666992,-1.1057739,0.13739014
1601136996592,1286,0.08666992,-1.1057739,0.13739014
1601136996594,1287,0.08666992,-1.1057739,0.13739014
1601136996594,1288,0.041259766,-1.107727,0.13470459
1601136996594,1289,0.08666992,-1.1057739,0.13739014
1601136996601,1290,0.08666992,-1.1057739,0.13739014
1601136996601,1291,0.011474609,-1.0457153,0.082458496
1601136996601,1292,0.011474609,-1.0457153,0.082458496
1601136996601,1293,0.08666992,-1.1057739,0.13739014
1601136996601,1294,0.011474609,-1.0457153,0.082458496
1601136996602,1295,0.011474609,-1.0457153,0.082458496
1601136996602,1296,0.011474609,-1.0457153,0.082458496
1601136996602,1297,0.041259766,-1.107727,0.13470459
1601136996602,1298,0.011474609,-1.0457153,0.082458496
1601136996602,1299,0.041259766,-1.107727,0.13470459
1601136996602,1300,0.011474609,-1.0457153,0.082458496
1601136996602,1301,0.011474609,-1.0457153,0.082458496
1601136996602,1302,0.041259766,-1.107727,0.13470459
1601136996602,1303,0.041259766,-1.107727,0.13470459
1601136996602,1304,0.09106445,-0.9573364,0.16204834
1601136996602,1305,0.09106445,-0.9573364,0.16204834
1601136996602,1306,0.041259766,-1.107727,0.13470459
1601136996603,1307,0.1706543,-0.8467407,0.04925537
1601136996604,1308,0.041259766,-1.107727,0.13470459
1601136996609,1309,0.09106445,-0.9573364,0.16204834
1601136996609,1310,0.09106445,-0.9573364,0.16204834
1601136996609,1311,0.011474609,-1.0457153,0.082458496
1601136996609,1312,0.09106445,-0.9573364,0.16204834
1601136996609,1313,0.041259766,-1.107727,0.13470459
1601136996609,1314,0.09106445,-0.9573364,0.16204834
1601136996609,1315,0.09106445,-0.9573364,0.16204834
1601136996609,1316,0.09106445,-0.9573364,0.16204834
1601136996609,1317,0.41357422,-1.0901489,0.15472412
1601136996615,1318,0.1706543,-0.8467407,0.04925537
1601136996615,1319,0.041259766,-1.107727,0.13470459
1601136996615,1320,0.41357422,-1.0901489,0.15472412
1601136996615,1321,0.09106445,-0.9573364,0.16204834
1601136996615,1322,0.1706543,-0.8467407,0.04925537
1601136996616,1323,0.1706543,-0.8467407,0.04925537
1601136996616,1324,0.1706543,-0.8467407,0.04925537
1601136996616,1325,0.1706543,-0.8467407,0.04925537
1601136996616,1326,0.41357422,-1.0901489,0.15472412
1601136996616,1327,0.3239746,-0.94317627,0.057800293
1601136996617,1328,0.1706543,-0.8467407,0.04925537
1601136996617,1329,0.1706543,-0.8467407,0.04925537
1601136996621,1330,0.41357422,-1.0901489,0.15472412
1601136996621,1331,0.41357422,-1.0901489,0.15472412
1601136996621,1332,0.3239746,-0.94317627,0.057800293
1601136996621,1333,0.1706543,-0.8467407,0.04925537
1601136996621,1334,0.22094727,-0.78131104,-0.070373535
1601136996621,1335,0.3239746,-0.94317627,0.057800293
1601136996622,1336,0.22094727,-0.78131104,-0.070373535
1601136996622,1337,0.3239746,-0.94317627,0.057800293
1601136996622,1338,0.41357422,-1.0901489,0.15472412
1601136996627,1339,0.041259766,-1.107727,0.13470459
1601136996627,1340,0.41357422,-1.0901489,0.15472412
1601136996627,1341,0.3239746,-0.94317627,0.057800293
1601136996627,1342,0.41357422,-1.0901489,0.15472412
1601136996628,1343,0.3239746,-0.94317627,0.057800293
1601136996628,1344,0.41357422,-1.0901489,0.15472412
1601136996628,1345,0.22094727,-0.78131104,-0.070373535
1601136996628,1346,0.5932617,-0.9495239,0.13470459
1601136996628,1347,0.3239746,-0.94317627,0.057800293
1601136996628,1348,0.5932617,-0.9495239,0.13470459
1601136996629,1349,0.09106445,-0.9573364,0.16204834
1601136996639,1350,0.22094727,-0.78131104,-0.070373535
1601136996639,1351,0.22094727,-0.78131104,-0.070373535
1601136996640,1352,0.5932617,-0.9495239,0.13470459
1601136996641,1353,0.5932617,-0.9495239,0.13470459
1601136996641,1354,0.22094727,-0.78131104,-0.070373535
1601136996641,1355,0.44995117,-1.1065063,0.17279053
1601136996641,1356,0.44995117,-1.1065063,0.17279053
1601136996641,1357,0.44995117,-1.1065063,0.17279053
1601136996641,1358,0.22094727,-0.78131104,-0.070373535
1601136996641,1359,0.17211914,-0.8123169,-0.023010254
1601136996641,1360,0.1706543,-0.8467407,0.04925537
1601136996641,1361,0.3239746,-0.94317627,0.057800293
1601136996641,1362,0.44995117,-1.1065063,0.17279053
1601136996641,1363,0.3239746,-0.94317627,0.057800293
1601136996641,1364,0.5932617,-0.9495239,0.13470459
1601136996641,1365,0.17211914,-0.8123169,-0.023010254
1601136996642,1366,0.5932617,-0.9495239,0.13470459
1601136996642,1367,0.22094727,-0.78131104,-0.070373535
1601136996642,1368,0.17211914,-0.8123169,-0.023010254
1601136996642,1369,0.44995117,-1.1065063,0.17279053
1601136996642,1370,0.5654297,-0.8062134,0.04827881
1601136996642,1371,0.22094727,-0.78131104,-0.070373535
1601136996642,1372,0.41357422,-1.0901489,0.15472412
1601136996643,1373,0.5932617,-0.9495239,0.13470459
1601136996643,1374,0.5654297,-0.8062134,0.04827881
1601136996650,1375,0.44995117,-1.1065063,0.17279053
1601136996650,1376,0.5932617,-0.9495239,0.13470459
1601136996650,1377,0.17211914,-0.8123169,-0.023010254
1601136996650,1378,0.5654297,-0.8062134,0.04827881
1601136996650,1379,0.5932617,-0.9495239,0.13470459
1601136996650,1380,0.5969238,-1.0440063,0.15472412
1601136996651,1381,0.5969238,-1.0440063,0.15472412
1601136996651,1382,0.17211914,-0.8123169,-0.023010254
1601136996651,1383,0.44995117,-1.1065063,0.17279053
1601136996652,1384,0.44995117,-1.1065063,0.17279053
1601136996652,1385,0.5654297,-0.8062134,0.04827881
1601136996652,1386,0.17211914,-0.8123169,-0.023010254
1601136996653,1387,0.5654297,-0.8062134,0.04827881
1601136996653,1388,0.5654297,-0.8062134,0.04827881
1601136996653,1389,0.5969238,-1.0440063,0.15472412
1601136996653,1390,0.5969238,-1.0440063,0.15472412
1601136996653,1391,0.17211914,-0.8123169,-0.023010254
1601136996653,1392,0.46020508,-0.95391846,0.20428467
1601136996653,1393,0.46020508,-0.95391846,0.20428467
1601136996653,1394,0.5654297,-0.8062134,0.04827881
1601136996653,1395,0.5969238,-1.0440063,0.15472412
1601136996653,1396,0.44995117,-1.1065063,0.17279053
1601136996653,1397,0.3239746,-0.94317627,0.057800293
1601136996653,1398,0.5969238,-1.0440063,0.15472412
1601136996653,1399,0.52905273,-0.7944946,-0.004699707
1601136996653,1400,0.52905273,-0.7944946,-0.004699707
1601136996654,1401,0.46020508,-0.95391846,0.20428467
1601136996654,1402,0.5969238,-1.0440063,0.15472412
1601136996655,1403,0.46020508,-0.95391846,0.20428467
1601136996666,1404,0.17211914,-0.8123169,-0.023010254
1601136996666,1405,0.17211914,-0.8123169,-0.023010254
1601136996667,1406,0.40405273,-0.8428345,0.016540527
1601136996667,1407,0.5654297,-0.8062134,0.04827881
1601136996667,1408,0.40405273,-0.8428345,0.016540527
1601136996667,1409,0.46020508,-0.95391846,0.20428467
1601136996667,1410,0.52905273,-0.7944946,-0.004699707
1601136996667,1411,0.22094727,-0.78131104,-0.070373535
1601136996667,1412,0.46020508,-0.95391846,0.20428467
1601136996667,1413,0.52905273,-0.7944946,-0.004699707
1601136996667,1414,0.52905273,-0.7944946,-0.004699707
1601136996667,1415,0.31103516,-1.1763306,0.10760498
1601136996667,1416,0.40405273,-0.8428345,0.016540527
1601136996667,1417,0.5969238,-1.0440063,0.15472412
1601136996667,1418,0.46020508,-0.95391846,0.20428467
1601136996667,1419,0.31103516,-1.1763306,0.10760498
1601136996667,1420,0.40405273,-0.8428345,0.016540527
1601136996667,1421,0.52905273,-0.7944946,-0.004699707
1601136996668,1422,0.5932617,-0.9495239,0.13470459
1601136996668,1423,0.31103516,-1.1763306,0.10760498
1601136996668,1424,0.5654297,-0.8062134,0.04827881
1601136996668,1425,0.46020508,-0.95391846,0.20428467
1601136996668,1426,0.31103516,-1.1763306,0.10760498
1601136996668,1427,0.22729492,-1.0432739,0.22210693
1601136996668,1428,0.52905273,-0.7944946,-0.004699707
1601136996668,1429,0.22729492,-1.0432739,0.22210693
1601136996668,1430,0.5969238,-1.0440063,0.15472412
1601136996670,1431,0.44995117,-1.1065063,0.17279053
1601136996670,1432,0.52905273,-0.7944946,-0.004699707
1601136996670,1433,0.46020508,-0.95391846,0.20428467
1601136996670,1434,0.22729492,-1.0432739,0.22210693
1601136996670,1435,0.17211914,-0.8123169,-0.023010254
1601136996670,1436,0.40405273,-0.8428345,0.016540527
1601136996670,1437,0.14941406,-0.8411255,0.093933105
1601136996670,1438,0.40405273,-0.8428345,0.016540527
1601136996670,1439,0.5654297,-0.8062134,0.04827881
1601136996676,1440,0.22729492,-1.0432739,0.22210693
1601136996676,1441,0.14941406,-0.8411255,0.093933105
1601136996676,1442,0.14941406,-0.8411255,0.093933105
1601136996677,1443,0.52905273,-0.7944946,-0.004699707
1601136996677,1444,0.40405273,-0.8428345,0.016540527
1601136996677,1445,0.31103516,-1.1763306,0.10760498
1601136996677,1446,0.40405273,-0.8428345,0.016540527
1601136996677,1447,0.03125,-1.086731,0.32122803
1601136996677,1448,0.31103516,-1.1763306,0.10760498
1601136996677,1449,0.5969238,-1.0440063,0.15472412
1601136996678,1450,0.14941406,-0.8411255,0.093933105
1601136996682,1451,0.03125,-1.086731,0.32122803
1601136996682,1452,0.31103516,-1.1763306,0.10760498
1601136996682,1453,0.22729492,-1.0432739,0.22210693
1601136996682,1454,0.40405273,-0.8428345,0.016540527
1601136996682,1455,0.22729492,-1.0432739,0.22210693
1601136996683,1456,0.11010742,-1.0422974,0.23187256
1601136996683,1457,0.46020508,-0.95391846,0.20428467
1601136996683,1458,0.03125,-1.086731,0.32122803
1601136996683,1459,0.22729492,-1.0432739,0.22210693
1601136996683,1460,0.03125,-1.086731,0.32122803
1601136996683,1461,-0.17138672,-1.0298462,0.018737793
1601136996684,1462,-0.0859375,-0.9590454,0.16229248
1601136996685,1463,0.31103516,-1.1763306,0.10760498
1601136996687,1464,0.11010742,-1.0422974,0.23187256
1601136996687,1465,0.14941406,-0.8411255,0.093933105
1601136996687,1466,0.11010742,-1.0422974,0.23187256
1601136996688,1467,-0.17138672,-1.0298462,0.018737793
1601136996688,1468,0.14941406,-0.8411255,0.093933105
1601136996694,1469,0.03125,-1.086731,0.32122803
1601136996694,1470,0.31103516,-1.1763306,0.10760498
1601136996694,1471,0.22729492,-1.0432739,0.22210693
1601136996694,1472,0.52905273,-0.7944946,-0.004699707
1601136996694,1473,-0.17138672,-1.0298462,0.018737793
1601136996694,1474,0.14941406,-0.8411255,0.093933105
1601136996694,1475,-0.12915039,-1.0352173,0.16766357
1601136996695,1476,0.03125,-1.086731,0.32122803
1601136996696,1477,0.11010742,-1.0422974,0.23187256
1601136996699,1478,-0.0859375,-0.9590454,0.16229248
1601136996699,1479,0.11010742,-1.0422974,0.23187256
1601136996700,1480,0.40405273,-0.8428345,0.016540527
1601136996700,1481,0.22729492,-1.0432739,0.22210693
1601136996716,1482,0.14941406,-0.8411255,0.093933105
1601136996716,1483,-0.12915039,-1.0352173,0.16766357
1601136996716,1484,0.11010742,-1.0422974,0.23187256
1601136996716,1485,0.03125,-1.086731,0.32122803
1601136996716,1486,0.11010742,-1.0422974,0.23187256
1601136996716,1487,-0.17138672,-1.0298462,0.018737793
1601136996716,1488,0.03125,-1.086731,0.32122803
1601136996716,1489,-0.0859375,-0.9590454,0.16229248
1601136996721,1490,0.31103516,-1.1763306,0.10760498
1601136996724,1491,-0.17138672,-1.0298462,0.018737793
1601136996724,1492,-0.17138672,-1.0298462,0.018737793
1601136996725,1493,0.14941406,-0.8411255,0.093933105
1601136996728,1494,-0.0859375,-0.9590454,0.16229248
1601136996728,1495,-0.17138672,-1.0298462,0.018737793
1601136996728,1496,-0.037841797,-0.95098877,0.12591553
1601136996728,1497,0.22729492,-1.0432739,0.22210693
1601136996728,1498,-0.0859375,-0.9590454,0.16229248
1601136996728,1499,-0.12915039,-1.0352173,0.16766357
1601136996728,1500,-0.12915039,-1.0352173,0.16766357
1601136996737,1501,-0.0859375,-0.9590454,0.16229248
1601136996737,1502,-0.0859375,-0.9590454,0.16229248
1601136996737,1503,0.03125,-1.086731,0.32122803
1601136996737,1504,-0.12915039,-1.0352173,0.16766357
1601136996737,1505,-0.060546875,-1.0108032,0.17401123
1601136996737,1506,0.14941406,-0.8411255,0.093933105
1601136996738,1507,0.11010742,-1.0422974,0.23187256
1601136996738,1508,-0.037841797,-0.95098877,0.12591553
1601136996738,1509,-0.060546875,-1.0108032,0.17401123
1601136996739,1510,-0.037841797,-0.95098877,0.12591553
1601136996739,1511,-0.12915039,-1.0352173,0.16766357
1601136996747,1512,-0.037841797,-0.95098877,0.12591553
1601136996747,1513,0.11010742,-1.0422974,0.23187256
1601136996747,1514,0.004638672,-1.0029907,0.20159912
1601136996747,1515,0.03125,-1.086731,0.32122803
1601136996747,1516,-0.037841797,-0.95098877,0.12591553
1601136996747,1517,-0.17138672,-1.0298462,0.018737793
1601136996747,1518,0.004638672,-1.0029907,0.20159912
1601136996747,1519,-0.060546875,-1.0108032,0.17401123
1601136996747,1520,-0.12915039,-1.0352173,0.16766357
1601136996747,1521,-0.037841797,-0.95098877,0.12591553
1601136996747,1522,0.004638672,-1.0029907,0.20159912
1601136996747,1523,-0.023925781,-1.0435181,0.16619873
1601136996747,1524,-0.037841797,-0.95098877,0.12591553
1601136996748,1525,-0.023925781,-1.0435181,0.16619873
1601136996748,1526,-0.060546875,-1.0108032,0.17401123
1601136996748,1527,-0.0859375,-0.9590454,0.16229248
1601136996748,1528,0.040771484,-1.1018677,-0.027893066
1601136996751,1529,0.004638672,-1.0029907,0.20159912
1601136996752,1530,-0.17138672,-1.0298462,0.018737793
1601136996752,1531,-0.023925781,-1.0435181,0.16619873
1601136996752,1532,-0.060546875,-1.0108032,0.17401123
1601136996752,1533,-0.0859375,-0.9590454,0.16229248
1601136996752,1534,0.040771484,-1.1018677,-0.027893066
1601136996752,1535,0.040771484,-1.1018677,-0.027893066
1601136996752,1536,-0.060546875,-1.0108032,0.17401123
1601136996752,1537,-0.12915039,-1.0352173,0.16766357
1601136996752,1538,0.12768555,-0.8045044,0.16790771
1601136996752,1539,0.004638672,-1.0029907,0.20159912
1601136996752,1540,0.11010742,-1.0422974,0.23187256
1601136996753,1541,-0.023925781,-1.0435181,0.16619873
1601136996753,1542,-0.17138672,-1.0298462,0.018737793
1601136996755,1543,0.12768555,-0.8045044,0.16790771
1601136996757,1544,-0.037841797,-0.95098877,0.12591553
1601136996763,1545,-0.023925781,-1.0435181,0.16619873
1601136996763,1546,-0.060546875,-1.0108032,0.17401123
1601136996764,1547,-0.12915039,-1.0352173,0.16766357
1601136996764,1548,0.040771484,-1.1018677,-0.027893066
1601136996764,1549,0.004638672,-1.0029907,0.20159912
1601136996764,1550,0.004638672,-1.0029907,0.20159912
1601136996764,1551,0.12768555,-0.8045044,0.16790771
1601136996764,1552,0.17333984,-1.0066528,-0.008605957
1601136996764,1553,0.17333984,-1.0066528,-0.008605957
1601136996764,1554,0.38989258,-1.0274048,0.11932373
1601136996764,1555,0.040771484,-1.1018677,-0.027893066
1601136996769,1556,-0.023925781,-1.0435181,0.16619873
1601136996769,1557,0.12768555,-0.8045044,0.16790771
1601136996769,1558,0.12768555,-0.8045044,0.16790771
1601136996769,1559,-0.023925781,-1.0435181,0.16619873
1601136996770,1560,0.17333984,-1.0066528,-0.008605957
1601136996770,1561,-0.060546875,-1.0108032,0.17401123
1601136996770,1562,0.38989258,-1.0274048,0.11932373
1601136996770,1563,0.38989258,-1.0274048,0.11932373
1601136996775,1564,0.17333984,-1.0066528,-0.008605957
1601136996775,1565,0.17333984,-1.0066528,-0.008605957
1601136996775,1566,0.040771484,-1.1018677,-0.027893066
1601136996775,1567,-0.037841797,-0.95098877,0.12591553
1601136996775,1568,0.38989258,-1.0274048,0.11932373
1601136996775,1569,-0.0859375,-0.9590454,0.16229248
1601136996776,1570,0.004638672,-1.0029907,0.20159912
1601136996779,1571,0.38989258,-1.0274048,0.11932373
1601136996785,1572,-0.060546875,-1.0108032,0.17401123
1601136996785,1573,0.12768555,-0.8045044,0.16790771
1601136996785,1574,-0.12915039,-1.0352173,0.16766357
1601136996785,1575,-0.023925781,-1.0435181,0.16619873
1601136996785,1576,0.17333984,-1.0066528,-0.008605957
1601136996785,1577,0.040771484,-1.1018677,-0.027893066
1601136996785,1578,0.004638672,-1.0029907,0.20159912
1601136996786,1579,0.12768555,-0.8045044,0.16790771
1601136996786,1580,-0.023925781,-1.0435181,0.16619873
1601136996786,1581,0.17333984,-1.0066528,-0.008605957
1601136996786,1582,0.38989258,-1.0274048,0.11932373
1601136996786,1583,0.040771484,-1.1018677,-0.027893066
1601136996789,1584,0.040771484,-1.1018677,-0.027893066
1601136996789,1585,-0.037841797,-0.95098877,0.12591553
1601136996795,1586,0.12768555,-0.8045044,0.16790771
1601136996795,1587,0.38989258,-1.0274048,0.11932373
1601136996796,1588,0.12768555,-0.8045044,0.16790771
1601136996797,1589,-0.060546875,-1.0108032,0.17401123
1601136996818,1590,0.17333984,-1.0066528,-0.008605957
1601136996819,1591,0.17333984,-1.0066528,-0.008605957
1601136996819,1592,0.004638672,-1.0029907,0.20159912
1601136996819,1593,0.38989258,-1.0274048,0.11932373
1601136996819,1594,-0.023925781,-1.0435181,0.16619873
1601136996823,1595,0.040771484,-1.1018677,-0.027893066
1601136996823,1596,0.38989258,-1.0274048,0.11932373
1601136996823,1597,0.12768555,-0.8045044,0.16790771
1601136996828,1598,0.17333984,-1.0066528,-0.008605957
1601136996829,1599,0.38989258,-1.0274048,0.11932373
1601136999117,1600,0.3293457,-0.97540283,0.14154053
1601136999119,1601,0.3293457,-0.97540283,0.14154053
1601136999119,1602,0.3293457,-0.97540283,0.14154053
1601136999119,1603,0.3293457,-0.97540283,0.14154053
1601136999119,1604,0.3293457,-0.97540283,0.14154053
1601136999119,1605,0.3293457,-0.97540283,0.14154053
1601136999122,1606,0.3293457,-0.97540283,0.14154053
1601136999122,1607,0.2890625,-0.91729736,0.09686279
1601136999122,1608,0.2890625,-0.91729736,0.09686279
1601136999122,1609,0.2890625,-0.91729736,0.09686279
1601136999122,1610,0.2890625,-0.91729736,0.09686279
1601136999122,1611,0.38354492,-0.9771118,0.06365967
1601136999130,1612,0.38354492,-0.9771118,0.06365967
1601136999130,1613,0.2890625,-0.91729736,0.09686279
1601136999130,1614,0.38354492,-0.9771118,0.06365967
1601136999130,1615,0.38354492,-0.9771118,0.06365967
1601136999130,1616,0.3293457,-0.97540283,0.14154053
1601136999130,1617,0.2890625,-0.91729736,0.09686279
1601136999130,1618,0.2890625,-0.91729736,0.09686279
1601136999130,1619,0.3293457,-0.97540283,0.14154053
1601136999130,1620,0.38354492,-0.9771118,0.06365967
1601136999130,1621,0.31933594,-0.96710205,0.12689209
1601136999130,1622,0.2890625,-0.91729736,0.09686279
1601136999130,1623,0.31933594,-0.96710205,0.12689209
1601136999131,1624,0.31933594,-0.96710205,0.12689209
1601136999131,1625,0.31933594,-0.96710205,0.12689209
1601136999131,1626,0.3293457,-0.97540283,0.14154053
1601136999131,1627,0.31933594,-0.96710205,0.12689209
1601136999132,1628,0.38354492,-0.9771118,0.06365967
1601136999132,1629,0.2890625,-0.91729736,0.09686279
1601136999132,1630,0.2890625,-0.91729736,0.09686279
1601136999132,1631,0.38354492,-0.9771118,0.06365967
1601136999132,1632,0.38354492,-0.9771118,0.06365967
1601136999133,1633,0.39038086,-0.99224854,0.058044434
1601136999133,1634,0.31933594,-0.96710205,0.12689209
1601136999133,1635,0.38354492,-0.9771118,0.06365967
1601136999133,1636,0.38354492,-0.9771118,0.06365967
1601136999133,1637,0.31933594,-0.96710205,0.12689209
1601136999133,1638,0.31933594,-0.96710205,0.12689209
1601136999148,1639,0.39038086,-0.99224854,0.058044434
1601136999149,1640,0.39038086,-0.99224854,0.058044434
1601136999149,1641,0.39160156,-0.9595337,0.036071777
1601136999149,1642,0.39038086,-0.99224854,0.058044434
1601136999149,1643,0.39160156,-0.9595337,0.036071777
1601136999149,1644,0.39038086,-0.99224854,0.058044434
1601136999149,1645,0.39038086,-0.99224854,0.058044434
1601136999149,1646,0.39160156,-0.9595337,0.036071777
1601136999150,1647,0.25854492,-0.98101807,0.02923584
1601136999150,1648,0.31933594,-0.96710205,0.12689209
1601136999150,1649,0.39160156,-0.9595337,0.036071777
1601136999151,1650,0.39038086,-0.99224854,0.058044434
1601136999151,1651,0.39160156,-0.9595337,0.036071777
1601136999151,1652,0.39038086,-0.99224854,0.058044434
1601136999152,1653,0.39160156,-0.9595337,0.036071777
1601136999152,1654,0.31933594,-0.96710205,0.12689209
1601136999152,1655,0.25854492,-0.98101807,0.02923584
1601136999152,1656,0.25854492,-0.98101807,0.02923584
1601136999152,1657,0.3737793,-0.94073486,-0.04107666
1601136999152,1658,0.25854492,-0.98101807,0.02923584
1601136999154,1659,0.3996582,-0.9102173,0.006286621
1601136999154,1660,0.39160156,-0.9595337,0.036071777
1601136999154,1661,0.25854492,-0.98101807,0.02923584
1601136999154,1662,0.39038086,-0.99224854,0.058044434
1601136999154,1663,0.3737793,-0.94073486,-0.04107666
1601136999154,1664,0.25854492,-0.98101807,0.02923584
1601136999154,1665,0.3996582,-0.9102173,0.006286621
1601136999154,1666,0.39038086,-0.99224854,0.058044434
1601136999154,1667,0.3737793,-0.94073486,-0.04107666
1601136999154,1668,0.3737793,-0.94073486,-0.04107666
1601136999154,1669,0.25585938,-1.0195923,0.051452637
1601136999154,1670,0.3996582,-0.9102173,0.006286621
1601136999154,1671,0.39160156,-0.9595337,0.036071777
1601136999154,1672,0.15649414,-1.0010376,0.18084717
1601136999157,1673,0.25585938,-1.0195923,0.051452637
1601136999157,1674,0.3737793,-0.94073486,-0.04107666
1601136999157,1675,0.3737793,-0.94073486,-0.04107666
1601136999157,1676,0.15649414,-1.0010376,0.18084717
1601136999157,1677,0.3996582,-0.9102173,0.006286621
1601136999157,1678,0.3996582,-0.9102173,0.006286621
1601136999157,1679,0.39160156,-0.9595337,0.036071777
1601136999157,1680,0.39160156,-0.9595337,0.036071777
1601136999159,1681,0.25854492,-0.98101807,0.02923584
1601136999159,1682,0.25585938,-1.0195923,0.051452637
1601136999159,1683,0.3996582,-0.9102173,0.006286621
1601136999159,1684,-0.061767578,-1.2097778,0.2411499
1601136999159,1685,0.25585938,-1.0195923,0.051452637
1601136999159,1686,0.25854492,-0.98101807,0.02923584
1601136999160,1687,0.25585938,-1.0195923,0.051452637
1601136999160,1688,0.15649414,-1.0010376,0.18084717
1601136999160,1689,-0.061767578,-1.2097778,0.2411499
1601136999160,1690,-0.061767578,-1.2097778,0.2411499
1601136999160,1691,0.25585938,-1.0195923,0.051452637
1601136999167,1692,0.3737793,-0.94073486,-0.04107666
1601136999167,1693,0.15649414,-1.0010376,0.18084717
1601136999167,1694,0.25854492,-0.98101807,0.02923584
1601136999167,1695,0.15649414,-1.0010376,0.18084717
1601136999167,1696,0.3737793,-0.94073486,-0.04107666
1601136999167,1697,0.25854492,-0.98101807,0.02923584
1601136999168,1698,0.1743164,-0.97052,0.2675171
1601136999168,1699,0.1743164,-0.97052,0.2675171
1601136999168,1700,0.15649414,-1.0010376,0.18084717
1601136999168,1701,0.1743164,-0.97052,0.2675171
1601136999168,1702,-0.001953125,-0.9404907,0.2333374
1601136999168,1703,0.3996582,-0.9102173,0.006286621
1601136999168,1704,-0.061767578,-1.2097778,0.2411499
1601136999168,1705,0.25585938,-1.0195923,0.051452637
1601136999168,1706,0.1743164,-0.97052,0.2675171
1601136999168,1707,0.3996582,-0.9102173,0.006286621
1601136999168,1708,-0.001953125,-0.9404907,0.2333374
1601136999168,1709,-0.001953125,-0.9404907,0.2333374
1601136999177,1710,-0.061767578,-1.2097778,0.2411499
1601136999178,1711,-0.001953125,-0.9404907,0.2333374
1601136999178,1712,0.1743164,-0.97052,0.2675171
1601136999179,1713,0.07519531,-0.81695557,0.14471436
1601136999179,1714,0.15649414,-1.0010376,0.18084717
1601136999179,1715,-0.061767578,-1.2097778,0.2411499
1601136999179,1716,0.087890625,-1.0005493,0.23773193
1601136999179,1717,0.25585938,-1.0195923,0.051452637
1601136999179,1718,0.07519531,-0.81695557,0.14471436
1601136999179,1719,0.07519531,-0.81695557,0.14471436
1601136999179,1720,0.19580078,-0.90216064,0.19476318
1601136999179,1721,0.15649414,-1.0010376,0.18084717
1601136999180,1722,0.3737793,-0.94073486,-0.04107666
1601136999180,1723,0.13330078,-0.9573364,0.22161865
1601136999180,1724,0.3737793,-0.94073486,-0.04107666
1601136999180,1725,-0.061767578,-1.2097778,0.2411499
1601136999180,1726,0.1743164,-0.97052,0.2675171
1601136999180,1727,0.1743164,-0.97052,0.2675171
1601136999180,1728,-0.001953125,-0.9404907,0.2333374
1601136999180,1729,-0.001953125,-0.9404907,0.2333374
1601136999180,1730,0.087890625,-1.0005493,0.23773193
1601136999180,1731,0.3996582,-0.9102173,0.006286621
1601136999180,1732,-0.061767578,-1.2097778,0.2411499
1601136999180,1733,0.07519531,-0.81695557,0.14471436
1601136999180,1734,0.25585938,-1.0195923,0.051452637
1601136999184,1735,0.3996582,-0.9102173,0.006286621
1601136999184,1736,0.087890625,-1.0005493,0.23773193
1601136999184,1737,0.07519531,-0.81695557,0.14471436
1601136999185,1738,-0.001953125,-0.9404907,0.2333374
1601136999185,1739,0.07519531,-0.81695557,0.14471436
1601136999185,1740,0.19580078,-0.90216064,0.19476318
1601136999185,1741,0.12036133,-0.94659424,0.22332764
1601136999185,1742,0.13330078,-0.9573364,0.22161865
1601136999185,1743,0.1743164,-0.97052,0.2675171
1601136999185,1744,0.087890625,-1.0005493,0.23773193
1601136999185,1745,0.25585938,-1.0195923,0.051452637
1601136999189,1746,0.087890625,-1.0005493,0.23773193
1601136999189,1747,0.19580078,-0.90216064,0.19476318
1601136999189,1748,0.07519531,-0.81695557,0.14471436
1601136999189,1749,0.087890625,-1.0005493,0.23773193
1601136999189,1750,0.13330078,-0.9573364,0.22161865
1601136999189,1751,0.15649414,-1.0010376,0.18084717
1601136999189,1752,0.1418457,-1.0274048,0.24481201
1601136999189,1753,0.087890625,-1.0005493,0.23773193
1601136999189,1754,0.12036133,-0.94659424,0.22332764
1601136999190,1755,0.19580078,-0.90216064,0.19476318
1601136999196,1756,0.19580078,-0.90216064,0.19476318
1601136999196,1757,0.15649414,-1.0010376,0.18084717
1601136999197,1758,0.12036133,-0.94659424,0.22332764
1601136999197,1759,0.19580078,-0.90216064,0.19476318
1601136999197,1760,-0.061767578,-1.2097778,0.2411499
1601136999197,1761,-0.061767578,-1.2097778,0.2411499
1601136999197,1762,-0.001953125,-0.9404907,0.2333374
1601136999197,1763,0.13330078,-0.9573364,0.22161865
1601136999197,1764,0.09008789,-1.2781372,0.023376465
1601136999197,1765,0.1743164,-0.97052,0.2675171
1601136999197,1766,0.13330078,-0.9573364,0.22161865
1601136999197,1767,-0.001953125,-0.9404907,0.2333374
1601136999197,1768,0.1418457,-1.0274048,0.24481201
1601136999197,1769,0.19580078,-0.90216064,0.19476318
1601136999198,1770,0.13330078,-0.9573364,0.22161865
1601136999198,1771,0.1743164,-0.97052,0.2675171
1601136999198,1772,0.12036133,-0.94659424,0.22332764
1601136999198,1773,0.13330078,-0.9573364,0.22161865
1601136999198,1774,0.17553711,-0.8843384,0.008239746
1601136999199,1775,0.09008789,-1.2781372,0.023376465
1601136999200,1776,0.1418457,-1.0274048,0.24481201
1601136999200,1777,0.12036133,-0.94659424,0.22332764
1601136999204,1778,-0.001953125,-0.9404907,0.2333374
1601136999204,1779,0.12036133,-0.94659424,0.22332764
1601136999204,1780,0.1418457,-1.0274048,0.24481201
1601136999204,1781,0.09008789,-1.2781372,0.023376465
1601136999204,1782,0.07519531,-0.81695557,0.14471436
1601136999204,1783,0.17553711,-0.8843384,0.008239746
1601136999204,1784,0.09008789,-1.2781372,0.023376465
1601136999205,1785,0.12036133,-0.94659424,0.22332764
1601136999207,1786,0.1418457,-1.0274048,0.24481201
1601136999219,1787,0.22875977,-0.9573364,-0.28253174
1601136999219,1788,0.09008789,-1.2781372,0.023376465
1601136999219,1789,0.17553711,-0.8843384,0.008239746
1601136999219,1790,0.2446289,-1.2024536,-0.13458252
1601136999219,1791,0.087890625,-1.0005493,0.23773193
1601136999219,1792,0.17553711,-0.8843384,0.008239746
1601136999219,1793,0.07519531,-0.81695557,0.14471436
1601136999220,1794,0.1418457,-1.0274048,0.24481201
1601136999220,1795,0.1418457,-1.0274048,0.24481201
1601136999220,1796,0.09008789,-1.2781372,0.023376465
1601136999220,1797,0.07519531,-0.81695557,0.14471436
1601136999220,1798,0.22875977,-0.9573364,-0.28253174
1601136999220,1799,0.22875977,-0.9573364,-0.28253174
1601136999220,1800,0.17553711,-0.8843384,0.008239746
1601136999220,1801,0.2709961,-0.99884033,-0.2341919
1601136999220,1802,0.19580078,-0.90216064,0.19476318
1601136999220,1803,0.22875977,-0.9573364,-0.28253174
1601136999220,1804,0.087890625,-1.0005493,0.23773193
1601136999232,1805,0.087890625,-1.0005493,0.23773193
1601136999232,1806,0.17553711,-0.8843384,0.008239746
1601136999232,1807,0.09008789,-1.2781372,0.023376465
1601136999233,1808,0.2446289,-1.2024536,-0.13458252
1601136999234,1809,0.19873047,-0.9085083,-0.15582275
1601136999234,1810,0.22875977,-0.9573364,-0.28253174
1601136999234,1811,0.13330078,-0.9573364,0.22161865
1601136999234,1812,0.2446289,-1.2024536,-0.13458252
1601136999235,1813,0.2446289,-1.2024536,-0.13458252
1601136999235,1814,0.19580078,-0.90216064,0.19476318
1601136999235,1815,0.2446289,-1.2024536,-0.13458252
1601136999235,1816,0.19580078,-0.90216064,0.19476318
1601136999235,1817,0.22875977,-0.9573364,-0.28253174
1601136999235,1818,0.2709961,-0.99884033,-0.2341919
1601136999235,1819,0.24047852,-0.86260986,-0.01739502
1601136999235,1820,0.17553711,-0.8843384,0.008239746
1601136999235,1821,0.2709961,-0.99884033,-0.2341919
1601136999235,1822,0.2709961,-0.99884033,-0.2341919
1601136999235,1823,0.22875977,-0.9573364,-0.28253174
1601136999235,1824,0.13330078,-0.9573364,0.22161865
1601136999235,1825,0.2446289,-1.2024536,-0.13458252
1601136999235,1826,0.12036133,-0.94659424,0.22332764
1601136999237,1827,0.19873047,-0.9085083,-0.15582275
1601136999237,1828,0.19873047,-0.9085083,-0.15582275
1601136999238,1829,0.12036133,-0.94659424,0.22332764
1601136999242,1830,0.2446289,-1.2024536,-0.13458252
1601136999242,1831,0.13330078,-0.9573364,0.22161865
1601136999243,1832,0.1418457,-1.0274048,0.24481201
1601136999243,1833,0.23413086,-1.0005493,-0.11993408
1601136999243,1834,0.1418457,-1.0274048,0.24481201
1601136999243,1835,0.31469727,-1.0176392,0.054870605
1601136999243,1836,0.19873047,-0.9085083,-0.15582275
1601136999243,1837,0.14501953,-1.1255493,-0.050598145
1601136999243,1838,0.12036133,-0.94659424,0.22332764
1601136999243,1839,0.036132812,-0.8726196,-0.005432129
1601136999243,1840,0.24047852,-0.86260986,-0.01739502
1601136999245,1841,0.09008789,-1.2781372,0.023376465
1601136999245,1842,0.24047852,-0.86260986,-0.01739502
1601136999250,1843,0.2709961,-0.99884033,-0.2341919
1601136999250,1844,0.24047852,-0.86260986,-0.01739502
1601136999250,1845,0.09008789,-1.2781372,0.023376465
1601136999251,1846,0.23413086,-1.0005493,-0.11993408
1601136999251,1847,0.23583984,-1.2092896,0.21722412
1601136999251,1848,0.1418457,-1.0274048,0.24481201
1601136999251,1849,0.2709961,-0.99884033,-0.2341919
1601136999251,1850,0.17553711,-0.8843384,0.008239746
1601136999251,1851,0.23413086,-1.0005493,-0.11993408
1601136999251,1852,0.22875977,-0.9573364,-0.28253174
1601136999251,1853,0.23413086,-1.0005493,-0.11993408
1601136999251,1854,0.19873047,-0.9085083,-0.15582275
1601136999259,1855,0.2709961,-0.99884033,-0.2341919
1601136999260,1856,0.09008789,-1.2781372,0.023376465
1601136999261,1857,0.19873047,-0.9085083,-0.15582275
1601136999261,1858,0.19873047,-0.9085083,-0.15582275
1601136999261,1859,0.31469727,-1.0176392,0.054870605
1601136999261,1860,0.2446289,-1.2024536,-0.13458252
1601136999261,1861,0.17553711,-0.8843384,0.008239746
1601136999261,1862,0.24047852,-0.86260986,-0.01739502
1601136999261,1863,0.24047852,-0.86260986,-0.01739502
1601136999261,1864,0.31469727,-1.0176392,0.054870605
1601136999261,1865,0.23413086,-1.0005493,-0.11993408
1601136999261,1866,0.14501953,-1.1255493,-0.050598145
1601136999262,1867,0.14501953,-1.1255493,-0.050598145
1601136999262,1868,0.2709961,-0.99884033,-0.2341919
1601136999263,1869,0.23413086,-1.0005493,-0.11993408
1601136999264,1870,0.31469727,-1.0176392,0.054870605
1601136999264,1871,0.24047852,-0.86260986,-0.01739502
1601136999266,1872,0.31469727,-1.0176392,0.054870605
1601136999266,1873,0.036132812,-0.8726196,-0.005432129
1601136999266,1874,0.19873047,-0.9085083,-0.15582275
1601136999269,1875,0.17553711,-0.8843384,0.008239746
1601136999269,1876,0.23583984,-1.2092896,0.21722412
1601136999269,1877,0.24047852,-0.86260986,-0.01739502
1601136999270,1878,0.23413086,-1.0005493,-0.11993408
1601136999270,1879,0.036132812,-0.8726196,-0.005432129
1601136999270,1880,0.14501953,-1.1255493,-0.050598145
1601136999270,1881,0.22875977,-0.9573364,-0.28253174
1601136999270,1882,0.14501953,-1.1255493,-0.050598145
1601136999278,1883,0.036132812,-0.8726196,-0.005432129
1601136999278,1884,0.22875977,-0.9573364,-0.28253174
1601136999278,1885,0.23583984,-1.2092896,0.21722412
1601136999278,1886,0.31469727,-1.0176392,0.054870605
1601136999278,1887,0.23583984,-1.2092896,0.21722412
1601136999278,1888,0.2446289,-1.2024536,-0.13458252
1601136999279,1889,0.31469727,-1.0176392,0.054870605
1601136999279,1890,0.2709961,-0.99884033,-0.2341919
1601136999279,1891,0.036132812,-0.8726196,-0.005432129
1601136999279,1892,0.19873047,-0.9085083,-0.15582275
1601136999279,1893,0.23413086,-1.0005493,-0.11993408
1601136999279,1894,0.24047852,-0.86260986,-0.01739502
1601136999279,1895,0.23413086,-1.0005493,-0.11993408
1601136999279,1896,0.14501953,-1.1255493,-0.050598145
1601136999279,1897,0.23583984,-1.2092896,0.21722412
1601136999279,1898,0.31469727,-1.0176392,0.054870605
1601136999280,1899,0.31469727,-1.0176392,0.054870605
1601136999282,1900,0.14501953,-1.1255493,-0.050598145
1601136999283,1901,0.14501953,-1.1255493,-0.050598145
1601136999292,1902,0.2446289,-1.2024536,-0.13458252
1601136999292,1903,0.14501953,-1.1255493,-0.050598145
1601136999292,1904,0.036132812,-0.8726196,-0.005432129
1601136999292,1905,0.036132812,-0.8726196,-0.005432129
1601136999293,1906,0.23583984,-1.2092896,0.21722412
1601136999293,1907,0.2709961,-0.99884033,-0.2341919
1601136999293,1908,0.036132812,-0.8726196,-0.005432129
1601136999293,1909,0.23583984,-1.2092896,0.21722412
1601136999293,1910,0.036132812,-0.8726196,-0.005432129
1601136999293,1911,0.23583984,-1.2092896,0.21722412
1601136999294,1912,0.23583984,-1.2092896,0.21722412
1601136999295,1913,0.19873047,-0.9085083,-0.15582275
1601136999295,1914,0.24047852,-0.86260986,-0.01739502
1601136999295,1915,0.23413086,-1.0005493,-0.11993408
1601136999295,1916,0.31469727,-1.0176392,0.054870605
1601136999295,1917,0.14501953,-1.1255493,-0.050598145
1601136999310,1918,0.036132812,-0.8726196,-0.005432129
1601136999310,1919,0.23583984,-1.2092896,0.21722412
1601137001662,1920,0.15698242,-1.0237427,0.0446167
1601137001664,1921,0.15698242,-1.0237427,0.0446167
1601137001665,1922,0.15698242,-1.0237427,0.0446167
1601137001665,1923,0.15698242,-1.0237427,0.0446167
1601137001666,1924,0.15698242,-1.0237427,0.0446167
1601137001666,1925,0.17993164,-0.8882446,0.019958496
1601137001670,1926,0.15698242,-1.0237427,0.0446167
1601137001670,1927,0.17993164,-0.8882446,0.019958496
1601137001670,1928,0.15698242,-1.0237427,0.0446167
1601137001670,1929,0.17993164,-0.8882446,0.019958496
1601137001670,1930,0.15698242,-1.0237427,0.0446167
1601137001670,1931,0.14868164,-0.88165283,-0.06817627
1601137001671,1932,0.15698242,-1.0237427,0.0446167
1601137001671,1933,0.22241211,-0.9734497,-0.028381348
1601137001671,1934,0.17993164,-0.8882446,0.019958496
1601137001674,1935,0.14868164,-0.88165283,-0.06817627
1601137001675,1936,0.14868164,-0.88165283,-0.06817627
1601137001681,1937,0.17993164,-0.8882446,0.019958496
1601137001681,1938,0.14868164,-0.88165283,-0.06817627
1601137001681,1939,0.17993164,-0.8882446,0.019958496
1601137001681,1940,0.22241211,-0.9734497,-0.028381348
1601137001681,1941,0.17993164,-0.8882446,0.019958496
1601137001682,1942,0.14868164,-0.88165283,-0.06817627
1601137001682,1943,0.14868164,-0.88165283,-0.06817627
1601137001682,1944,0.17993164,-0.8882446,0.019958496
1601137001682,1945,0.22241211,-0.9734497,-0.028381348
1601137001682,1946,0.15698242,-1.0237427,0.0446167
1601137001683,1947,0.17993164,-0.8882446,0.019958496
1601137001684,1948,0.16259766,-1.0596313,-0.051086426
1601137001685,1949,0.14868164,-0.88165283,-0.06817627
1601137001686,1950,0.14868164,-0.88165283,-0.06817627
1601137001692,1951,0.22241211,-0.9734497,-0.028381348
1601137001692,1952,0.17993164,-0.8882446,0.019958496
1601137001693,1953,0.16259766,-1.0596313,-0.051086426
1601137001693,1954,0.16259766,-1.0596313,-0.051086426
1601137001693,1955,0.22241211,-0.9734497,-0.028381348
1601137001693,1956,-0.13427734,-1.0371704,0.055358887
1601137001693,1957,-0.13427734,-1.0371704,0.055358887
1601137001694,1958,-0.05517578,-1.3135376,-0.12408447
1601137001694,1959,0.22241211,-0.9734497,-0.028381348
1601137001695,1960,0.22241211,-0.9734497,-0.028381348
1601137001701,1961,0.14868164,-0.88165283,-0.06817627
1601137001701,1962,0.22241211,-0.9734497,-0.028381348
1601137001703,1963,-0.13427734,-1.0371704,0.055358887
1601137001703,1964,0.16259766,-1.0596313,-0.051086426
1601137001703,1965,-0.13427734,-1.0371704,0.055358887
1601137001703,1966,-0.05517578,-1.3135376,-0.12408447
1601137001703,1967,0.16259766,-1.0596313,-0.051086426
1601137001703,1968,0.18334961,-0.94244385,-0.25665283
1601137001703,1969,0.14868164,-0.88165283,-0.06817627
1601137001703,1970,0.16259766,-1.0596313,-0.051086426
1601137001723,1971,0.22241211,-0.9734497,-0.028381348
1601137001723,1972,0.16259766,-1.0596313,-0.051086426
1601137001723,1973,0.16259766,-1.0596313,-0.051086426
1601137001723,1974,-0.05517578,-1.3135376,-0.12408447
1601137001723,1975,0.16259766,-1.0596313,-0.051086426
1601137001723,1976,0.18334961,-0.94244385,-0.25665283
1601137001723,1977,0.18334961,-0.94244385,-0.25665283
1601137001723,1978,-0.13427734,-1.0371704,0.055358887
1601137001723,1979,0.2668457,-0.85723877,-0.2637329
1601137001723,1980,0.22241211,-0.9734497,-0.028381348
1601137001723,1981,-0.05517578,-1.3135376,-0.12408447
1601137001723,1982,-0.05517578,-1.3135376,-0.12408447
1601137001724,1983,-0.13427734,-1.0371704,0.055358887
1601137001724,1984,0.18334961,-0.94244385,-0.25665283
1601137001724,1985,-0.05517578,-1.3135376,-0.12408447
1601137001724,1986,-0.13427734,-1.0371704,0.055358887
1601137001724,1987,-0.13427734,-1.0371704,0.055358887
1601137001724,1988,-0.13427734,-1.0371704,0.055358887
1601137001724,1989,0.1262207,-1.2612915,-0.11212158
1601137001724,1990,-0.05517578,-1.3135376,-0.12408447
1601137001724,1991,0.16259766,-1.0596313,-0.051086426
1601137001724,1992,0.18334961,-0.94244385,-0.25665283
1601137001724,1993,-0.13427734,-1.0371704,0.055358887
1601137001724,1994,0.2668457,-0.85723877,-0.2637329
1601137001724,1995,-0.05517578,-1.3135376,-0.12408447
1601137001724,1996,0.2668457,-0.85723877,-0.2637329
1601137001724,1997,0.1262207,-1.2612915,-0.11212158
1601137001724,1998,0.1262207,-1.2612915,-0.11212158
1601137001725,1999,0.18334961,-0.94244385,-0.25665283
1601137001725,2000,0.18334961,-0.94244385,-0.25665283
1601137001725,2001,0.2668457,-0.85723877,-0.2637329
1601137001725,2002,0.2668457,-0.85723877,-0.2637329
1601137001725,2003,0.29467773,-0.97540283,-0.038879395
1601137001725,2004,0.2668457,-0.85723877,-0.2637329
1601137001725,2005,0.1262207,-1.2612915,-0.11212158
1601137001725,2006,0.052246094,-0.91973877,-0.08062744
1601137001726,2007,-0.05517578,-1.3135376,-0.12408447
1601137001726,2008,0.29467773,-0.97540283,-0.038879395
1601137001726,2009,0.2668457,-0.85723877,-0.2637329
1601137001727,2010,0.1262207,-1.2612915,-0.11212158
1601137001727,2011,0.18334961,-0.94244385,-0.25665283
1601137001727,2012,0.29467773,-0.97540283,-0.038879395
1601137001727,2013,0.2668457,-0.85723877,-0.2637329
1601137001727,2014,0.1262207,-1.2612915,-0.11212158
1601137001727,2015,0.052246094,-0.91973877,-0.08062744
1601137001727,2016,0.1262207,-1.2612915,-0.11212158
1601137001729,2017,0.1262207,-1.2612915,-0.11212158
1601137001729,2018,0.052246094,-0.91973877,-0.08062744
1601137001733,2019,-0.05517578,-1.3135376,-0.12408447
1601137001734,2020,0.29467773,-0.97540283,-0.038879395
1601137001734,2021,0.29467773,-0.97540283,-0.038879395
1601137001734,2022,0.18334961,-0.94244385,-0.25665283
1601137001734,2023,0.052246094,-0.91973877,-0.08062744
1601137001734,2024,0.29467773,-0.97540283,-0.038879395
1601137001734,2025,0.29467773,-0.97540283,-0.038879395
1601137001734,2026,0.29467773,-0.97540283,-0.038879395
1601137001735,2027,0.12451172,-0.9795532,-0.1428833
1601137001735,2028,0.12451172,-0.9795532,-0.1428833
1601137001735,2029,0.052246094,-0.91973877,-0.08062744
1601137001759,2030,0.2668457,-0.85723877,-0.2637329
1601137001759,2031,0.12451172,-0.9795532,-0.1428833
1601137001760,2032,0.052246094,-0.91973877,-0.08062744
1601137001760,2033,0.052246094,-0.91973877,-0.08062744
1601137001760,2034,0.052246094,-0.91973877,-0.08062744
1601137001760,2035,0.32885742,-1.1182251,-0.11505127
1601137001760,2036,0.32885742,-1.1182251,-0.11505127
1601137001760,2037,0.18334961,-0.94244385,-0.25665283
1601137001760,2038,0.3791504,-0.9907837,0.035583496
1601137001760,2039,0.32885742,-1.1182251,-0.11505127
1601137001761,2040,0.12451172,-0.9795532,-0.1428833
1601137001761,2041,0.1262207,-1.2612915,-0.11212158
1601137001761,2042,0.12451172,-0.9795532,-0.1428833
1601137001761,2043,0.12451172,-0.9795532,-0.1428833
1601137001761,2044,0.12451172,-0.9795532,-0.1428833
1601137001761,2045,0.12451172,-0.9795532,-0.1428833
1601137001761,2046,0.32885742,-1.1182251,-0.11505127
1601137001761,2047,0.19628906,-0.83843994,0.07196045
1601137001762,2048,0.32885742,-1.1182251,-0.11505127
1601137001762,2049,0.32885742,-1.1182251,-0.11505127
1601137001762,2050,0.3791504,-0.9907837,0.035583496
1601137001763,2051,0.18139648,-0.9624634,-0.07159424
1601137001763,2052,0.3791504,-0.9907837,0.035583496
1601137001763,2053,0.31762695,-1.0198364,0.04095459
1601137001763,2054,0.32885742,-1.1182251,-0.11505127
1601137001763,2055,0.29467773,-1.0354614,0.019226074
1601137001763,2056,0.19628906,-0.83843994,0.07196045
1601137001763,2057,0.2668457,-0.85723877,-0.2637329
1601137001763,2058,0.3791504,-0.9907837,0.035583496
1601137001764,2059,0.32885742,-1.1182251,-0.11505127
1601137001764,2060,0.3791504,-0.9907837,0.035583496
1601137001764,2061,0.3791504,-0.9907837,0.035583496
1601137001764,2062,0.19628906,-0.83843994,0.07196045
1601137001764,2063,0.19628906,-0.83843994,0.07196045
1601137001764,2064,0.3791504,-0.9907837,0.035583496
1601137001764,2065,0.18139648,-0.9624634,-0.07159424
1601137001766,2066,0.29467773,-0.97540283,-0.038879395
1601137001766,2067,0.18139648,-0.9624634,-0.07159424
1601137001767,2068,0.1262207,-1.2612915,-0.11212158
1601137001767,2069,0.19628906,-0.83843994,0.07196045
1601137001767,2070,0.052246094,-0.91973877,-0.08062744
1601137001767,2071,0.31762695,-1.0198364,0.04095459
1601137001767,2072,0.29052734,-0.9500122,0.0067749023
1601137001768,2073,0.31762695,-1.0198364,0.04095459
1601137001769,2074,0.19628906,-0.83843994,0.07196045
1601137001769,2075,0.29467773,-0.97540283,-0.038879395
1601137001769,2076,0.18139648,-0.9624634,-0.07159424
1601137001769,2077,0.12451172,-0.9795532,-0.1428833
1601137001769,2078,0.31762695,-1.0198364,0.04095459
1601137001769,2079,0.14941406,-0.991272,0.168396
1601137001769,2080,0.29467773,-1.0354614,0.019226074
1601137001769,2081,0.19628906,-0.83843994,0.07196045
1601137001769,2082,0.29467773,-1.0354614,0.019226074
1601137001770,2083,0.3791504,-0.9907837,0.035583496
1601137001770,2084,0.29052734,-0.9500122,0.0067749023
1601137001770,2085,0.19628906,-0.83843994,0.07196045
1601137001774,2086,0.29467773,-1.0354614,0.019226074
1601137001774,2087,0.18139648,-0.9624634,-0.07159424
1601137001775,2088,0.18139648,-0.9624634,-0.07159424
1601137001775,2089,0.29052734,-0.9500122,0.0067749023
1601137001775,2090,0.29052734,-0.9500122,0.0067749023
1601137001775,2091,0.18139648,-0.9624634,-0.07159424
1601137001775,2092,0.14941406,-0.991272,0.168396
1601137001775,2093,0.052246094,-0.91973877,-0.08062744
1601137001775,2094,0.18139648,-0.9624634,-0.07159424
1601137001775,2095,0.10473633,-0.80596924,0.036071777
1601137001777,2096,0.31762695,-1.0198364,0.04095459
1601137001786,2097,0.10473633,-0.80596924,0.036071777
1601137001786,2098,0.29467773,-1.0354614,0.019226074
1601137001786,2099,0.14941406,-0.991272,0.168396
1601137001786,2100,0.14941406,-0.991272,0.168396
1601137001786,2101,0.12451172,-0.9795532,-0.1428833
1601137001786,2102,0.32885742,-1.1182251,-0.11505127
1601137001787,2103,0.32885742,-1.1182251,-0.11505127
1601137001787,2104,0.0041503906,-1.3499146,0.22991943
1601137001787,2105,0.31762695,-1.0198364,0.04095459
1601137001787,2106,0.0847168,-0.881897,0.14984131
1601137001787,2107,-0.0847168,-1.1502075,0.30975342
1601137001787,2108,0.29052734,-0.9500122,0.0067749023
1601137001787,2109,0.29467773,-1.0354614,0.019226074
1601137001787,2110,0.10473633,-0.80596924,0.036071777
1601137001787,2111,0.0041503906,-1.3499146,0.22991943
1601137001787,2112,0.14941406,-0.991272,0.168396
1601137001787,2113,0.29052734,-0.9500122,0.0067749023
1601137001788,2114,0.3791504,-0.9907837,0.035583496
1601137001788,2115,0.0847168,-0.881897,0.14984131
1601137001792,2116,0.31762695,-1.0198364,0.04095459
1601137001793,2117,0.0041503906,-1.3499146,0.22991943
1601137001793,2118,0.29467773,-1.0354614,0.019226074
1601137001793,2119,0.31762695,-1.0198364,0.04095459
1601137001793,2120,0.3791504,-0.9907837,0.035583496
1601137001793,2121,0.29052734,-0.9500122,0.0067749023
1601137001793,2122,0.0847168,-0.881897,0.14984131
1601137001793,2123,0.10473633,-0.80596924,0.036071777
1601137001794,2124,0.14941406,-0.991272,0.168396
1601137001794,2125,0.19628906,-0.83843994,0.07196045
1601137001794,2126,0.14941406,-0.991272,0.168396
1601137001795,2127,0.10473633,-0.80596924,0.036071777
1601137001796,2128,-0.0847168,-1.1502075,0.30975342
1601137001798,2129,0.19628906,-0.83843994,0.07196045
1601137001804,2130,0.0041503906,-1.3499146,0.22991943
1601137001804,2131,0.10473633,-0.80596924,0.036071777
1601137001805,2132,0.0847168,-0.881897,0.14984131
1601137001805,2133,0.10473633,-0.80596924,0.036071777
1601137001805,2134,-0.0847168,-1.1502075,0.30975342
1601137001805,2135,-0.0847168,-1.1502075,0.30975342
1601137001806,2136,0.29467773,-1.0354614,0.019226074
1601137001806,2137,-0.19067383,-0.8826294,0.054626465
1601137001806,2138,-0.19067383,-0.8826294,0.054626465
1601137001806,2139,0.18139648,-0.9624634,-0.07159424
1601137001806,2140,0.0041503906,-1.3499146,0.22991943
1601137001806,2141,-0.19067383,-0.8826294,0.054626465
1601137001806,2142,0.31762695,-1.0198364,0.04095459
1601137001806,2143,0.0041503906,-1.3499146,0.22991943
1601137001807,2144,0.0041503906,-1.3499146,0.22991943
1601137001809,2145,0.18139648,-0.9624634,-0.07159424
1601137001809,2146,0.29052734,-0.9500122,0.0067749023
1601137001813,2147,-0.2055664,-1.0237427,0.1461792
1601137001813,2148,0.29467773,-1.0354614,0.019226074
1601137001813,2149,0.0847168,-0.881897,0.14984131
1601137001813,2150,-0.23950195,-0.9800415,-0.03302002
1601137001813,2151,-0.2055664,-1.0237427,0.1461792
1601137001813,2152,-0.2055664,-1.0237427,0.1461792
1601137001814,2153,-0.24902344,-1.0718384,-0.015930176
1601137001814,2154,0.0847168,-0.881897,0.14984131
1601137001814,2155,0.14941406,-0.991272,0.168396
1601137001816,2156,0.29052734,-0.9500122,0.0067749023
1601137001816,2157,-0.0847168,-1.1502075,0.30975342
1601137001817,2158,-0.23950195,-0.9800415,-0.03302002
1601137001817,2159,-0.23950195,-0.9800415,-0.03302002
1601137001819,2160,-0.10522461,-0.9680786,0.043640137
1601137001819,2161,0.10473633,-0.80596924,0.036071777
1601137001821,2162,0.14941406,-0.991272,0.168396
1601137001822,2163,0.0041503906,-1.3499146,0.22991943
1601137001822,2164,-0.19067383,-0.8826294,0.054626465
1601137001822,2165,-0.24902344,-1.0718384,-0.015930176
1601137001822,2166,0.08154297,-1.1743774,-0.022033691
1601137001822,2167,0.31762695,-1.0198364,0.04095459
1601137001823,2168,-0.24902344,-1.0718384,-0.015930176
1601137001823,2169,-0.19067383,-0.8826294,0.054626465
1601137001823,2170,0.29467773,-1.0354614,0.019226074
1601137001824,2171,0.0847168,-0.881897,0.14984131
1601137001824,2172,-0.0847168,-1.1502075,0.30975342
1601137001827,2173,-0.2055664,-1.0237427,0.1461792
1601137001827,2174,0.44262695,-0.94488525,-0.21954346
1601137001828,2175,-0.2055664,-1.0237427,0.1461792
1601137001832,2176,0.29052734,-0.9500122,0.0067749023
1601137001833,2177,0.0847168,-0.881897,0.14984131
1601137001833,2178,-0.0847168,-1.1502075,0.30975342
1601137001833,2179,-0.19067383,-0.8826294,0.054626465
1601137001833,2180,-0.10522461,-0.9680786,0.043640137
1601137001833,2181,-0.23950195,-0.9800415,-0.03302002
1601137001833,2182,-0.2055664,-1.0237427,0.1461792
1601137001833,2183,-0.23950195,-0.9800415,-0.03302002
1601137001833,2184,-0.10522461,-0.9680786,0.043640137
1601137001842,2185,-0.23950195,-0.9800415,-0.03302002
1601137001843,2186,0.14941406,-0.991272,0.168396
1601137001843,2187,-0.0847168,-1.1502075,0.30975342
1601137001843,2188,0.10473633,-0.80596924,0.036071777
1601137001843,2189,-0.19067383,-0.8826294,0.054626465
1601137001843,2190,-0.24902344,-1.0718384,-0.015930176
1601137001843,2191,-0.19067383,-0.8826294,0.054626465
1601137001843,2192,0.08154297,-1.1743774,-0.022033691
1601137001843,2193,-0.2055664,-1.0237427,0.1461792
1601137001844,2194,0.10473633,-0.80596924,0.036071777
1601137001844,2195,0.0041503906,-1.3499146,0.22991943
1601137001844,2196,-0.23950195,-0.9800415,-0.03302002
1601137001844,2197,-0.24902344,-1.0718384,-0.015930176
1601137001844,2198,0.08154297,-1.1743774,-0.022033691
1601137001844,2199,-0.2055664,-1.0237427,0.1461792
1601137001844,2200,-0.10522461,-0.9680786,0.043640137
1601137001844,2201,-0.24902344,-1.0718384,-0.015930176
1601137001845,2202,0.44262695,-0.94488525,-0.21954346
1601137001848,2203,0.0847168,-0.881897,0.14984131
1601137001848,2204,-0.23950195,-0.9800415,-0.03302002
1601137001848,2205,0.08154297,-1.1743774,-0.022033691
1601137001848,2206,0.44262695,-0.94488525,-0.21954346
1601137001848,2207,0.0041503906,-1.3499146,0.22991943
1601137001849,2208,-0.10522461,-0.9680786,0.043640137
1601137001849,2209,-0.24902344,-1.0718384,-0.015930176
1601137001849,2210,-0.24902344,-1.0718384,-0.015930176
1601137001849,2211,-0.10522461,-0.9680786,0.043640137
1601137001849,2212,-0.0847168,-1.1502075,0.30975342
1601137001850,2213,0.08154297,-1.1743774,-0.022033691
1601137001851,2214,-0.10522461,-0.9680786,0.043640137
1601137001852,2215,0.08154297,-1.1743774,-0.022033691
1601137001855,2216,-0.19067383,-0.8826294,0.054626465
1601137001855,2217,0.0847168,-0.881897,0.14984131
1601137001855,2218,0.44262695,-0.94488525,-0.21954346
1601137001855,2219,0.44262695,-0.94488525,-0.21954346
1601137001855,2220,-0.0847168,-1.1502075,0.30975342
1601137001855,2221,0.44262695,-0.94488525,-0.21954346
1601137001862,2222,-0.2055664,-1.0237427,0.1461792
1601137001862,2223,0.08154297,-1.1743774,-0.022033691
1601137001862,2224,-0.10522461,-0.9680786,0.043640137
1601137001862,2225,-0.23950195,-0.9800415,-0.03302002
1601137001862,2226,-0.19067383,-0.8826294,0.054626465
1601137001862,2227,-0.2055664,-1.0237427,0.1461792
1601137001862,2228,-0.23950195,-0.9800415,-0.03302002
1601137001862,2229,-0.24902344,-1.0718384,-0.015930176
1601137001863,2230,-0.24902344,-1.0718384,-0.015930176
1601137001863,2231,0.44262695,-0.94488525,-0.21954346
1601137001863,2232,0.08154297,-1.1743774,-0.022033691
1601137001865,2233,-0.10522461,-0.9680786,0.043640137
1601137001865,2234,-0.10522461,-0.9680786,0.043640137
1601137001865,2235,0.44262695,-0.94488525,-0.21954346
1601137001866,2236,0.08154297,-1.1743774,-0.022033691
1601137001866,2237,0.08154297,-1.1743774,-0.022033691
1601137001869,2238,0.44262695,-0.94488525,-0.21954346
1601137001869,2239,0.44262695,-0.94488525,-0.21954346
1601137004203,2240,0.38867188,-1.0962524,0.17962646
1601137004204,2241,0.38867188,-1.0962524,0.17962646
1601137004204,2242,0.38867188,-1.0962524,0.17962646
1601137004204,2243,0.38867188,-1.0962524,0.17962646
1601137004204,2244,0.38867188,-1.0962524,0.17962646
1601137004205,2245,0.27539062,-1.0220337,-0.14508057
1601137004206,2246,0.38867188,-1.0962524,0.17962646
1601137004209,2247,0.27539062,-1.0220337,-0.14508057
1601137004209,2248,0.27539062,-1.0220337,-0.14508057
1601137004216,2249,0.38867188,-1.0962524,0.17962646
1601137004216,2250,0.27539062,-1.0220337,-0.14508057
1601137004216,2251,0.22729492,-0.87872314,0.070495605
1601137004217,2252,0.38867188,-1.0962524,0.17962646
1601137004217,2253,0.38867188,-1.0962524,0.17962646
1601137004217,2254,0.38867188,-1.0962524,0.17962646
1601137004217,2255,0.27539062,-1.0220337,-0.14508057
1601137004217,2256,0.22338867,-0.86065674,-0.041809082
1601137004218,2257,0.22729492,-0.87872314,0.070495605
1601137004222,2258,0.22729492,-0.87872314,0.070495605
1601137004222,2259,0.27539062,-1.0220337,-0.14508057
1601137004222,2260,0.22338867,-0.86065674,-0.041809082
1601137004222,2261,0.27539062,-1.0220337,-0.14508057
1601137004222,2262,0.22729492,-0.87872314,0.070495605
1601137004222,2263,0.27539062,-1.0220337,-0.14508057
1601137004222,2264,0.27539062,-1.0220337,-0.14508057
1601137004222,2265,0.22729492,-0.87872314,0.070495605
1601137004223,2266,0.18652344,-1.0396118,0.08465576
1601137004223,2267,0.27539062,-1.0220337,-0.14508057
1601137004223,2268,0.19335938,-1.0254517,0.045837402
1601137004224,2269,0.22338867,-0.86065674,-0.041809082
1601137004224,2270,0.18652344,-1.0396118,0.08465576
1601137004225,2271,0.22338867,-0.86065674,-0.041809082
1601137004226,2272,0.22729492,-0.87872314,0.070495605
1601137004228,2273,0.22338867,-0.86065674,-0.041809082
1601137004229,2274,0.18652344,-1.0396118,0.08465576
1601137004230,2275,0.22729492,-0.87872314,0.070495605
1601137004233,2276,0.19335938,-1.0254517,0.045837402
1601137004233,2277,0.18652344,-1.0396118,0.08465576
1601137004233,2278,0.22729492,-0.87872314,0.070495605
1601137004234,2279,0.18652344,-1.0396118,0.08465576
1601137004235,2280,0.0017089844,-1.3010864,-0.14263916
1601137004236,2281,0.22338867,-0.86065674,-0.041809082
1601137004237,2282,0.22729492,-0.87872314,0.070495605
1601137004237,2283,0.22338867,-0.86065674,-0.041809082
