# Sensor position: Front pocket (trouser)
# Sensor side: Left
# Activity type: Movement
# Activity code: 9
# Subject id: s1735229
timestamp,seq,accel_x,accel_y,accel_z
1601132920531,0,-0.06665039,1.1176147,-0.12579346
1601132920531,1,-0.06665039,1.1176147,-0.12579346
1601132920537,2,-0.06665039,1.1176147,-0.12579346
1601132920537,3,-0.06665039,1.1176147,-0.12579346
1601132920538,4,-0.06665039,1.1176147,-0.12579346
1601132920538,5,-0.06665039,1.1176147,-0.12579346
1601132920538,6,-0.06665039,1.1176147,-0.12579346
1601132920538,7,-0.42138672,1.0687866,-0.18756104
1601132920539,8,-0.42138672,1.0687866,-0.18756104
1601132920539,9,-0.42138672,1.0687866,-0.18756104
1601132920542,10,-0.42138672,1.0687866,-0.18756104
1601132920542,11,-0.06665039,1.1176147,-0.12579346
1601132920542,12,-0.42138672,1.0687866,-0.18756104
1601132920544,13,-0.5031738,1.0119019,-0.050354004
1601132920544,14,-0.5031738,1.0119019,-0.050354004
1601132920544,15,-0.42138672,1.0687866,-0.18756104
1601132920544,16,-0.5031738,1.0119019,-0.050354004
1601132920545,17,-0.42138672,1.0687866,-0.18756104
1601132920545,18,-0.06665039,1.1176147,-0.12579346
1601132920545,19,-0.5031738,1.0119019,-0.050354004
1601132920545,20,-0.06665039,1.1176147,-0.12579346
1601132920545,21,-0.16552734,0.8925171,-0.21734619
1601132920545,22,-0.5031738,1.0119019,-0.050354004
1601132920545,23,-0.42138672,1.0687866,-0.18756104
1601132920545,24,-0.42138672,1.0687866,-0.18756104
1601132920545,25,-0.16552734,0.8925171,-0.21734619
1601132920545,26,-0.4921875,0.6376343,0.023132324
1601132920545,27,-0.42138672,1.0687866,-0.18756104
1601132920545,28,-0.16552734,0.8925171,-0.21734619
1601132920545,29,-0.16552734,0.8925171,-0.21734619
1601132920545,30,-0.5031738,1.0119019,-0.050354004
1601132920545,31,-0.5031738,1.0119019,-0.050354004
1601132920545,32,-0.4921875,0.6376343,0.023132324
1601132920545,33,-0.5031738,1.0119019,-0.050354004
1601132920548,34,-0.37475586,0.67596436,0.047058105
1601132920548,35,-0.16552734,0.8925171,-0.21734619
1601132920548,36,-0.4921875,0.6376343,0.023132324
1601132920549,37,-0.5031738,1.0119019,-0.050354004
1601132920549,38,-0.5031738,1.0119019,-0.050354004
1601132920549,39,-0.37475586,0.67596436,0.047058105
1601132920549,40,-0.37475586,0.67596436,0.047058105
1601132920549,41,-0.4921875,0.6376343,0.023132324
1601132920549,42,-0.16552734,0.8925171,-0.21734619
1601132920550,43,-0.16552734,0.8925171,-0.21734619
1601132920551,44,-0.4921875,0.6376343,0.023132324
1601132920551,45,-0.39794922,0.7157593,0.04144287
1601132920553,46,-0.34545898,1.1813354,0.44476318
1601132920557,47,-0.16552734,0.8925171,-0.21734619
1601132920557,48,-0.16552734,0.8925171,-0.21734619
1601132920557,49,-0.39794922,0.7157593,0.04144287
1601132920557,50,-0.16552734,0.8925171,-0.21734619
1601132920557,51,-0.39794922,0.7157593,0.04144287
1601132920557,52,-0.34545898,1.1813354,0.44476318
1601132920557,53,-0.37475586,0.67596436,0.047058105
1601132920558,54,-0.37475586,0.67596436,0.047058105
1601132920558,55,-0.4921875,0.6376343,0.023132324
1601132920558,56,-0.4921875,0.6376343,0.023132324
1601132920558,57,-0.47827148,0.80511475,-0.20733643
1601132920558,58,-0.4921875,0.6376343,0.023132324
1601132920571,59,-0.4921875,0.6376343,0.023132324
1601132920571,60,-0.37475586,0.67596436,0.047058105
1601132920572,61,-0.34545898,1.1813354,0.44476318
1601132920572,62,-0.39794922,0.7157593,0.04144287
1601132920572,63,-0.4921875,0.6376343,0.023132324
1601132920572,64,-0.37475586,0.67596436,0.047058105
1601132920572,65,-0.37475586,0.67596436,0.047058105
1601132920572,66,0.05419922,0.9389038,0.03265381
1601132920572,67,-0.37475586,0.67596436,0.047058105
1601132920572,68,-0.031982422,1.0387573,-0.13604736
1601132920573,69,-0.39794922,0.7157593,0.04144287
1601132920573,70,-0.39794922,0.7157593,0.04144287
1601132920573,71,-0.37475586,0.67596436,0.047058105
1601132920573,72,-0.34545898,1.1813354,0.44476318
1601132920573,73,-0.47827148,0.80511475,-0.20733643
1601132920573,74,-0.39794922,0.7157593,0.04144287
1601132920573,75,-0.47827148,0.80511475,-0.20733643
1601132920573,76,-0.1381836,0.9413452,-0.05279541
1601132920573,77,-0.47827148,0.80511475,-0.20733643
1601132920574,78,-0.39794922,0.7157593,0.04144287
1601132920574,79,-0.34545898,1.1813354,0.44476318
1601132920574,80,-0.34545898,1.1813354,0.44476318
1601132920574,81,0.05419922,0.9389038,0.03265381
1601132920574,82,-0.34545898,1.1813354,0.44476318
1601132920574,83,-0.39794922,0.7157593,0.04144287
1601132920574,84,-0.031982422,1.0387573,-0.13604736
1601132920574,85,0.05419922,0.9389038,0.03265381
1601132920574,86,-0.47827148,0.80511475,-0.20733643
1601132920575,87,-0.1381836,0.9413452,-0.05279541
1601132920575,88,-0.39794922,0.7157593,0.04144287
1601132920575,89,-0.47827148,0.80511475,-0.20733643
1601132920575,90,-0.016601562,0.97283936,-0.047668457
1601132920575,91,-0.47827148,0.80511475,-0.20733643
1601132920576,92,0.05419922,0.9389038,0.03265381
1601132920576,93,0.05419922,0.9389038,0.03265381
1601132920576,94,-0.031982422,1.0387573,-0.13604736
1601132920576,95,0.05419922,0.9389038,0.03265381
1601132920576,96,-0.031982422,1.0387573,-0.13604736
1601132920576,97,-0.34545898,1.1813354,0.44476318
1601132920576,98,-0.031982422,1.0387573,-0.13604736
1601132920576,99,0.05419922,0.9389038,0.03265381
1601132920576,100,-0.028320312,0.9059448,-0.073791504
1601132920576,101,-0.34545898,1.1813354,0.44476318
1601132920580,102,-0.34545898,1.1813354,0.44476318
1601132920580,103,-0.016601562,0.97283936,-0.047668457
1601132920580,104,-0.47827148,0.80511475,-0.20733643
1601132920580,105,-0.47827148,0.80511475,-0.20733643
1601132920580,106,-0.031982422,1.0387573,-0.13604736
1601132920580,107,-0.028320312,0.9059448,-0.073791504
1601132920580,108,0.05419922,0.9389038,0.03265381
1601132920581,109,-0.1381836,0.9413452,-0.05279541
1601132920581,110,-0.47827148,0.80511475,-0.20733643
1601132920581,111,-0.1381836,0.9413452,-0.05279541
1601132920581,112,-0.031982422,1.0387573,-0.13604736
1601132920581,113,-0.1381836,0.9413452,-0.05279541
1601132920581,114,-0.1381836,0.9413452,-0.05279541
1601132920582,115,-0.016601562,0.97283936,-0.047668457
1601132920590,116,0.05419922,0.9389038,0.03265381
1601132920590,117,-0.031982422,1.0387573,-0.13604736
1601132920590,118,-0.017578125,0.89837646,-0.13970947
1601132920590,119,-0.016601562,0.97283936,-0.047668457
1601132920590,120,-0.016601562,0.97283936,-0.047668457
1601132920590,121,-0.016601562,0.97283936,-0.047668457
1601132920590,122,-0.1381836,0.9413452,-0.05279541
1601132920590,123,-0.017578125,0.89837646,-0.13970947
1601132920590,124,-0.028320312,0.9059448,-0.073791504
1601132920590,125,-0.028320312,0.9059448,-0.073791504
1601132920590,126,-0.031982422,1.0387573,-0.13604736
1601132920591,127,0.05419922,0.9389038,0.03265381
1601132920591,128,-0.1381836,0.9413452,-0.05279541
1601132920591,129,0.18261719,0.9472046,-0.25054932
1601132920591,130,-0.028320312,0.9059448,-0.073791504
1601132920591,131,-0.028320312,0.9059448,-0.073791504
1601132920591,132,0.18261719,0.9472046,-0.25054932
1601132920592,133,-0.016601562,0.97283936,-0.047668457
1601132920592,134,-0.017578125,0.89837646,-0.13970947
1601132920598,135,-0.017578125,0.89837646,-0.13970947
1601132920598,136,-0.028320312,0.9059448,-0.073791504
1601132920599,137,-0.016601562,0.97283936,-0.047668457
1601132920599,138,0.18261719,0.9472046,-0.25054932
1601132920599,139,-0.017578125,0.89837646,-0.13970947
1601132920599,140,-0.017578125,0.89837646,-0.13970947
1601132920599,141,-0.031982422,1.0387573,-0.13604736
1601132920599,142,0.18261719,0.9472046,-0.25054932
1601132920599,143,0.043945312,1.0353394,-0.09307861
1601132920599,144,-0.1381836,0.9413452,-0.05279541
1601132920599,145,-0.017578125,0.89837646,-0.13970947
1601132920599,146,-0.016601562,0.97283936,-0.047668457
1601132920599,147,-0.028320312,0.9059448,-0.073791504
1601132920600,148,-0.1381836,0.9413452,-0.05279541
1601132920600,149,0.18261719,0.9472046,-0.25054932
1601132920600,150,0.043945312,1.0353394,-0.09307861
1601132920600,151,0.043945312,1.0353394,-0.09307861
1601132920600,152,-0.028320312,0.9059448,-0.073791504
1601132920612,153,0.18261719,0.9472046,-0.25054932
1601132920612,154,0.043945312,1.0353394,-0.09307861
1601132920612,155,0.043945312,1.0353394,-0.09307861
1601132920612,156,-0.016601562,0.97283936,-0.047668457
1601132920612,157,0.16064453,0.93377686,-0.1873169
1601132920612,158,0.16064453,0.93377686,-0.1873169
1601132920612,159,0.16064453,0.93377686,-0.1873169
1601132920613,160,-0.028320312,0.9059448,-0.073791504
1601132920613,161,0.16064453,0.93377686,-0.1873169
1601132920613,162,0.010009766,0.9159546,-0.26763916
1601132920613,163,0.16064453,0.93377686,-0.1873169
1601132920613,164,-0.017578125,0.89837646,-0.13970947
1601132920613,165,0.043945312,1.0353394,-0.09307861
1601132920613,166,0.010009766,0.9159546,-0.26763916
1601132920613,167,-0.017578125,0.89837646,-0.13970947
1601132920613,168,0.010009766,0.9159546,-0.26763916
1601132920614,169,-0.017578125,0.89837646,-0.13970947
1601132920619,170,0.010009766,0.9159546,-0.26763916
1601132920619,171,-0.03564453,0.90252686,-0.20465088
1601132920619,172,0.18261719,0.9472046,-0.25054932
1601132920619,173,0.010009766,0.9159546,-0.26763916
1601132920619,174,0.18261719,0.9472046,-0.25054932
1601132920619,175,0.16064453,0.93377686,-0.1873169
1601132920620,176,-0.03564453,0.90252686,-0.20465088
1601132920620,177,-0.03564453,0.90252686,-0.20465088
1601132920620,178,0.18261719,0.9472046,-0.25054932
1601132920620,179,0.043945312,1.0353394,-0.09307861
1601132920620,180,-0.03564453,0.90252686,-0.20465088
1601132920621,181,0.010009766,0.9159546,-0.26763916
1601132920621,182,0.18261719,0.9472046,-0.25054932
1601132920627,183,0.043945312,1.0353394,-0.09307861
1601132920628,184,-0.03564453,0.90252686,-0.20465088
1601132920628,185,-0.10668945,0.97772217,-0.24761963
1601132920628,186,0.16064453,0.93377686,-0.1873169
1601132920628,187,-0.1171875,1.02948,-0.18267822
1601132920628,188,0.043945312,1.0353394,-0.09307861
1601132920628,189,-0.10668945,0.97772217,-0.24761963
1601132920628,190,-0.03564453,0.90252686,-0.20465088
1601132920628,191,0.043945312,1.0353394,-0.09307861
1601132920628,192,0.16064453,0.93377686,-0.1873169
1601132920628,193,-0.10668945,0.97772217,-0.24761963
1601132920629,194,-0.10668945,0.97772217,-0.24761963
1601132920629,195,-0.10668945,0.97772217,-0.24761963
1601132920629,196,-0.10668945,0.97772217,-0.24761963
1601132920629,197,-0.1171875,1.02948,-0.18267822
1601132920629,198,-0.13647461,1.0690308,-0.055236816
1601132920635,199,-0.1171875,1.02948,-0.18267822
1601132920638,200,0.16064453,0.93377686,-0.1873169
1601132920638,201,-0.13647461,1.0690308,-0.055236816
1601132920639,202,0.010009766,0.9159546,-0.26763916
1601132920639,203,-0.1237793,0.85931396,-0.21124268
1601132920639,204,-0.1171875,1.02948,-0.18267822
1601132920639,205,-0.1171875,1.02948,-0.18267822
1601132920639,206,0.010009766,0.9159546,-0.26763916
1601132920639,207,-0.13647461,1.0690308,-0.055236816
1601132920639,208,-0.1237793,0.85931396,-0.21124268
1601132920643,209,0.010009766,0.9159546,-0.26763916
1601132920643,210,0.16064453,0.93377686,-0.1873169
1601132920643,211,-0.1171875,1.02948,-0.18267822
1601132920643,212,-0.03564453,0.90252686,-0.20465088
1601132920643,213,0.010009766,0.9159546,-0.26763916
1601132920643,214,-0.059814453,0.72332764,-0.058898926
1601132920643,215,-0.13647461,1.0690308,-0.055236816
1601132920644,216,-0.03564453,0.90252686,-0.20465088
1601132920644,217,-0.21362305,0.7946167,-0.09576416
1601132920644,218,-0.1237793,0.85931396,-0.21124268
1601132920644,219,-0.03564453,0.90252686,-0.20465088
1601132920644,220,-0.13647461,1.0690308,-0.055236816
1601132920645,221,-0.03564453,0.90252686,-0.20465088
1601132920645,222,-0.059814453,0.72332764,-0.058898926
1601132920645,223,-0.13647461,1.0690308,-0.055236816
1601132920645,224,-0.1237793,0.85931396,-0.21124268
1601132920645,225,-0.16772461,0.9059448,0.0040893555
1601132920646,226,-0.21362305,0.7946167,-0.09576416
1601132920646,227,-0.10668945,0.97772217,-0.24761963
1601132920646,228,-0.059814453,0.72332764,-0.058898926
1601132920646,229,-0.1237793,0.85931396,-0.21124268
1601132920646,230,-0.1237793,0.85931396,-0.21124268
1601132920652,231,-0.10668945,0.97772217,-0.24761963
1601132920652,232,-0.059814453,0.72332764,-0.058898926
1601132920653,233,-0.10668945,0.97772217,-0.24761963
1601132920653,234,-0.16772461,0.9059448,0.0040893555
1601132920653,235,-0.10668945,0.97772217,-0.24761963
1601132920653,236,-0.20239258,1.1764526,-0.035217285
1601132920653,237,-0.1171875,1.02948,-0.18267822
1601132920653,238,-0.20239258,1.1764526,-0.035217285
1601132920653,239,-0.059814453,0.72332764,-0.058898926
1601132920654,240,-0.13647461,1.0690308,-0.055236816
1601132920654,241,-0.059814453,0.72332764,-0.058898926
1601132920654,242,-0.1171875,1.02948,-0.18267822
1601132920654,243,-0.21362305,0.7946167,-0.09576416
1601132920654,244,-0.1171875,1.02948,-0.18267822
1601132920655,245,-0.13647461,1.0690308,-0.055236816
1601132920655,246,-0.1237793,0.85931396,-0.21124268
1601132920655,247,-0.11425781,0.96014404,-0.23809814
1601132920655,248,-0.16772461,0.9059448,0.0040893555
1601132920655,249,-0.11425781,0.96014404,-0.23809814
1601132920662,250,-0.21362305,0.7946167,-0.09576416
1601132920662,251,-0.21362305,0.7946167,-0.09576416
1601132920662,252,-0.21362305,0.7946167,-0.09576416
1601132920662,253,-0.16772461,0.9059448,0.0040893555
1601132920662,254,-0.13647461,1.0690308,-0.055236816
1601132920662,255,-0.20239258,1.1764526,-0.035217285
1601132920662,256,-0.1237793,0.85931396,-0.21124268
1601132920662,257,-0.047607422,0.93573,-0.17730713
1601132920663,258,-0.16772461,0.9059448,0.0040893555
1601132920663,259,-0.1171875,1.02948,-0.18267822
1601132920663,260,-0.059814453,0.72332764,-0.058898926
1601132920663,261,-0.022216797,0.9359741,-0.15631104
1601132920663,262,-0.13647461,1.0690308,-0.055236816
1601132920664,263,-0.059814453,0.72332764,-0.058898926
1601132920665,264,-0.1237793,0.85931396,-0.21124268
1601132920665,265,-0.21362305,0.7946167,-0.09576416
1601132920666,266,0.1105957,0.9454956,-0.190979
1601132920666,267,-0.20239258,1.1764526,-0.035217285
1601132920666,268,-0.16772461,0.9059448,0.0040893555
1601132920666,269,-0.21362305,0.7946167,-0.09576416
1601132920668,270,-0.20239258,1.1764526,-0.035217285
1601132920668,271,-0.1237793,0.85931396,-0.21124268
1601132920668,272,-0.11425781,0.96014404,-0.23809814
1601132920668,273,-0.16772461,0.9059448,0.0040893555
1601132920668,274,-0.059814453,0.72332764,-0.058898926
1601132920668,275,-0.047607422,0.93573,-0.17730713
1601132920668,276,-0.20239258,1.1764526,-0.035217285
1601132920669,277,-0.11425781,0.96014404,-0.23809814
1601132920669,278,-0.21362305,0.7946167,-0.09576416
1601132920669,279,-0.20239258,1.1764526,-0.035217285
1601132920669,280,-0.16772461,0.9059448,0.0040893555
1601132920669,281,-0.047607422,0.93573,-0.17730713
1601132920669,282,-0.20239258,1.1764526,-0.035217285
1601132920669,283,-0.047607422,0.93573,-0.17730713
1601132920669,284,-0.022216797,0.9359741,-0.15631104
1601132920671,285,-0.11425781,0.96014404,-0.23809814
1601132920674,286,-0.059814453,0.72332764,-0.058898926
1601132920675,287,-0.022216797,0.9359741,-0.15631104
1601132920675,288,-0.21362305,0.7946167,-0.09576416
1601132920675,289,-0.11425781,0.96014404,-0.23809814
1601132920675,290,-0.16772461,0.9059448,0.0040893555
1601132920675,291,0.1105957,0.9454956,-0.190979
1601132920675,292,-0.11425781,0.96014404,-0.23809814
1601132920675,293,-0.022216797,0.9359741,-0.15631104
1601132920675,294,-0.047607422,0.93573,-0.17730713
1601132920676,295,-0.11425781,0.96014404,-0.23809814
1601132920677,296,-0.047607422,0.93573,-0.17730713
1601132920677,297,-0.047607422,0.93573,-0.17730713
1601132920683,298,-0.047607422,0.93573,-0.17730713
1601132920684,299,-0.022216797,0.9359741,-0.15631104
1601132920684,300,-0.022216797,0.9359741,-0.15631104
1601132920684,301,0.1105957,0.9454956,-0.190979
1601132920684,302,0.1105957,0.9454956,-0.190979
1601132920684,303,-0.16772461,0.9059448,0.0040893555
1601132920684,304,-0.20239258,1.1764526,-0.035217285
1601132920685,305,-0.20239258,1.1764526,-0.035217285
1601132920685,306,-0.11425781,0.96014404,-0.23809814
1601132920685,307,-0.022216797,0.9359741,-0.15631104
1601132920685,308,0.1105957,0.9454956,-0.190979
1601132920685,309,0.1105957,0.9454956,-0.190979
1601132920685,310,0.1105957,0.9454956,-0.190979
1601132920686,311,-0.047607422,0.93573,-0.17730713
1601132920686,312,-0.11425781,0.96014404,-0.23809814
1601132920687,313,-0.022216797,0.9359741,-0.15631104
1601132920687,314,-0.022216797,0.9359741,-0.15631104
1601132920687,315,-0.047607422,0.93573,-0.17730713
1601132920687,316,0.1105957,0.9454956,-0.190979
1601132920688,317,0.1105957,0.9454956,-0.190979
1601132920689,318,-0.022216797,0.9359741,-0.15631104
1601132920689,319,0.1105957,0.9454956,-0.190979
1601132922868,320,0.12695312,0.91619873,-0.18121338
1601132922871,321,0.12695312,0.91619873,-0.18121338
1601132922871,322,0.12695312,0.91619873,-0.18121338
1601132922871,323,0.12695312,0.91619873,-0.18121338
1601132922872,324,0.12695312,0.91619873,-0.18121338
1601132922872,325,0.09399414,0.9137573,-0.18951416
1601132922872,326,0.09399414,0.9137573,-0.18951416
1601132922876,327,0.12695312,0.91619873,-0.18121338
1601132922877,328,0.09399414,0.9137573,-0.18951416
1601132922877,329,0.09399414,0.9137573,-0.18951416
1601132922877,330,0.060058594,0.9215698,-0.19683838
1601132922877,331,0.060058594,0.9215698,-0.19683838
1601132922877,332,0.060058594,0.9215698,-0.19683838
1601132922877,333,0.09399414,0.9137573,-0.18951416
1601132922878,334,0.12695312,0.91619873,-0.18121338
1601132922879,335,0.12695312,0.91619873,-0.18121338
1601132922880,336,0.12695312,0.91619873,-0.18121338
1601132922881,337,-0.008300781,0.9320679,-0.2197876
1601132922882,338,0.060058594,0.9215698,-0.19683838
1601132922883,339,0.12695312,0.91619873,-0.18121338
1601132922886,340,0.09399414,0.9137573,-0.18951416
1601132922889,341,-0.008300781,0.9320679,-0.2197876
1601132922909,342,-0.008300781,0.9320679,-0.2197876
1601132922909,343,0.15258789,0.9430542,-0.20880127
1601132922909,344,0.060058594,0.9215698,-0.19683838
1601132922909,345,-0.008300781,0.9320679,-0.2197876
1601132922913,346,0.09399414,0.9137573,-0.18951416
1601132922914,347,0.09399414,0.9137573,-0.18951416
1601132922914,348,0.060058594,0.9215698,-0.19683838
1601132922914,349,0.060058594,0.9215698,-0.19683838
1601132922914,350,0.09399414,0.9137573,-0.18951416
1601132922914,351,-0.008300781,0.9320679,-0.2197876
1601132922914,352,-0.008300781,0.9320679,-0.2197876
1601132922914,353,0.060058594,0.9215698,-0.19683838
1601132922914,354,0.15258789,0.9430542,-0.20880127
1601132922914,355,0.15258789,0.9430542,-0.20880127
1601132922915,356,-0.008300781,0.9320679,-0.2197876
1601132922915,357,0.15258789,0.9430542,-0.20880127
1601132922918,358,0.09399414,0.9137573,-0.18951416
1601132922918,359,0.032958984,0.9833374,-0.03692627
1601132922918,360,0.060058594,0.9215698,-0.19683838
1601132922918,361,-0.18432617,1.1310425,0.062438965
1601132922918,362,0.15258789,0.9430542,-0.20880127
1601132922918,363,-0.008300781,0.9320679,-0.2197876
1601132922919,364,0.032958984,0.9833374,-0.03692627
1601132922919,365,0.15258789,0.9430542,-0.20880127
1601132922919,366,0.032958984,0.9833374,-0.03692627
1601132922919,367,0.15258789,0.9430542,-0.20880127
1601132922919,368,0.060058594,0.9215698,-0.19683838
1601132922919,369,-0.18432617,1.1310425,0.062438965
1601132922919,370,0.032958984,0.9833374,-0.03692627
1601132922919,371,0.049316406,0.3739624,0.06072998
1601132922919,372,0.049316406,0.3739624,0.06072998
1601132922919,373,-0.049316406,1.3046265,0.34906006
1601132922919,374,-0.17016602,0.67889404,-0.046447754
1601132922920,375,-0.18432617,1.1310425,0.062438965
1601132922920,376,-0.3955078,0.5541382,-0.006652832
1601132922920,377,-0.008300781,0.9320679,-0.2197876
1601132922920,378,0.032958984,0.9833374,-0.03692627
1601132922920,379,-0.049316406,1.3046265,0.34906006
1601132922920,380,0.032958984,0.9833374,-0.03692627
1601132922920,381,-0.5827637,1.0238647,-0.24249268
1601132922932,382,0.032958984,0.9833374,-0.03692627
1601132922932,383,0.15258789,0.9430542,-0.20880127
1601132922932,384,-0.18432617,1.1310425,0.062438965
1601132922932,385,-0.18432617,1.1310425,0.062438965
1601132922932,386,-0.008300781,0.9320679,-0.2197876
1601132922933,387,0.049316406,0.3739624,0.06072998
1601132922933,388,0.049316406,0.3739624,0.06072998
1601132922933,389,-0.049316406,1.3046265,0.34906006
1601132922933,390,-0.049316406,1.3046265,0.34906006
1601132922933,391,-0.17016602,0.67889404,-0.046447754
1601132922933,392,-0.17016602,0.67889404,-0.046447754
1601132922933,393,-0.3955078,0.5541382,-0.006652832
1601132922933,394,0.032958984,0.9833374,-0.03692627
1601132922933,395,0.15258789,0.9430542,-0.20880127
1601132922933,396,-0.18432617,1.1310425,0.062438965
1601132922933,397,-0.18432617,1.1310425,0.062438965
1601132922933,398,0.049316406,0.3739624,0.06072998
1601132922933,399,-0.18432617,1.1310425,0.062438965
1601132922933,400,0.049316406,0.3739624,0.06072998
1601132922933,401,-0.3955078,0.5541382,-0.006652832
1601132922934,402,-0.5510254,0.92645264,-0.050109863
1601132922934,403,0.15258789,0.9430542,-0.20880127
1601132922934,404,-0.5827637,1.0238647,-0.24249268
1601132922934,405,0.032958984,0.9833374,-0.03692627
1601132922934,406,0.032958984,0.9833374,-0.03692627
1601132922934,407,0.049316406,0.3739624,0.06072998
1601132922934,408,-0.18432617,1.1310425,0.062438965
1601132922935,409,-0.17016602,0.67889404,-0.046447754
1601132922935,410,0.049316406,0.3739624,0.06072998
1601132922935,411,-0.049316406,1.3046265,0.34906006
1601132922935,412,-0.28344727,1.8241577,0.08758545
1601132922935,413,-0.5827637,1.0238647,-0.24249268
1601132922952,414,-0.18432617,1.1310425,0.062438965
1601132922952,415,-0.5510254,0.92645264,-0.050109863
1601132922952,416,-0.049316406,1.3046265,0.34906006
1601132922952,417,-0.049316406,1.3046265,0.34906006
1601132922953,418,0.049316406,0.3739624,0.06072998
1601132922953,419,-0.3955078,0.5541382,-0.006652832
1601132922953,420,-0.17016602,0.67889404,-0.046447754
1601132922953,421,-0.049316406,1.3046265,0.34906006
1601132922953,422,-0.28344727,1.8241577,0.08758545
1601132922953,423,-0.049316406,1.3046265,0.34906006
1601132922953,424,-0.17016602,0.67889404,-0.046447754
1601132922953,425,-0.5510254,0.92645264,-0.050109863
1601132922954,426,-0.17016602,0.67889404,-0.046447754
1601132922954,427,-0.5827637,1.0238647,-0.24249268
1601132922954,428,-0.17016602,0.67889404,-0.046447754
1601132922954,429,-0.3955078,0.5541382,-0.006652832
1601132922954,430,-0.28344727,1.8241577,0.08758545
1601132922956,431,-0.17016602,0.67889404,-0.046447754
1601132922956,432,0.049072266,1.1920776,-0.08868408
1601132922956,433,0.049072266,1.1920776,-0.08868408
1601132922957,434,-0.3955078,0.5541382,-0.006652832
1601132922957,435,-0.3955078,0.5541382,-0.006652832
1601132922957,436,0.049316406,0.3739624,0.06072998
1601132922958,437,-0.5510254,0.92645264,-0.050109863
1601132922958,438,-0.5827637,1.0238647,-0.24249268
1601132922958,439,-0.014160156,0.7785034,0.5258179
1601132922958,440,-0.5827637,1.0238647,-0.24249268
1601132922958,441,-0.3955078,0.5541382,-0.006652832
1601132922958,442,-0.3955078,0.5541382,-0.006652832
1601132922958,443,-0.014160156,0.7785034,0.5258179
1601132922958,444,-0.5827637,1.0238647,-0.24249268
1601132922958,445,0.64331055,0.63397217,0.3456421
1601132922958,446,-0.5510254,0.92645264,-0.050109863
1601132922958,447,0.049072266,1.1920776,-0.08868408
1601132922958,448,-0.28344727,1.8241577,0.08758545
1601132922958,449,0.64331055,0.63397217,0.3456421
1601132922959,450,-0.5510254,0.92645264,-0.050109863
1601132922959,451,-0.5827637,1.0238647,-0.24249268
1601132922971,452,-0.5510254,0.92645264,-0.050109863
1601132922971,453,-0.049316406,1.3046265,0.34906006
1601132922971,454,-0.08642578,1.0238647,0.05706787
1601132922971,455,-0.17016602,0.67889404,-0.046447754
1601132922971,456,-0.28344727,1.8241577,0.08758545
1601132922972,457,-0.28344727,1.8241577,0.08758545
1601132922972,458,-0.5510254,0.92645264,-0.050109863
1601132922972,459,-0.014160156,0.7785034,0.5258179
1601132922972,460,-0.08642578,1.0238647,0.05706787
1601132922972,461,0.049072266,1.1920776,-0.08868408
1601132922972,462,-0.28344727,1.8241577,0.08758545
1601132922972,463,-0.28344727,1.8241577,0.08758545
1601132922972,464,-0.5827637,1.0238647,-0.24249268
1601132922972,465,-0.14819336,0.5578003,0.19671631
1601132922972,466,-0.3955078,0.5541382,-0.006652832
1601132922972,467,0.049072266,1.1920776,-0.08868408
1601132922972,468,0.049072266,1.1920776,-0.08868408
1601132922972,469,-0.014160156,0.7785034,0.5258179
1601132922972,470,-0.5827637,1.0238647,-0.24249268
1601132922974,471,0.64331055,0.63397217,0.3456421
1601132922974,472,-0.5510254,0.92645264,-0.050109863
1601132922974,473,0.049072266,1.1920776,-0.08868408
1601132922975,474,-0.5510254,0.92645264,-0.050109863
1601132922975,475,0.37353516,1.0184937,0.17669678
1601132922975,476,-0.014160156,0.7785034,0.5258179
1601132922975,477,-0.14819336,0.5578003,0.19671631
1601132922975,478,0.64331055,0.63397217,0.3456421
1601132922975,479,-0.28344727,1.8241577,0.08758545
1601132922975,480,0.37353516,1.0184937,0.17669678
1601132922975,481,0.049072266,1.1920776,-0.08868408
1601132922975,482,-0.08642578,1.0238647,0.05706787
1601132922976,483,0.64331055,0.63397217,0.3456421
1601132922976,484,-0.24584961,1.0438843,-0.30426025
1601132922976,485,-0.014160156,0.7785034,0.5258179
1601132922976,486,-0.014160156,0.7785034,0.5258179
1601132922976,487,-0.08642578,1.0238647,0.05706787
1601132922984,488,-0.014160156,0.7785034,0.5258179
1601132922984,489,-0.14819336,0.5578003,0.19671631
1601132922984,490,0.64331055,0.63397217,0.3456421
1601132922984,491,-0.08642578,1.0238647,0.05706787
1601132922984,492,0.13305664,1.0221558,0.024597168
1601132922984,493,-0.28344727,1.8241577,0.08758545
1601132922984,494,0.37353516,1.0184937,0.17669678
1601132922985,495,0.64331055,0.63397217,0.3456421
1601132922985,496,-0.24584961,1.0438843,-0.30426025
1601132922985,497,0.64331055,0.63397217,0.3456421
1601132922985,498,0.46044922,0.7206421,0.1293335
1601132922986,499,-0.08642578,1.0238647,0.05706787
1601132922986,500,-0.24584961,1.0438843,-0.30426025
1601132922986,501,0.049072266,1.1920776,-0.08868408
1601132922986,502,-0.14819336,0.5578003,0.19671631
1601132922986,503,0.049072266,1.1920776,-0.08868408
1601132922986,504,0.13305664,1.0221558,0.024597168
1601132922986,505,0.37353516,1.0184937,0.17669678
1601132922986,506,0.13305664,1.0221558,0.024597168
1601132922991,507,-0.14819336,0.5578003,0.19671631
1601132922992,508,0.265625,0.789978,0.13543701
1601132922992,509,-0.014160156,0.7785034,0.5258179
1601132922992,510,-0.014160156,0.7785034,0.5258179
1601132922992,511,0.64331055,0.63397217,0.3456421
1601132922992,512,0.46044922,0.7206421,0.1293335
1601132922993,513,0.64331055,0.63397217,0.3456421
1601132922993,514,-0.08642578,1.0238647,0.05706787
1601132922993,515,-0.24584961,1.0438843,-0.30426025
1601132922993,516,0.46044922,0.7206421,0.1293335
1601132922993,517,0.265625,0.789978,0.13543701
1601132922994,518,-0.14819336,0.5578003,0.19671631
1601132923003,519,0.24658203,0.7526245,0.15008545
1601132923003,520,-0.08642578,1.0238647,0.05706787
1601132923003,521,0.265625,0.789978,0.13543701
1601132923003,522,0.24658203,0.7526245,0.15008545
1601132923003,523,0.37353516,1.0184937,0.17669678
1601132923003,524,0.13305664,1.0221558,0.024597168
1601132923003,525,0.23706055,1.2819214,0.20452881
1601132923004,526,-0.08642578,1.0238647,0.05706787
1601132923004,527,-0.08642578,1.0238647,0.05706787
1601132923004,528,0.46044922,0.7206421,0.1293335
1601132923004,529,-0.14819336,0.5578003,0.19671631
1601132923004,530,0.23706055,1.2819214,0.20452881
1601132923004,531,-0.14819336,0.5578003,0.19671631
1601132923004,532,-0.14819336,0.5578003,0.19671631
1601132923005,533,0.265625,0.789978,0.13543701
1601132923005,534,0.37353516,1.0184937,0.17669678
1601132923005,535,-0.24584961,1.0438843,-0.30426025
1601132923005,536,-0.24584961,1.0438843,-0.30426025
1601132923006,537,-0.14819336,0.5578003,0.19671631
1601132923016,538,0.23486328,0.7460327,0.39569092
1601132923016,539,0.37353516,1.0184937,0.17669678
1601132923016,540,0.24658203,0.7526245,0.15008545
1601132923016,541,0.23486328,0.7460327,0.39569092
1601132923016,542,0.4873047,0.5297241,0.5302124
1601132923016,543,0.37353516,1.0184937,0.17669678
1601132923016,544,0.13305664,1.0221558,0.024597168
1601132923017,545,0.24658203,0.7526245,0.15008545
1601132923017,546,0.37353516,1.0184937,0.17669678
1601132923017,547,0.46044922,0.7206421,0.1293335
1601132923017,548,0.37353516,1.0184937,0.17669678
1601132923017,549,0.23706055,1.2819214,0.20452881
1601132923017,550,-0.24584961,1.0438843,-0.30426025
1601132923017,551,-0.24584961,1.0438843,-0.30426025
1601132923018,552,0.14672852,0.5285034,0.6696167
1601132923018,553,0.23486328,0.7460327,0.39569092
1601132923018,554,-0.24584961,1.0438843,-0.30426025
1601132923018,555,0.20922852,0.81829834,0.4076538
1601132923018,556,0.265625,0.789978,0.13543701
1601132923018,557,0.23706055,1.2819214,0.20452881
1601132923018,558,0.13305664,1.0221558,0.024597168
1601132923019,559,0.24658203,0.7526245,0.15008545
1601132923019,560,0.13305664,1.0221558,0.024597168
1601132923019,561,0.4873047,0.5297241,0.5302124
1601132923019,562,0.23706055,1.2819214,0.20452881
1601132923019,563,0.13305664,1.0221558,0.024597168
1601132923029,564,0.4873047,0.5297241,0.5302124
1601132923030,565,-0.95825195,1.090271,0.4623413
1601132923030,566,-0.24584961,1.0438843,-0.30426025
1601132923030,567,0.13305664,1.0221558,0.024597168
1601132923030,568,0.23486328,0.7460327,0.39569092
1601132923030,569,0.46044922,0.7206421,0.1293335
1601132923030,570,0.23486328,0.7460327,0.39569092
1601132923030,571,0.265625,0.789978,0.13543701
1601132923030,572,0.46044922,0.7206421,0.1293335
1601132923030,573,0.24658203,0.7526245,0.15008545
1601132923031,574,0.265625,0.789978,0.13543701
1601132923031,575,0.14672852,0.5285034,0.6696167
1601132923031,576,0.24658203,0.7526245,0.15008545
1601132923031,577,0.20922852,0.81829834,0.4076538
1601132923031,578,0.23706055,1.2819214,0.20452881
1601132923031,579,0.13305664,1.0221558,0.024597168
1601132923031,580,0.23486328,0.7460327,0.39569092
1601132923032,581,0.4873047,0.5297241,0.5302124
1601132923032,582,0.46044922,0.7206421,0.1293335
1601132923032,583,0.23706055,1.2819214,0.20452881
1601132923037,584,0.14672852,0.5285034,0.6696167
1601132923038,585,0.46044922,0.7206421,0.1293335
1601132923038,586,-0.95825195,1.090271,0.4623413
1601132923038,587,0.20922852,0.81829834,0.4076538
1601132923038,588,0.46044922,0.7206421,0.1293335
1601132923038,589,-0.22705078,0.55218506,0.35662842
1601132923038,590,-0.22705078,0.55218506,0.35662842
1601132923038,591,0.23486328,0.7460327,0.39569092
1601132923038,592,0.14672852,0.5285034,0.6696167
1601132923047,593,0.4873047,0.5297241,0.5302124
1601132923048,594,0.265625,0.789978,0.13543701
1601132923048,595,0.265625,0.789978,0.13543701
1601132923048,596,0.265625,0.789978,0.13543701
1601132923048,597,-0.95825195,1.090271,0.4623413
1601132923048,598,0.24658203,0.7526245,0.15008545
1601132923048,599,0.4873047,0.5297241,0.5302124
1601132923049,600,0.23706055,1.2819214,0.20452881
1601132923049,601,0.14672852,0.5285034,0.6696167
1601132923049,602,0.23486328,0.7460327,0.39569092
1601132923049,603,0.4873047,0.5297241,0.5302124
1601132923049,604,0.24658203,0.7526245,0.15008545
1601132923049,605,-0.22705078,0.55218506,0.35662842
1601132923049,606,0.20922852,0.81829834,0.4076538
1601132923049,607,0.14672852,0.5285034,0.6696167
1601132923049,608,0.20922852,0.81829834,0.4076538
1601132923051,609,0.4873047,0.5297241,0.5302124
1601132923051,610,0.14672852,0.5285034,0.6696167
1601132923051,611,0.24658203,0.7526245,0.15008545
1601132923060,612,-0.95825195,1.090271,0.4623413
1601132923060,613,-0.95825195,1.090271,0.4623413
1601132923062,614,0.20922852,0.81829834,0.4076538
1601132923062,615,0.14672852,0.5285034,0.6696167
1601132923062,616,0.23706055,1.2819214,0.20452881
1601132923063,617,-0.22705078,0.55218506,0.35662842
1601132923063,618,0.20922852,0.81829834,0.4076538
1601132923063,619,0.23706055,1.2819214,0.20452881
1601132923063,620,0.20922852,0.81829834,0.4076538
1601132923063,621,-0.95825195,1.090271,0.4623413
1601132923063,622,0.23486328,0.7460327,0.39569092
1601132923063,623,-0.95825195,1.090271,0.4623413
1601132923063,624,-0.22705078,0.55218506,0.35662842
1601132923063,625,0.4873047,0.5297241,0.5302124
1601132923063,626,0.23486328,0.7460327,0.39569092
1601132923064,627,-0.22705078,0.55218506,0.35662842
1601132923064,628,-0.22705078,0.55218506,0.35662842
1601132923064,629,0.4873047,0.5297241,0.5302124
1601132923064,630,-0.95825195,1.090271,0.4623413
1601132923064,631,0.14672852,0.5285034,0.6696167
1601132923064,632,0.14672852,0.5285034,0.6696167
1601132923066,633,0.20922852,0.81829834,0.4076538
1601132923068,634,-0.22705078,0.55218506,0.35662842
1601132923069,635,0.20922852,0.81829834,0.4076538
1601132923069,636,-0.95825195,1.090271,0.4623413
1601132923071,637,-0.22705078,0.55218506,0.35662842
1601132923071,638,-0.95825195,1.090271,0.4623413
1601132923071,639,-0.22705078,0.55218506,0.35662842
1601132925372,640,-0.2722168,0.6395874,0.15618896
1601132925372,641,-0.2722168,0.6395874,0.15618896
1601132925372,642,-0.2722168,0.6395874,0.15618896
1601132925372,643,-0.2722168,0.6395874,0.15618896
1601132925376,644,-0.2722168,0.6395874,0.15618896
1601132925376,645,-0.2722168,0.6395874,0.15618896
1601132925376,646,-0.5852051,1.0255737,0.12567139
1601132925376,647,-0.5852051,1.0255737,0.12567139
1601132925376,648,-0.2722168,0.6395874,0.15618896
1601132925382,649,-0.5852051,1.0255737,0.12567139
1601132925383,650,-0.2722168,0.6395874,0.15618896
1601132925383,651,-0.5852051,1.0255737,0.12567139
1601132925383,652,-0.2722168,0.6395874,0.15618896
1601132925383,653,-0.5852051,1.0255737,0.12567139
1601132925383,654,-0.5852051,1.0255737,0.12567139
1601132925383,655,-0.5852051,1.0255737,0.12567139
1601132925383,656,-0.65893555,1.3192749,0.13763428
1601132925383,657,-0.5852051,1.0255737,0.12567139
1601132925389,658,-0.65893555,1.3192749,0.13763428
1601132925392,659,-0.65893555,1.3192749,0.13763428
1601132925392,660,-0.65893555,1.3192749,0.13763428
1601132925392,661,-0.5852051,1.0255737,0.12567139
1601132925394,662,-0.65893555,1.3192749,0.13763428
1601132925394,663,-0.65893555,1.3192749,0.13763428
1601132925394,664,-0.5864258,1.5861206,0.5014038
1601132925396,665,-0.65893555,1.3192749,0.13763428
1601132925396,666,-0.5864258,1.5861206,0.5014038
1601132925396,667,-0.65893555,1.3192749,0.13763428
1601132925399,668,-0.65893555,1.3192749,0.13763428
1601132925399,669,-0.5864258,1.5861206,0.5014038
1601132925399,670,-0.5864258,1.5861206,0.5014038
1601132925399,671,-0.5864258,1.5861206,0.5014038
1601132925400,672,-0.2722168,0.6395874,0.15618896
1601132925400,673,-0.5864258,1.5861206,0.5014038
1601132925400,674,0.48510742,0.7614136,0.4725952
1601132925401,675,0.48510742,0.7614136,0.4725952
1601132925403,676,-0.5864258,1.5861206,0.5014038
1601132925408,677,0.48510742,0.7614136,0.4725952
1601132925408,678,0.48510742,0.7614136,0.4725952
1601132925408,679,-0.5852051,1.0255737,0.12567139
1601132925408,680,0.24633789,0.47576904,0.4713745
1601132925409,681,0.48510742,0.7614136,0.4725952
1601132925409,682,-0.5864258,1.5861206,0.5014038
1601132925409,683,0.24633789,0.47576904,0.4713745
1601132925409,684,0.29370117,0.9472046,0.4796753
1601132925410,685,-0.5864258,1.5861206,0.5014038
1601132925411,686,0.48510742,0.7614136,0.4725952
1601132925411,687,0.48510742,0.7614136,0.4725952
1601132925411,688,0.29370117,0.9472046,0.4796753
1601132925416,689,-0.65893555,1.3192749,0.13763428
1601132925416,690,0.48510742,0.7614136,0.4725952
1601132925416,691,0.24633789,0.47576904,0.4713745
1601132925416,692,0.21606445,0.6491089,0.61639404
1601132925416,693,-0.5864258,1.5861206,0.5014038
1601132925416,694,0.24633789,0.47576904,0.4713745
1601132925416,695,0.24633789,0.47576904,0.4713745
1601132925416,696,0.24633789,0.47576904,0.4713745
1601132925417,697,0.28173828,0.53582764,0.61590576
1601132925417,698,0.48510742,0.7614136,0.4725952
1601132925420,699,0.29370117,0.9472046,0.4796753
1601132925421,700,0.24633789,0.47576904,0.4713745
1601132925421,701,0.21606445,0.6491089,0.61639404
1601132925423,702,0.29370117,0.9472046,0.4796753
1601132925423,703,0.29370117,0.9472046,0.4796753
1601132925423,704,0.48510742,0.7614136,0.4725952
1601132925423,705,0.29370117,0.9472046,0.4796753
1601132925423,706,0.21606445,0.6491089,0.61639404
1601132925423,707,0.21606445,0.6491089,0.61639404
1601132925423,708,0.28173828,0.53582764,0.61590576
1601132925423,709,0.28173828,0.53582764,0.61590576
1601132925423,710,0.24633789,0.47576904,0.4713745
1601132925424,711,0.21606445,0.6491089,0.61639404
1601132925428,712,0.28173828,0.53582764,0.61590576
1601132925428,713,0.21606445,0.6491089,0.61639404
1601132925428,714,0.05078125,0.64593506,0.66522217
1601132925428,715,0.28173828,0.53582764,0.61590576
1601132925428,716,0.29370117,0.9472046,0.4796753
1601132925431,717,0.05078125,0.64593506,0.66522217
1601132925431,718,0.29370117,0.9472046,0.4796753
1601132925431,719,0.24633789,0.47576904,0.4713745
1601132925431,720,0.28173828,0.53582764,0.61590576
1601132925438,721,0.05078125,0.64593506,0.66522217
1601132925438,722,0.05078125,0.64593506,0.66522217
1601132925438,723,0.05078125,0.64593506,0.66522217
1601132925438,724,0.067871094,0.7003784,0.5988159
1601132925438,725,0.067871094,0.7003784,0.5988159
1601132925441,726,0.24633789,0.47576904,0.4713745
1601132925441,727,0.21606445,0.6491089,0.61639404
1601132925441,728,0.05078125,0.64593506,0.66522217
1601132925441,729,0.29370117,0.9472046,0.4796753
1601132925442,730,0.28173828,0.53582764,0.61590576
1601132925442,731,0.21606445,0.6491089,0.61639404
1601132925442,732,0.067871094,0.7003784,0.5988159
1601132925442,733,0.05078125,0.64593506,0.66522217
1601132925442,734,0.067871094,0.7003784,0.5988159
1601132925442,735,0.067871094,0.7003784,0.5988159
1601132925442,736,0.28173828,0.53582764,0.61590576
1601132925442,737,0.22460938,0.6757202,0.43426514
1601132925442,738,0.22460938,0.6757202,0.43426514
1601132925442,739,0.21606445,0.6491089,0.61639404
1601132925442,740,0.067871094,0.7003784,0.5988159
1601132925444,741,0.29370117,0.9472046,0.4796753
1601132925445,742,0.22460938,0.6757202,0.43426514
1601132925446,743,0.22460938,0.6757202,0.43426514
1601132925446,744,0.05078125,0.64593506,0.66522217
1601132925446,745,0.067871094,0.7003784,0.5988159
1601132925446,746,0.067871094,0.7003784,0.5988159
1601132925446,747,0.107421875,0.6635132,0.56781006
1601132925446,748,0.22460938,0.6757202,0.43426514
1601132925446,749,0.22460938,0.6757202,0.43426514
1601132925446,750,0.107421875,0.6635132,0.56781006
1601132925446,751,0.22460938,0.6757202,0.43426514
1601132925446,752,0.107421875,0.6635132,0.56781006
1601132925448,753,0.107421875,0.6635132,0.56781006
1601132925456,754,0.28173828,0.53582764,0.61590576
1601132925457,755,0.23730469,0.44281006,0.6400757
1601132925457,756,0.23730469,0.44281006,0.6400757
1601132925457,757,0.107421875,0.6635132,0.56781006
1601132925457,758,0.21606445,0.6491089,0.61639404
1601132925457,759,0.107421875,0.6635132,0.56781006
1601132925458,760,0.107421875,0.6635132,0.56781006
1601132925458,761,0.28173828,0.53582764,0.61590576
1601132925458,762,0.23730469,0.44281006,0.6400757
1601132925458,763,0.22460938,0.6757202,0.43426514
1601132925463,764,0.05078125,0.64593506,0.66522217
1601132925463,765,0.15698242,0.9833374,0.38323975
1601132925463,766,0.15698242,0.9833374,0.38323975
1601132925463,767,0.23730469,0.44281006,0.6400757
1601132925463,768,0.23730469,0.44281006,0.6400757
1601132925463,769,0.23730469,0.44281006,0.6400757
1601132925463,770,0.05078125,0.64593506,0.66522217
1601132925463,771,0.15698242,0.9833374,0.38323975
1601132925463,772,0.067871094,0.7003784,0.5988159
1601132925463,773,0.15698242,0.9833374,0.38323975
1601132925473,774,0.067871094,0.7003784,0.5988159
1601132925473,775,-0.3527832,1.0267944,0.36346436
1601132925473,776,-0.3527832,1.0267944,0.36346436
1601132925473,777,-0.3527832,1.0267944,0.36346436
1601132925474,778,0.22460938,0.6757202,0.43426514
1601132925474,779,0.31982422,0.5841675,0.28485107
1601132925474,780,0.107421875,0.6635132,0.56781006
1601132925474,781,0.31982422,0.5841675,0.28485107
1601132925474,782,0.23730469,0.44281006,0.6400757
1601132925474,783,-0.3527832,1.0267944,0.36346436
1601132925474,784,-0.40771484,1.5187378,-0.15484619
1601132925474,785,0.31982422,0.5841675,0.28485107
1601132925474,786,0.15698242,0.9833374,0.38323975
1601132925474,787,-0.40771484,1.5187378,-0.15484619
1601132925475,788,0.15698242,0.9833374,0.38323975
1601132925475,789,-0.3527832,1.0267944,0.36346436
1601132925475,790,0.23730469,0.44281006,0.6400757
1601132925475,791,0.31982422,0.5841675,0.28485107
1601132925475,792,-0.3527832,1.0267944,0.36346436
1601132925475,793,0.1706543,1.3016968,0.074645996
1601132925480,794,0.31982422,0.5841675,0.28485107
1601132925480,795,0.107421875,0.6635132,0.56781006
1601132925480,796,-0.40771484,1.5187378,-0.15484619
1601132925481,797,0.1706543,1.3016968,0.074645996
1601132925481,798,0.22460938,0.6757202,0.43426514
1601132925481,799,0.1706543,1.3016968,0.074645996
1601132925481,800,0.15698242,0.9833374,0.38323975
1601132925481,801,0.31982422,0.5841675,0.28485107
1601132925481,802,-0.40771484,1.5187378,-0.15484619
1601132925481,803,0.11743164,1.182312,0.22235107
1601132925481,804,-0.40771484,1.5187378,-0.15484619
1601132925481,805,0.23730469,0.44281006,0.6400757
1601132925482,806,-0.3527832,1.0267944,0.36346436
1601132925482,807,0.15698242,0.9833374,0.38323975
1601132925486,808,0.107421875,0.6635132,0.56781006
1601132925486,809,0.11743164,1.182312,0.22235107
1601132925487,810,0.11743164,1.182312,0.22235107
1601132925488,811,-0.40771484,1.5187378,-0.15484619
1601132925489,812,0.23730469,0.44281006,0.6400757
1601132925489,813,0.1706543,1.3016968,0.074645996
1601132925509,814,-0.3527832,1.0267944,0.36346436
1601132925509,815,0.11743164,1.182312,0.22235107
1601132925509,816,0.31982422,0.5841675,0.28485107
1601132925509,817,0.23217773,1.114685,0.27923584
1601132925509,818,0.1706543,1.3016968,0.074645996
1601132925511,819,0.1706543,1.3016968,0.074645996
1601132925511,820,0.11743164,1.182312,0.22235107
1601132925512,821,0.11743164,1.182312,0.22235107
1601132925512,822,0.23217773,1.114685,0.27923584
1601132925512,823,0.11791992,0.7211304,0.32733154
1601132925512,824,0.23217773,1.114685,0.27923584
1601132925513,825,0.23217773,1.114685,0.27923584
1601132925513,826,0.23217773,1.114685,0.27923584
1601132925513,827,-0.40771484,1.5187378,-0.15484619
1601132925513,828,0.11791992,0.7211304,0.32733154
1601132925513,829,0.31982422,0.5841675,0.28485107
1601132925513,830,0.15698242,0.9833374,0.38323975
1601132925513,831,0.15698242,0.9833374,0.38323975
1601132925513,832,0.23217773,1.114685,0.27923584
1601132925513,833,-0.40454102,0.56829834,0.14154053
1601132925514,834,0.11791992,0.7211304,0.32733154
1601132925518,835,-0.40771484,1.5187378,-0.15484619
1601132925519,836,0.1706543,1.3016968,0.074645996
1601132925519,837,0.11791992,0.7211304,0.32733154
1601132925519,838,-0.40454102,0.56829834,0.14154053
1601132925520,839,-0.3527832,1.0267944,0.36346436
1601132925520,840,-0.3527832,1.0267944,0.36346436
1601132925520,841,-0.23535156,0.7875366,0.32733154
1601132925520,842,0.11791992,0.7211304,0.32733154
1601132925520,843,0.11791992,0.7211304,0.32733154
1601132925524,844,0.11743164,1.182312,0.22235107
1601132925524,845,0.1706543,1.3016968,0.074645996
1601132925524,846,-0.40454102,0.56829834,0.14154053
1601132925525,847,0.31982422,0.5841675,0.28485107
1601132925525,848,-0.40454102,0.56829834,0.14154053
1601132925525,849,-0.40454102,0.56829834,0.14154053
1601132925525,850,-0.23535156,0.7875366,0.32733154
1601132925526,851,0.31982422,0.5841675,0.28485107
1601132925526,852,0.23217773,1.114685,0.27923584
1601132925526,853,-0.40771484,1.5187378,-0.15484619
1601132925532,854,-0.23535156,0.7875366,0.32733154
1601132925533,855,-0.15795898,0.6898804,0.5355835
1601132925537,856,0.11743164,1.182312,0.22235107
1601132925537,857,-0.23535156,0.7875366,0.32733154
1601132925560,858,-0.40454102,0.56829834,0.14154053
1601132925560,859,0.11791992,0.7211304,0.32733154
1601132925560,860,0.1706543,1.3016968,0.074645996
1601132925560,861,-0.15795898,0.6898804,0.5355835
1601132925560,862,-0.40771484,1.5187378,-0.15484619
1601132925560,863,0.11743164,1.182312,0.22235107
1601132925560,864,-0.15795898,0.6898804,0.5355835
1601132925560,865,-0.23535156,0.7875366,0.32733154
1601132925560,866,-0.15795898,0.6898804,0.5355835
1601132925560,867,0.23217773,1.114685,0.27923584
1601132925560,868,-0.111328125,0.4328003,0.2975464
1601132925561,869,-0.111328125,0.4328003,0.2975464
1601132925561,870,-0.111328125,0.4328003,0.2975464
1601132925561,871,0.23217773,1.114685,0.27923584
1601132925561,872,0.15698242,0.9796753,0.86224365
1601132925562,873,-0.40454102,0.56829834,0.14154053
1601132925562,874,-0.12695312,0.7172241,-0.050842285
1601132925562,875,-0.15795898,0.6898804,0.5355835
1601132925562,876,-0.23535156,0.7875366,0.32733154
1601132925562,877,0.15698242,0.9796753,0.86224365
1601132925562,878,0.1706543,1.3016968,0.074645996
1601132925562,879,0.11791992,0.7211304,0.32733154
1601132925562,880,-0.15795898,0.6898804,0.5355835
1601132925562,881,-0.17163086,1.0250854,0.10223389
1601132925562,882,-0.23535156,0.7875366,0.32733154
1601132925562,883,0.15698242,0.9796753,0.86224365
1601132925562,884,-0.40454102,0.56829834,0.14154053
1601132925562,885,-0.111328125,0.4328003,0.2975464
1601132925563,886,0.11743164,1.182312,0.22235107
1601132925563,887,0.11791992,0.7211304,0.32733154
1601132925563,888,-0.111328125,0.4328003,0.2975464
1601132925563,889,-0.12695312,0.7172241,-0.050842285
1601132925563,890,-0.12695312,0.7172241,-0.050842285
1601132925563,891,0.23217773,1.114685,0.27923584
1601132925563,892,0.46679688,0.6918335,0.17962646
1601132925563,893,-0.17163086,1.0250854,0.10223389
1601132925563,894,-0.40454102,0.56829834,0.14154053
1601132925567,895,-0.23535156,0.7875366,0.32733154
1601132925568,896,-0.15795898,0.6898804,0.5355835
1601132925568,897,-0.15795898,0.6898804,0.5355835
1601132925570,898,0.15698242,0.9796753,0.86224365
1601132925570,899,0.11791992,0.7211304,0.32733154
1601132925570,900,0.32666016,0.95111084,0.17474365
1601132925570,901,0.46679688,0.6918335,0.17962646
1601132925570,902,-0.17163086,1.0250854,0.10223389
1601132925570,903,0.27075195,0.951355,0.22332764
1601132925570,904,-0.111328125,0.4328003,0.2975464
1601132925570,905,0.15698242,0.9796753,0.86224365
1601132925570,906,0.32666016,0.95111084,0.17474365
1601132925574,907,0.46679688,0.6918335,0.17962646
1601132925574,908,0.15698242,0.9796753,0.86224365
1601132925574,909,-0.40454102,0.56829834,0.14154053
1601132925574,910,-0.111328125,0.4328003,0.2975464
1601132925574,911,-0.23535156,0.7875366,0.32733154
1601132925574,912,-0.23535156,0.7875366,0.32733154
1601132925579,913,0.15698242,0.9796753,0.86224365
1601132925580,914,0.32666016,0.95111084,0.17474365
1601132925580,915,-0.12695312,0.7172241,-0.050842285
1601132925580,916,-0.111328125,0.4328003,0.2975464
1601132925587,917,-0.12695312,0.7172241,-0.050842285
1601132925587,918,-0.12695312,0.7172241,-0.050842285
1601132925587,919,-0.17163086,1.0250854,0.10223389
1601132925587,920,-0.15795898,0.6898804,0.5355835
1601132925587,921,-0.17163086,1.0250854,0.10223389
1601132925587,922,-0.17163086,1.0250854,0.10223389
1601132925587,923,0.27075195,0.951355,0.22332764
1601132925587,924,0.15698242,0.9796753,0.86224365
1601132925587,925,-0.15795898,0.6898804,0.5355835
1601132925587,926,-0.12695312,0.7172241,-0.050842285
1601132925587,927,-0.111328125,0.4328003,0.2975464
1601132925588,928,0.27075195,0.951355,0.22332764
1601132925588,929,-0.17163086,1.0250854,0.10223389
1601132925588,930,0.46679688,0.6918335,0.17962646
1601132925588,931,0.32666016,0.95111084,0.17474365
1601132925588,932,-0.12695312,0.7172241,-0.050842285
1601132925588,933,-0.111328125,0.4328003,0.2975464
1601132925588,934,0.15698242,0.9796753,0.86224365
1601132925588,935,-0.17163086,1.0250854,0.10223389
1601132925588,936,0.46679688,0.6918335,0.17962646
1601132925589,937,0.46679688,0.6918335,0.17962646
1601132925589,938,0.46679688,0.6918335,0.17962646
1601132925589,939,0.27075195,0.951355,0.22332764
1601132925589,940,0.15698242,0.9796753,0.86224365
1601132925589,941,-0.12695312,0.7172241,-0.050842285
1601132925589,942,0.46679688,0.6918335,0.17962646
1601132925589,943,0.32666016,0.95111084,0.17474365
1601132925597,944,0.32666016,0.95111084,0.17474365
1601132925597,945,0.27075195,0.951355,0.22332764
1601132925597,946,-0.12695312,0.7172241,-0.050842285
1601132925597,947,-0.17163086,1.0250854,0.10223389
1601132925597,948,0.32666016,0.95111084,0.17474365
1601132925597,949,0.46679688,0.6918335,0.17962646
1601132925597,950,0.27075195,0.951355,0.22332764
1601132925597,951,0.27075195,0.951355,0.22332764
1601132925597,952,-0.17163086,1.0250854,0.10223389
1601132925598,953,0.32666016,0.95111084,0.17474365
1601132925598,954,0.32666016,0.95111084,0.17474365
1601132925598,955,0.46679688,0.6918335,0.17962646
1601132925598,956,0.27075195,0.951355,0.22332764
1601132925601,957,0.27075195,0.951355,0.22332764
1601132925601,958,0.32666016,0.95111084,0.17474365
1601132925603,959,0.27075195,0.951355,0.22332764
1601132927945,960,0.43188477,0.9225464,0.46380615
1601132927946,961,0.43188477,0.9225464,0.46380615
1601132927946,962,0.43188477,0.9225464,0.46380615
1601132927948,963,0.43188477,0.9225464,0.46380615
1601132927949,964,0.43188477,0.9225464,0.46380615
1601132927950,965,0.43188477,0.9225464,0.46380615
1601132927950,966,-0.125,1.4804077,0.32537842
1601132927950,967,0.43188477,0.9225464,0.46380615
1601132927951,968,-0.125,1.4804077,0.32537842
1601132927951,969,0.43188477,0.9225464,0.46380615
1601132927951,970,-0.125,1.4804077,0.32537842
1601132927952,971,-0.125,1.4804077,0.32537842
1601132927969,972,-0.125,1.4804077,0.32537842
1601132927970,973,-0.35961914,1.0861206,0.3222046
1601132927970,974,-0.125,1.4804077,0.32537842
1601132927970,975,0.43188477,0.9225464,0.46380615
1601132927971,976,-0.35961914,1.0861206,0.3222046
1601132927972,977,-0.125,1.4804077,0.32537842
1601132927972,978,-0.125,1.4804077,0.32537842
1601132927972,979,-0.125,1.4804077,0.32537842
1601132927972,980,-0.35961914,1.0861206,0.3222046
1601132927972,981,-0.040527344,0.7160034,0.31097412
1601132927974,982,-0.35961914,1.0861206,0.3222046
1601132927985,983,-0.35961914,1.0861206,0.3222046
1601132927985,984,-0.35961914,1.0861206,0.3222046
1601132927985,985,0.43188477,0.9225464,0.46380615
1601132927985,986,-0.040527344,0.7160034,0.31097412
1601132927986,987,-0.35961914,1.0861206,0.3222046
1601132927986,988,-0.35961914,1.0861206,0.3222046
1601132927986,989,0.020751953,-0.0134887695,0.15130615
1601132927987,990,-0.040527344,0.7160034,0.31097412
1601132927987,991,-0.040527344,0.7160034,0.31097412
1601132927987,992,-0.040527344,0.7160034,0.31097412
1601132927987,993,0.020751953,-0.0134887695,0.15130615
1601132927987,994,0.020751953,-0.0134887695,0.15130615
1601132927987,995,-0.42089844,1.1610718,0.39398193
1601132927987,996,-0.35961914,1.0861206,0.3222046
1601132927989,997,-0.09643555,0.99823,-0.085510254
1601132927989,998,-0.040527344,0.7160034,0.31097412
1601132927989,999,-0.040527344,0.7160034,0.31097412
1601132927989,1000,0.020751953,-0.0134887695,0.15130615
1601132927989,1001,-0.42089844,1.1610718,0.39398193
1601132927989,1002,0.020751953,-0.0134887695,0.15130615
1601132927998,1003,-0.42089844,1.1610718,0.39398193
1601132927998,1004,-0.125,1.4804077,0.32537842
1601132927998,1005,-0.040527344,0.7160034,0.31097412
1601132927998,1006,-0.040527344,0.7160034,0.31097412
1601132927998,1007,-0.013183594,1.015564,-0.038391113
1601132927998,1008,0.020751953,-0.0134887695,0.15130615
1601132927998,1009,0.020751953,-0.0134887695,0.15130615
1601132927998,1010,-0.42089844,1.1610718,0.39398193
1601132927998,1011,-0.42089844,1.1610718,0.39398193
1601132927998,1012,-0.42089844,1.1610718,0.39398193
1601132927999,1013,-0.42089844,1.1610718,0.39398193
1601132927999,1014,-0.09643555,0.99823,-0.085510254
1601132927999,1015,-0.35961914,1.0861206,0.3222046
1601132927999,1016,0.020751953,-0.0134887695,0.15130615
1601132927999,1017,0.020751953,-0.0134887695,0.15130615
1601132927999,1018,0.26367188,1.0458374,0.08026123
1601132927999,1019,-0.09643555,0.99823,-0.085510254
1601132927999,1020,-0.09643555,0.99823,-0.085510254
1601132928003,1021,-0.013183594,1.015564,-0.038391113
1601132928003,1022,-0.040527344,0.7160034,0.31097412
1601132928003,1023,-0.09643555,0.99823,-0.085510254
1601132928009,1024,-0.42089844,1.1610718,0.39398193
1601132928009,1025,-0.42089844,1.1610718,0.39398193
1601132928009,1026,-0.013183594,1.015564,-0.038391113
1601132928009,1027,0.39868164,1.0446167,-0.109436035
1601132928010,1028,-0.09643555,0.99823,-0.085510254
1601132928010,1029,-0.013183594,1.015564,-0.038391113
1601132928010,1030,0.26367188,1.0458374,0.08026123
1601132928010,1031,-0.09643555,0.99823,-0.085510254
1601132928010,1032,0.26367188,1.0458374,0.08026123
1601132928010,1033,-0.013183594,1.015564,-0.038391113
1601132928019,1034,-0.09643555,0.99823,-0.085510254
1601132928019,1035,-0.09643555,0.99823,-0.085510254
1601132928019,1036,0.020751953,-0.0134887695,0.15130615
1601132928020,1037,-0.013183594,1.015564,-0.038391113
1601132928020,1038,0.4453125,0.7680054,0.08880615
1601132928020,1039,0.26367188,1.0458374,0.08026123
1601132928020,1040,-0.013183594,1.015564,-0.038391113
1601132928020,1041,0.39868164,1.0446167,-0.109436035
1601132928020,1042,0.39868164,1.0446167,-0.109436035
1601132928020,1043,-0.013183594,1.015564,-0.038391113
1601132928021,1044,0.26367188,1.0458374,0.08026123
1601132928021,1045,0.39868164,1.0446167,-0.109436035
1601132928021,1046,-0.013183594,1.015564,-0.038391113
1601132928021,1047,0.26367188,1.0458374,0.08026123
1601132928021,1048,0.26367188,1.0458374,0.08026123
1601132928021,1049,0.4453125,0.7680054,0.08880615
1601132928022,1050,0.39868164,1.0446167,-0.109436035
1601132928022,1051,0.4453125,0.7680054,0.08880615
1601132928027,1052,-0.42089844,1.1610718,0.39398193
1601132928028,1053,0.26367188,1.0458374,0.08026123
1601132928028,1054,0.16625977,0.9215698,0.46844482
1601132928028,1055,0.4453125,0.7680054,0.08880615
1601132928028,1056,0.39868164,1.0446167,-0.109436035
1601132928028,1057,0.13452148,1.2216187,0.31976318
1601132928028,1058,0.16625977,0.9215698,0.46844482
1601132928028,1059,0.4453125,0.7680054,0.08880615
1601132928028,1060,0.26367188,1.0458374,0.08026123
1601132928028,1061,0.16625977,0.9215698,0.46844482
1601132928034,1062,0.39868164,1.0446167,-0.109436035
1601132928034,1063,-0.09643555,0.99823,-0.085510254
1601132928034,1064,0.16625977,0.9215698,0.46844482
1601132928034,1065,0.4453125,0.7680054,0.08880615
1601132928035,1066,-0.04663086,1.1764526,0.33343506
1601132928035,1067,0.13452148,1.2216187,0.31976318
1601132928035,1068,0.39868164,1.0446167,-0.109436035
1601132928035,1069,-0.078125,0.33319092,0.059753418
1601132928035,1070,0.39868164,1.0446167,-0.109436035
1601132928035,1071,0.13452148,1.2216187,0.31976318
1601132928035,1072,0.4453125,0.7680054,0.08880615
1601132928038,1073,0.13452148,1.2216187,0.31976318
1601132928038,1074,0.16625977,0.9215698,0.46844482
1601132928043,1075,-0.04663086,1.1764526,0.33343506
1601132928043,1076,-0.04663086,1.1764526,0.33343506
1601132928043,1077,0.16625977,0.9215698,0.46844482
1601132928043,1078,0.4453125,0.7680054,0.08880615
1601132928043,1079,0.13452148,1.2216187,0.31976318
1601132928043,1080,-0.078125,0.33319092,0.059753418
1601132928043,1081,-0.04663086,1.1764526,0.33343506
1601132928044,1082,-0.078125,0.33319092,0.059753418
1601132928044,1083,0.13452148,1.2216187,0.31976318
1601132928054,1084,0.4453125,0.7680054,0.08880615
1601132928054,1085,-0.103271484,0.15716553,0.13763428
1601132928054,1086,-0.04663086,1.1764526,0.33343506
1601132928054,1087,-0.013183594,1.015564,-0.038391113
1601132928055,1088,0.16625977,0.9215698,0.46844482
1601132928055,1089,-0.078125,0.33319092,0.059753418
1601132928055,1090,0.26367188,1.0458374,0.08026123
1601132928055,1091,-0.103271484,0.15716553,0.13763428
1601132928055,1092,-0.103271484,0.15716553,0.13763428
1601132928055,1093,0.2512207,1.999939,0.449646
1601132928056,1094,0.39868164,1.0446167,-0.109436035
1601132928056,1095,0.16625977,0.9215698,0.46844482
1601132928056,1096,-0.18188477,0.5516968,-0.26324463
1601132928056,1097,0.16625977,0.9215698,0.46844482
1601132928056,1098,-0.078125,0.33319092,0.059753418
1601132928056,1099,-0.04663086,1.1764526,0.33343506
1601132928056,1100,-0.103271484,0.15716553,0.13763428
1601132928056,1101,0.13452148,1.2216187,0.31976318
1601132928056,1102,0.2512207,1.999939,0.449646
1601132928056,1103,0.2512207,1.999939,0.449646
1601132928057,1104,0.4453125,0.7680054,0.08880615
1601132928063,1105,0.517334,1.5060425,-0.24053955
1601132928064,1106,0.13452148,1.2216187,0.31976318
1601132928065,1107,0.13452148,1.2216187,0.31976318
1601132928065,1108,0.2512207,1.999939,0.449646
1601132928065,1109,-0.078125,0.33319092,0.059753418
1601132928065,1110,-0.04663086,1.1764526,0.33343506
1601132928066,1111,-0.103271484,0.15716553,0.13763428
1601132928066,1112,-0.18188477,0.5516968,-0.26324463
1601132928066,1113,-0.18188477,0.5516968,-0.26324463
1601132928066,1114,-0.103271484,0.15716553,0.13763428
1601132928066,1115,0.2512207,1.999939,0.449646
1601132928067,1116,0.30419922,0.6112671,0.109802246
1601132928067,1117,-0.18188477,0.5516968,-0.26324463
1601132928067,1118,-0.04663086,1.1764526,0.33343506
1601132928067,1119,-0.18188477,0.5516968,-0.26324463
1601132928067,1120,0.517334,1.5060425,-0.24053955
1601132928067,1121,0.517334,1.5060425,-0.24053955
1601132928067,1122,0.16625977,0.9215698,0.46844482
1601132928069,1123,-0.04663086,1.1764526,0.33343506
1601132928069,1124,0.517334,1.5060425,-0.24053955
1601132928069,1125,0.4008789,1.2245483,0.42474365
1601132928070,1126,0.2512207,1.999939,0.449646
1601132928070,1127,-0.078125,0.33319092,0.059753418
1601132928070,1128,0.611084,0.70843506,0.6976929
1601132928070,1129,-0.078125,0.33319092,0.059753418
1601132928070,1130,-0.103271484,0.15716553,0.13763428
1601132928070,1131,-0.31860352,0.5314331,0.49822998
1601132928072,1132,0.517334,1.5060425,-0.24053955
1601132928072,1133,-0.4099121,0.6798706,-0.24005127
1601132928072,1134,0.14428711,1.0429077,-0.37164307
1601132928077,1135,0.3786621,1.1151733,-0.22491455
1601132928078,1136,0.13452148,1.2216187,0.31976318
1601132928078,1137,-0.103271484,0.15716553,0.13763428
1601132928078,1138,-0.078125,0.33319092,0.059753418
1601132928078,1139,0.30419922,0.6112671,0.109802246
1601132928079,1140,-0.013916016,1.8307495,-0.04156494
1601132928079,1141,-0.18188477,0.5516968,-0.26324463
1601132928079,1142,0.30419922,0.6112671,0.109802246
1601132928079,1143,0.517334,1.5060425,-0.24053955
1601132928079,1144,0.2512207,1.999939,0.449646
1601132928079,1145,-0.04663086,1.1764526,0.33343506
1601132928080,1146,0.2512207,1.999939,0.449646
1601132928081,1147,1.0163574,0.32269287,0.54852295
1601132928098,1148,0.30419922,0.6112671,0.109802246
1601132928098,1149,0.30419922,0.6112671,0.109802246
1601132928099,1150,0.4008789,1.2245483,0.42474365
1601132928099,1151,-0.18188477,0.5516968,-0.26324463
1601132928099,1152,0.4008789,1.2245483,0.42474365
1601132928099,1153,-0.078125,0.33319092,0.059753418
1601132928099,1154,-0.103271484,0.15716553,0.13763428
1601132928099,1155,0.517334,1.5060425,-0.24053955
1601132928100,1156,0.4008789,1.2245483,0.42474365
1601132928100,1157,-0.18188477,0.5516968,-0.26324463
1601132928100,1158,0.2512207,1.999939,0.449646
1601132928101,1159,0.4008789,1.2245483,0.42474365
1601132928101,1160,-0.18188477,0.5516968,-0.26324463
1601132928101,1161,0.611084,0.70843506,0.6976929
1601132928101,1162,0.611084,0.70843506,0.6976929
1601132928101,1163,0.061035156,1.5336304,0.6322632
1601132928101,1164,-0.103271484,0.15716553,0.13763428
1601132928101,1165,0.30419922,0.6112671,0.109802246
1601132928101,1166,-0.31860352,0.5314331,0.49822998
1601132928102,1167,0.30419922,0.6112671,0.109802246
1601132928103,1168,0.611084,0.70843506,0.6976929
1601132928103,1169,0.517334,1.5060425,-0.24053955
1601132928103,1170,-0.4099121,0.6798706,-0.24005127
1601132928103,1171,0.517334,1.5060425,-0.24053955
1601132928103,1172,0.611084,0.70843506,0.6976929
1601132928103,1173,0.4008789,1.2245483,0.42474365
1601132928104,1174,-0.31860352,0.5314331,0.49822998
1601132928104,1175,0.8095703,0.75164795,-0.026184082
1601132928104,1176,0.4008789,1.2245483,0.42474365
1601132928104,1177,-0.31860352,0.5314331,0.49822998
1601132928104,1178,-0.31860352,0.5314331,0.49822998
1601132928104,1179,-0.4099121,0.6798706,-0.24005127
1601132928104,1180,0.14428711,1.0429077,-0.37164307
1601132928104,1181,0.30419922,0.6112671,0.109802246
1601132928104,1182,-0.4099121,0.6798706,-0.24005127
1601132928104,1183,-0.4099121,0.6798706,-0.24005127
1601132928104,1184,0.611084,0.70843506,0.6976929
1601132928104,1185,0.611084,0.70843506,0.6976929
1601132928105,1186,0.14428711,1.0429077,-0.37164307
1601132928105,1187,0.3786621,1.1151733,-0.22491455
1601132928105,1188,-0.15600586,0.7614136,0.011413574
1601132928121,1189,0.2512207,1.999939,0.449646
1601132928121,1190,0.4008789,1.2245483,0.42474365
1601132928121,1191,-0.18188477,0.5516968,-0.26324463
1601132928121,1192,0.30419922,0.6112671,0.109802246
1601132928121,1193,0.14428711,1.0429077,-0.37164307
1601132928121,1194,-0.31860352,0.5314331,0.49822998
1601132928121,1195,-0.31860352,0.5314331,0.49822998
1601132928121,1196,0.3786621,1.1151733,-0.22491455
1601132928122,1197,-0.013916016,1.8307495,-0.04156494
1601132928122,1198,0.2006836,1.0665894,-0.015930176
1601132928122,1199,1.0163574,0.32269287,0.54852295
1601132928122,1200,0.14428711,1.0429077,-0.37164307
1601132928123,1201,0.517334,1.5060425,-0.24053955
1601132928123,1202,0.611084,0.70843506,0.6976929
1601132928123,1203,0.4008789,1.2245483,0.42474365
1601132928123,1204,0.3786621,1.1151733,-0.22491455
1601132928123,1205,-0.4099121,0.6798706,-0.24005127
1601132928124,1206,-0.4099121,0.6798706,-0.24005127
1601132928124,1207,-0.013916016,1.8307495,-0.04156494
1601132928124,1208,-0.013916016,1.8307495,-0.04156494
1601132928124,1209,1.0163574,0.32269287,0.54852295
1601132928124,1210,0.061035156,1.5336304,0.6322632
1601132928124,1211,-0.31860352,0.5314331,0.49822998
1601132928124,1212,0.611084,0.70843506,0.6976929
1601132928124,1213,0.14428711,1.0429077,-0.37164307
1601132928124,1214,1.0163574,0.32269287,0.54852295
1601132928125,1215,0.30419922,0.6112671,0.109802246
1601132928125,1216,0.14428711,1.0429077,-0.37164307
1601132928125,1217,0.3786621,1.1151733,-0.22491455
1601132928125,1218,0.061035156,1.5336304,0.6322632
1601132928125,1219,0.8095703,0.75164795,-0.026184082
1601132928125,1220,0.3786621,1.1151733,-0.22491455
1601132928126,1221,0.061035156,1.5336304,0.6322632
1601132928133,1222,0.4008789,1.2245483,0.42474365
1601132928134,1223,0.3786621,1.1151733,-0.22491455
1601132928134,1224,-0.013916016,1.8307495,-0.04156494
1601132928134,1225,0.8095703,0.75164795,-0.026184082
1601132928135,1226,-0.15600586,0.7614136,0.011413574
1601132928135,1227,-0.013916016,1.8307495,-0.04156494
1601132928135,1228,0.8095703,0.75164795,-0.026184082
1601132928135,1229,0.611084,0.70843506,0.6976929
1601132928144,1230,-0.4099121,0.6798706,-0.24005127
1601132928144,1231,-0.013916016,1.8307495,-0.04156494
1601132928144,1232,1.0163574,0.32269287,0.54852295
1601132928144,1233,-0.15600586,0.7614136,0.011413574
1601132928146,1234,-0.15600586,0.7614136,0.011413574
1601132928146,1235,1.0163574,0.32269287,0.54852295
1601132928146,1236,0.2006836,1.0665894,-0.015930176
1601132928146,1237,-0.31860352,0.5314331,0.49822998
1601132928146,1238,1.0163574,0.32269287,0.54852295
1601132928147,1239,0.14428711,1.0429077,-0.37164307
1601132928147,1240,0.061035156,1.5336304,0.6322632
1601132928147,1241,0.2006836,1.0665894,-0.015930176
1601132928148,1242,0.2006836,1.0665894,-0.015930176
1601132928148,1243,0.061035156,1.5336304,0.6322632
1601132928148,1244,-0.31860352,0.5314331,0.49822998
1601132928148,1245,-0.4099121,0.6798706,-0.24005127
1601132928148,1246,0.061035156,1.5336304,0.6322632
1601132928148,1247,-0.4099121,0.6798706,-0.24005127
1601132928148,1248,0.3786621,1.1151733,-0.22491455
1601132928148,1249,0.8095703,0.75164795,-0.026184082
1601132928148,1250,0.8095703,0.75164795,-0.026184082
1601132928149,1251,-0.15600586,0.7614136,0.011413574
1601132928149,1252,0.8095703,0.75164795,-0.026184082
1601132928149,1253,0.14428711,1.0429077,-0.37164307
1601132928150,1254,-0.013916016,1.8307495,-0.04156494
1601132928150,1255,0.14428711,1.0429077,-0.37164307
1601132928150,1256,0.2006836,1.0665894,-0.015930176
1601132928150,1257,-0.15600586,0.7614136,0.011413574
1601132928152,1258,0.3786621,1.1151733,-0.22491455
1601132928152,1259,0.3786621,1.1151733,-0.22491455
1601132928152,1260,-0.15600586,0.7614136,0.011413574
1601132928152,1261,-0.013916016,1.8307495,-0.04156494
1601132928152,1262,0.2006836,1.0665894,-0.015930176
1601132928152,1263,1.0163574,0.32269287,0.54852295
1601132928155,1264,1.0163574,0.32269287,0.54852295
1601132928155,1265,0.061035156,1.5336304,0.6322632
1601132928156,1266,-0.013916016,1.8307495,-0.04156494
1601132928156,1267,0.2006836,1.0665894,-0.015930176
1601132928156,1268,0.061035156,1.5336304,0.6322632
1601132928156,1269,0.8095703,0.75164795,-0.026184082
1601132928159,1270,0.8095703,0.75164795,-0.026184082
1601132928159,1271,-0.15600586,0.7614136,0.011413574
1601132928159,1272,1.0163574,0.32269287,0.54852295
1601132928159,1273,-0.15600586,0.7614136,0.011413574
1601132928159,1274,0.2006836,1.0665894,-0.015930176
1601132928160,1275,0.2006836,1.0665894,-0.015930176
1601132928161,1276,0.061035156,1.5336304,0.6322632
1601132928164,1277,0.8095703,0.75164795,-0.026184082
1601132928164,1278,-0.15600586,0.7614136,0.011413574
1601132928166,1279,0.2006836,1.0665894,-0.015930176
1601132930470,1280,0.48657227,0.81170654,0.17889404
1601132930477,1281,0.48657227,0.81170654,0.17889404
1601132930477,1282,0.48657227,0.81170654,0.17889404
1601132930478,1283,0.07910156,0.52337646,0.2975464
1601132930478,1284,0.48657227,0.81170654,0.17889404
1601132930478,1285,0.07910156,0.52337646,0.2975464
1601132930478,1286,0.48657227,0.81170654,0.17889404
1601132930478,1287,0.17211914,1.4630737,0.10223389
1601132930479,1288,0.48657227,0.81170654,0.17889404
1601132930479,1289,0.48657227,0.81170654,0.17889404
1601132930480,1290,0.48657227,0.81170654,0.17889404
1601132930489,1291,0.07910156,0.52337646,0.2975464
1601132930489,1292,0.48657227,0.81170654,0.17889404
1601132930489,1293,0.17211914,1.4630737,0.10223389
1601132930489,1294,0.47802734,1.7831421,0.19866943
1601132930490,1295,0.07910156,0.52337646,0.2975464
1601132930490,1296,0.063964844,1.0985718,0.24578857
1601132930490,1297,0.07910156,0.52337646,0.2975464
1601132930490,1298,0.17211914,1.4630737,0.10223389
1601132930490,1299,0.48657227,0.81170654,0.17889404
1601132930490,1300,0.17211914,1.4630737,0.10223389
1601132930491,1301,0.07910156,0.52337646,0.2975464
1601132930491,1302,0.47802734,1.7831421,0.19866943
1601132930492,1303,0.47802734,1.7831421,0.19866943
1601132930492,1304,0.063964844,1.0985718,0.24578857
1601132930492,1305,0.07910156,0.52337646,0.2975464
1601132930492,1306,0.07910156,0.52337646,0.2975464
1601132930492,1307,0.47802734,1.7831421,0.19866943
1601132930492,1308,-0.07543945,-0.28668213,0.059509277
1601132930506,1309,0.17211914,1.4630737,0.10223389
1601132930506,1310,0.07910156,0.52337646,0.2975464
1601132930506,1311,0.17211914,1.4630737,0.10223389
1601132930506,1312,0.07910156,0.52337646,0.2975464
1601132930506,1313,-0.07543945,-0.28668213,0.059509277
1601132930507,1314,0.47802734,1.7831421,0.19866943
1601132930507,1315,0.17211914,1.4630737,0.10223389
1601132930507,1316,0.17211914,1.4630737,0.10223389
1601132930507,1317,-0.25219727,-0.1873169,-0.2805786
1601132930507,1318,0.063964844,1.0985718,0.24578857
1601132930507,1319,-0.25219727,-0.1873169,-0.2805786
1601132930507,1320,0.47802734,1.7831421,0.19866943
1601132930507,1321,0.17211914,1.4630737,0.10223389
1601132930507,1322,-0.07543945,-0.28668213,0.059509277
1601132930507,1323,0.063964844,1.0985718,0.24578857
1601132930507,1324,0.47802734,1.7831421,0.19866943
1601132930507,1325,0.83032227,1.199646,0.39593506
1601132930518,1326,0.83032227,1.199646,0.39593506
1601132930518,1327,0.063964844,1.0985718,0.24578857
1601132930518,1328,0.063964844,1.0985718,0.24578857
1601132930518,1329,-0.25219727,-0.1873169,-0.2805786
1601132930518,1330,0.47802734,1.7831421,0.19866943
1601132930518,1331,0.47802734,1.7831421,0.19866943
1601132930518,1332,-0.07543945,-0.28668213,0.059509277
1601132930518,1333,-0.07543945,-0.28668213,0.059509277
1601132930520,1334,-0.25219727,-0.1873169,-0.2805786
1601132930520,1335,0.83032227,1.199646,0.39593506
1601132930520,1336,0.063964844,1.0985718,0.24578857
1601132930520,1337,-0.93408203,1.8549194,-0.14801025
1601132930520,1338,0.063964844,1.0985718,0.24578857
1601132930520,1339,0.063964844,1.0985718,0.24578857
1601132930520,1340,-0.93408203,1.8549194,-0.14801025
1601132930520,1341,-0.07543945,-0.28668213,0.059509277
1601132930520,1342,0.17211914,1.4630737,0.10223389
1601132930521,1343,-0.25219727,-0.1873169,-0.2805786
1601132930521,1344,-0.07543945,-0.28668213,0.059509277
1601132930522,1345,-0.93408203,1.8549194,-0.14801025
1601132930539,1346,-0.07543945,-0.28668213,0.059509277
1601132930540,1347,1.1738281,1.24823,-0.315979
1601132930540,1348,1.1738281,1.24823,-0.315979
1601132930540,1349,-0.25219727,-0.1873169,-0.2805786
1601132930540,1350,0.83032227,1.199646,0.39593506
1601132930540,1351,0.47802734,1.7831421,0.19866943
1601132930540,1352,0.83032227,1.199646,0.39593506
1601132930540,1353,-0.25219727,-0.1873169,-0.2805786
1601132930540,1354,0.063964844,1.0985718,0.24578857
1601132930540,1355,-0.93408203,1.8549194,-0.14801025
1601132930540,1356,-0.07543945,-0.28668213,0.059509277
1601132930540,1357,-0.93408203,1.8549194,-0.14801025
1601132930540,1358,0.83032227,1.199646,0.39593506
1601132930541,1359,1.1738281,1.24823,-0.315979
1601132930541,1360,1.1738281,1.24823,-0.315979
1601132930541,1361,0.1665039,0.75286865,0.26312256
1601132930541,1362,-0.93408203,1.8549194,-0.14801025
1601132930541,1363,-0.07543945,-0.28668213,0.059509277
1601132930541,1364,-0.25219727,-0.1873169,-0.2805786
1601132930541,1365,0.83032227,1.199646,0.39593506
1601132930541,1366,0.1665039,0.75286865,0.26312256
1601132930541,1367,1.1738281,1.24823,-0.315979
1601132930541,1368,0.25195312,0.46258545,0.23236084
1601132930541,1369,0.1665039,0.75286865,0.26312256
1601132930541,1370,0.1665039,0.75286865,0.26312256
1601132930553,1371,1.1738281,1.24823,-0.315979
1601132930553,1372,-0.25219727,-0.1873169,-0.2805786
1601132930553,1373,0.25195312,0.46258545,0.23236084
1601132930553,1374,0.83032227,1.199646,0.39593506
1601132930554,1375,0.83032227,1.199646,0.39593506
1601132930554,1376,0.3095703,1.1332397,0.117614746
1601132930554,1377,-0.25219727,-0.1873169,-0.2805786
1601132930554,1378,-0.93408203,1.8549194,-0.14801025
1601132930554,1379,0.1665039,0.75286865,0.26312256
1601132930554,1380,0.83032227,1.199646,0.39593506
1601132930554,1381,0.3095703,1.1332397,0.117614746
1601132930554,1382,-0.93408203,1.8549194,-0.14801025
1601132930554,1383,-0.4284668,1.638855,0.15032959
1601132930554,1384,0.25195312,0.46258545,0.23236084
1601132930554,1385,-0.93408203,1.8549194,-0.14801025
1601132930554,1386,1.1738281,1.24823,-0.315979
1601132930555,1387,1.1738281,1.24823,-0.315979
1601132930555,1388,0.1665039,0.75286865,0.26312256
1601132930555,1389,0.1665039,0.75286865,0.26312256
1601132930555,1390,-0.03466797,0.43060303,0.16546631
1601132930555,1391,0.25195312,0.46258545,0.23236084
1601132930555,1392,-0.93408203,1.8549194,-0.14801025
1601132930555,1393,0.25195312,0.46258545,0.23236084
1601132930555,1394,0.25195312,0.46258545,0.23236084
1601132930556,1395,-0.4284668,1.638855,0.15032959
1601132930556,1396,0.3095703,1.1332397,0.117614746
1601132930556,1397,0.3095703,1.1332397,0.117614746
1601132930556,1398,0.25195312,0.46258545,0.23236084
1601132930556,1399,1.1738281,1.24823,-0.315979
1601132930556,1400,1.1738281,1.24823,-0.315979
1601132930556,1401,-0.4284668,1.638855,0.15032959
1601132930556,1402,0.1665039,0.75286865,0.26312256
1601132930556,1403,0.1665039,0.75286865,0.26312256
1601132930556,1404,-0.4284668,1.638855,0.15032959
1601132930557,1405,-0.03466797,0.43060303,0.16546631
1601132930557,1406,-0.03466797,0.43060303,0.16546631
1601132930557,1407,0.3095703,1.1332397,0.117614746
1601132930557,1408,-4.8828125E-4,0.25286865,0.14520264
1601132930557,1409,-4.8828125E-4,0.25286865,0.14520264
1601132930557,1410,0.3095703,1.1332397,0.117614746
1601132930557,1411,0.1665039,0.75286865,0.26312256
1601132930558,1412,-0.03466797,0.43060303,0.16546631
1601132930558,1413,0.3095703,1.1332397,0.117614746
1601132930559,1414,0.25195312,0.46258545,0.23236084
1601132930559,1415,-4.8828125E-4,0.25286865,0.14520264
1601132930559,1416,0.25195312,0.46258545,0.23236084
1601132930559,1417,-0.4284668,1.638855,0.15032959
1601132930559,1418,0.100097656,0.9188843,0.4100952
1601132930564,1419,-0.4284668,1.638855,0.15032959
1601132930565,1420,-4.8828125E-4,0.25286865,0.14520264
1601132930565,1421,0.5432129,1.2345581,0.14105225
1601132930565,1422,-0.4284668,1.638855,0.15032959
1601132930565,1423,0.100097656,0.9188843,0.4100952
1601132930565,1424,0.3095703,1.1332397,0.117614746
1601132930565,1425,-0.03466797,0.43060303,0.16546631
1601132930565,1426,0.100097656,0.9188843,0.4100952
1601132930566,1427,0.25195312,0.46258545,0.23236084
1601132930572,1428,0.100097656,0.9188843,0.4100952
1601132930572,1429,0.16113281,0.91693115,0.08758545
1601132930573,1430,-0.03466797,0.43060303,0.16546631
1601132930573,1431,0.5432129,1.2345581,0.14105225
1601132930573,1432,-4.8828125E-4,0.25286865,0.14520264
1601132930573,1433,0.16113281,0.91693115,0.08758545
1601132930573,1434,0.5432129,1.2345581,0.14105225
1601132930573,1435,0.5432129,1.2345581,0.14105225
1601132930573,1436,0.100097656,0.9188843,0.4100952
1601132930574,1437,0.3095703,1.1332397,0.117614746
1601132930579,1438,0.001953125,1.03656,0.16009521
1601132930579,1439,-0.4284668,1.638855,0.15032959
1601132930579,1440,0.5432129,1.2345581,0.14105225
1601132930580,1441,-4.8828125E-4,0.25286865,0.14520264
1601132930580,1442,-0.03466797,0.43060303,0.16546631
1601132930580,1443,0.001953125,1.03656,0.16009521
1601132930581,1444,-0.4284668,1.638855,0.15032959
1601132930581,1445,-4.8828125E-4,0.25286865,0.14520264
1601132930581,1446,0.16113281,0.91693115,0.08758545
1601132930581,1447,-0.03466797,0.43060303,0.16546631
1601132930581,1448,-0.12646484,0.89593506,0.28289795
1601132930589,1449,0.100097656,0.9188843,0.4100952
1601132930589,1450,0.16113281,0.91693115,0.08758545
1601132930589,1451,0.16113281,0.91693115,0.08758545
1601132930590,1452,-0.12646484,0.89593506,0.28289795
1601132930590,1453,0.100097656,0.9188843,0.4100952
1601132930590,1454,0.3095703,1.1332397,0.117614746
1601132930590,1455,-4.8828125E-4,0.25286865,0.14520264
1601132930590,1456,0.001953125,1.03656,0.16009521
1601132930590,1457,-0.03466797,0.43060303,0.16546631
1601132930590,1458,0.39672852,0.76312256,0.3764038
1601132930591,1459,-0.4284668,1.638855,0.15032959
1601132930591,1460,-0.12646484,0.89593506,0.28289795
1601132930591,1461,-0.03466797,0.43060303,0.16546631
1601132930591,1462,0.001953125,1.03656,0.16009521
1601132930591,1463,0.39672852,0.76312256,0.3764038
1601132930591,1464,0.5432129,1.2345581,0.14105225
1601132930591,1465,0.29760742,0.822937,0.3834839
1601132930592,1466,0.100097656,0.9188843,0.4100952
1601132930592,1467,0.29760742,0.822937,0.3834839
1601132930594,1468,-0.13745117,0.83270264,0.41351318
1601132930603,1469,-0.27807617,0.9064331,0.42108154
1601132930604,1470,-4.8828125E-4,0.25286865,0.14520264
1601132930604,1471,-0.13745117,0.83270264,0.41351318
1601132930604,1472,0.16113281,0.91693115,0.08758545
1601132930604,1473,0.5432129,1.2345581,0.14105225
1601132930604,1474,0.5432129,1.2345581,0.14105225
1601132930604,1475,0.001953125,1.03656,0.16009521
1601132930604,1476,-4.8828125E-4,0.25286865,0.14520264
1601132930604,1477,0.39672852,0.76312256,0.3764038
1601132930618,1478,0.100097656,0.9188843,0.4100952
1601132930618,1479,-0.12646484,0.89593506,0.28289795
1601132930618,1480,-0.27807617,0.9064331,0.42108154
1601132930619,1481,0.100097656,0.9188843,0.4100952
1601132930619,1482,0.16113281,0.91693115,0.08758545
1601132930619,1483,0.001953125,1.03656,0.16009521
1601132930619,1484,0.16113281,0.91693115,0.08758545
1601132930619,1485,-0.12646484,0.89593506,0.28289795
1601132930619,1486,0.29760742,0.822937,0.3834839
1601132930619,1487,-0.12646484,0.89593506,0.28289795
1601132930619,1488,-0.13745117,0.83270264,0.41351318
1601132930620,1489,0.39672852,0.76312256,0.3764038
1601132930620,1490,-0.27807617,0.9064331,0.42108154
1601132930620,1491,-0.13867188,0.8583374,0.3685913
1601132930620,1492,-0.14819336,0.81951904,0.32733154
1601132930620,1493,0.001953125,1.03656,0.16009521
1601132930620,1494,-0.2722168,0.8773804,0.3270874
1601132930621,1495,0.001953125,1.03656,0.16009521
1601132930621,1496,-0.107910156,0.78900146,0.30413818
1601132930621,1497,0.5432129,1.2345581,0.14105225
1601132930621,1498,0.29760742,0.822937,0.3834839
1601132930621,1499,-0.05444336,0.83465576,0.4076538
1601132930621,1500,0.16113281,0.91693115,0.08758545
1601132930622,1501,0.5432129,1.2345581,0.14105225
1601132930622,1502,0.39672852,0.76312256,0.3764038
1601132930626,1503,-0.13867188,0.8583374,0.3685913
1601132930626,1504,0.39672852,0.76312256,0.3764038
1601132930626,1505,-0.12646484,0.89593506,0.28289795
1601132930626,1506,0.001953125,1.03656,0.16009521
1601132930626,1507,-0.0715332,0.9682007,0.6227417
1601132930627,1508,-0.12646484,0.89593506,0.28289795
1601132930627,1509,-0.13745117,0.83270264,0.41351318
1601132930627,1510,0.39672852,0.76312256,0.3764038
1601132930627,1511,0.29760742,0.822937,0.3834839
1601132930627,1512,-0.13867188,0.8583374,0.3685913
1601132930634,1513,-0.14819336,0.81951904,0.32733154
1601132930634,1514,0.29760742,0.822937,0.3834839
1601132930634,1515,-0.2722168,0.8773804,0.3270874
1601132930634,1516,-0.13745117,0.83270264,0.41351318
1601132930634,1517,0.13916016,1.0026245,0.6378784
1601132930635,1518,-0.107910156,0.78900146,0.30413818
1601132930635,1519,-0.14819336,0.81951904,0.32733154
1601132930635,1520,0.29760742,0.822937,0.3834839
1601132930635,1521,-0.27807617,0.9064331,0.42108154
1601132930635,1522,-0.12646484,0.89593506,0.28289795
1601132930636,1523,0.16113281,0.91693115,0.08758545
1601132930636,1524,-0.27807617,0.9064331,0.42108154
1601132930636,1525,-0.13745117,0.83270264,0.41351318
1601132930636,1526,0.39672852,0.76312256,0.3764038
1601132930636,1527,-0.13867188,0.8583374,0.3685913
1601132930637,1528,-0.27807617,0.9064331,0.42108154
1601132930637,1529,-0.2722168,0.8773804,0.3270874
1601132930637,1530,-0.05444336,0.83465576,0.4076538
1601132930637,1531,0.001953125,1.03656,0.16009521
1601132930637,1532,0.29760742,0.822937,0.3834839
1601132930638,1533,-0.14819336,0.81951904,0.32733154
1601132930640,1534,0.39672852,0.76312256,0.3764038
1601132930640,1535,-0.107910156,0.78900146,0.30413818
1601132930641,1536,-0.0715332,0.9682007,0.6227417
1601132930641,1537,-0.13745117,0.83270264,0.41351318
1601132930642,1538,-0.13867188,0.8583374,0.3685913
1601132930647,1539,-0.2722168,0.8773804,0.3270874
1601132930647,1540,-0.14819336,0.81951904,0.32733154
1601132930648,1541,-0.107910156,0.78900146,0.30413818
1601132930648,1542,-0.12646484,0.89593506,0.28289795
1601132930648,1543,-0.13745117,0.83270264,0.41351318
1601132930648,1544,-0.27807617,0.9064331,0.42108154
1601132930649,1545,-0.13867188,0.8583374,0.3685913
1601132930649,1546,-0.05444336,0.83465576,0.4076538
1601132930651,1547,-0.14819336,0.81951904,0.32733154
1601132930651,1548,-0.05444336,0.83465576,0.4076538
1601132930651,1549,-0.2722168,0.8773804,0.3270874
1601132930652,1550,-0.27807617,0.9064331,0.42108154
1601132930652,1551,0.13916016,1.0026245,0.6378784
1601132930653,1552,-0.13867188,0.8583374,0.3685913
1601132930653,1553,-0.14819336,0.81951904,0.32733154
1601132930653,1554,0.39672852,0.76312256,0.3764038
1601132930657,1555,-0.2722168,0.8773804,0.3270874
1601132930657,1556,-0.0715332,0.9682007,0.6227417
1601132930657,1557,-0.13867188,0.8583374,0.3685913
1601132930657,1558,-0.107910156,0.78900146,0.30413818
1601132930657,1559,-0.2722168,0.8773804,0.3270874
1601132930657,1560,0.13916016,1.0026245,0.6378784
1601132930657,1561,-0.107910156,0.78900146,0.30413818
1601132930657,1562,0.29760742,0.822937,0.3834839
1601132930657,1563,0.29760742,0.822937,0.3834839
1601132930658,1564,-0.107910156,0.78900146,0.30413818
1601132930658,1565,-0.05444336,0.83465576,0.4076538
1601132930661,1566,-0.05444336,0.83465576,0.4076538
1601132930661,1567,-0.0715332,0.9682007,0.6227417
1601132930661,1568,-0.14819336,0.81951904,0.32733154
1601132930661,1569,-0.0715332,0.9682007,0.6227417
1601132930661,1570,-0.13745117,0.83270264,0.41351318
1601132930661,1571,-0.13745117,0.83270264,0.41351318
1601132930661,1572,-0.0715332,0.9682007,0.6227417
1601132930662,1573,-0.05444336,0.83465576,0.4076538
1601132930662,1574,-0.2722168,0.8773804,0.3270874
1601132930662,1575,0.13916016,1.0026245,0.6378784
1601132930662,1576,0.13916016,1.0026245,0.6378784
1601132930664,1577,-0.0715332,0.9682007,0.6227417
1601132930665,1578,-0.27807617,0.9064331,0.42108154
1601132930665,1579,-0.27807617,0.9064331,0.42108154
1601132930667,1580,0.13916016,1.0026245,0.6378784
1601132930667,1581,0.13916016,1.0026245,0.6378784
1601132930667,1582,-0.13867188,0.8583374,0.3685913
1601132930669,1583,-0.14819336,0.81951904,0.32733154
1601132930669,1584,-0.13867188,0.8583374,0.3685913
1601132930671,1585,-0.2722168,0.8773804,0.3270874
1601132930671,1586,-0.14819336,0.81951904,0.32733154
1601132930673,1587,-0.107910156,0.78900146,0.30413818
1601132930673,1588,-0.107910156,0.78900146,0.30413818
1601132930673,1589,-0.05444336,0.83465576,0.4076538
1601132930673,1590,-0.05444336,0.83465576,0.4076538
1601132930673,1591,-0.2722168,0.8773804,0.3270874
1601132930673,1592,-0.0715332,0.9682007,0.6227417
1601132930674,1593,-0.0715332,0.9682007,0.6227417
1601132930675,1594,-0.107910156,0.78900146,0.30413818
1601132930677,1595,0.13916016,1.0026245,0.6378784
1601132930677,1596,0.13916016,1.0026245,0.6378784
1601132930677,1597,-0.05444336,0.83465576,0.4076538
1601132930678,1598,-0.0715332,0.9682007,0.6227417
1601132930680,1599,0.13916016,1.0026245,0.6378784
1601132933015,1600,0.029296875,0.45306396,-0.6174927
1601132933016,1601,0.029296875,0.45306396,-0.6174927
1601132933016,1602,0.029296875,0.45306396,-0.6174927
1601132933018,1603,0.029296875,0.45306396,-0.6174927
1601132933018,1604,0.029296875,0.45306396,-0.6174927
1601132933019,1605,0.029296875,0.45306396,-0.6174927
1601132933019,1606,0.029296875,0.45306396,-0.6174927
1601132933019,1607,0.029296875,0.45306396,-0.6174927
1601132933019,1608,-0.38110352,1.4159546,-0.6194458
1601132933024,1609,-0.38110352,1.4159546,-0.6194458
1601132933025,1610,0.029296875,0.45306396,-0.6174927
1601132933025,1611,0.029296875,0.45306396,-0.6174927
1601132933025,1612,-0.38110352,1.4159546,-0.6194458
1601132933026,1613,-0.38110352,1.4159546,-0.6194458
1601132933026,1614,-0.38110352,1.4159546,-0.6194458
1601132933026,1615,-0.47070312,1.2428589,-0.44415283
1601132933026,1616,-0.38110352,1.4159546,-0.6194458
1601132933026,1617,-0.38110352,1.4159546,-0.6194458
1601132933026,1618,-0.47070312,1.2428589,-0.44415283
1601132933026,1619,-0.38110352,1.4159546,-0.6194458
1601132933038,1620,-0.38110352,1.4159546,-0.6194458
1601132933039,1621,-0.38110352,1.4159546,-0.6194458
1601132933039,1622,-0.47070312,1.2428589,-0.44415283
1601132933040,1623,0.80322266,0.91693115,0.53533936
1601132933041,1624,-0.47070312,1.2428589,-0.44415283
1601132933041,1625,0.80322266,0.91693115,0.53533936
1601132933041,1626,-0.47070312,1.2428589,-0.44415283
1601132933041,1627,-0.47070312,1.2428589,-0.44415283
1601132933041,1628,0.80322266,0.91693115,0.53533936
1601132933041,1629,0.80322266,0.91693115,0.53533936
1601132933041,1630,-0.47070312,1.2428589,-0.44415283
1601132933041,1631,-0.47070312,1.2428589,-0.44415283
1601132933056,1632,0.80322266,0.91693115,0.53533936
1601132933056,1633,0.80322266,0.91693115,0.53533936
1601132933056,1634,-0.44433594,1.0993042,-0.013000488
1601132933056,1635,-0.44433594,1.0993042,-0.013000488
1601132933056,1636,0.80322266,0.91693115,0.53533936
1601132933056,1637,0.21362305,0.8336792,-0.32891846
1601132933057,1638,-0.44433594,1.0993042,-0.013000488
1601132933057,1639,-0.47070312,1.2428589,-0.44415283
1601132933057,1640,0.80322266,0.91693115,0.53533936
1601132933062,1641,-0.47070312,1.2428589,-0.44415283
1601132933062,1642,-0.44433594,1.0993042,-0.013000488
1601132933062,1643,0.21362305,0.8336792,-0.32891846
1601132933062,1644,0.21362305,0.8336792,-0.32891846
1601132933064,1645,0.80322266,0.91693115,0.53533936
1601132933064,1646,0.21362305,0.8336792,-0.32891846
1601132933064,1647,-0.44433594,1.0993042,-0.013000488
1601132933064,1648,0.14697266,1.0392456,-0.014221191
1601132933064,1649,-0.44433594,1.0993042,-0.013000488
1601132933064,1650,-0.44433594,1.0993042,-0.013000488
1601132933064,1651,-0.44433594,1.0993042,-0.013000488
1601132933064,1652,0.14697266,1.0392456,-0.014221191
1601132933065,1653,0.14697266,1.0392456,-0.014221191
1601132933065,1654,0.21362305,0.8336792,-0.32891846
1601132933066,1655,0.80322266,0.91693115,0.53533936
1601132933070,1656,0.21362305,0.8336792,-0.32891846
1601132933070,1657,0.21362305,0.8336792,-0.32891846
1601132933070,1658,0.14697266,1.0392456,-0.014221191
1601132933070,1659,0.068847656,0.9359741,-0.06304932
1601132933070,1660,0.068847656,0.9359741,-0.06304932
1601132933070,1661,0.068847656,0.9359741,-0.06304932
1601132933071,1662,-0.44433594,1.0993042,-0.013000488
1601132933071,1663,0.14697266,1.0392456,-0.014221191
1601132933071,1664,-0.44433594,1.0993042,-0.013000488
1601132933071,1665,0.068847656,0.9359741,-0.06304932
1601132933077,1666,0.14697266,1.0392456,-0.014221191
1601132933078,1667,0.14697266,1.0392456,-0.014221191
1601132933078,1668,0.068847656,0.9359741,-0.06304932
1601132933081,1669,0.21362305,0.8336792,-0.32891846
1601132933081,1670,0.068847656,0.9359741,-0.06304932
1601132933081,1671,0.20776367,0.8908081,-0.11871338
1601132933081,1672,0.21362305,0.8336792,-0.32891846
1601132933081,1673,0.21362305,0.8336792,-0.32891846
1601132933081,1674,0.20776367,0.8908081,-0.11871338
1601132933081,1675,0.068847656,0.9359741,-0.06304932
1601132933091,1676,0.32080078,0.8673706,-0.113586426
1601132933091,1677,0.20776367,0.8908081,-0.11871338
1601132933091,1678,0.20776367,0.8908081,-0.11871338
1601132933091,1679,0.26293945,0.8734741,-0.062316895
1601132933091,1680,0.14697266,1.0392456,-0.014221191
1601132933091,1681,0.30786133,0.84539795,-0.024719238
1601132933091,1682,0.14697266,1.0392456,-0.014221191
1601132933091,1683,0.20776367,0.8908081,-0.11871338
1601132933092,1684,0.32080078,0.8673706,-0.113586426
1601132933092,1685,0.32080078,0.8673706,-0.113586426
1601132933092,1686,0.20776367,0.8908081,-0.11871338
1601132933092,1687,0.20776367,0.8908081,-0.11871338
1601132933092,1688,0.32080078,0.8673706,-0.113586426
1601132933092,1689,0.32080078,0.8673706,-0.113586426
1601132933092,1690,0.26293945,0.8734741,-0.062316895
1601132933092,1691,0.068847656,0.9359741,-0.06304932
1601132933092,1692,0.2854004,0.826355,0.07537842
1601132933092,1693,0.068847656,0.9359741,-0.06304932
1601132933092,1694,0.26293945,0.8734741,-0.062316895
1601132933092,1695,0.32080078,0.8673706,-0.113586426
1601132933092,1696,0.20776367,0.8908081,-0.11871338
1601132933092,1697,0.14697266,1.0392456,-0.014221191
1601132933092,1698,0.26293945,0.8734741,-0.062316895
1601132933092,1699,0.32080078,0.8673706,-0.113586426
1601132933092,1700,0.26293945,0.8734741,-0.062316895
1601132933092,1701,0.26293945,0.8734741,-0.062316895
1601132933093,1702,0.26293945,0.8734741,-0.062316895
1601132933093,1703,0.30786133,0.84539795,-0.024719238
1601132933093,1704,0.30786133,0.84539795,-0.024719238
1601132933093,1705,0.32080078,0.8673706,-0.113586426
1601132933093,1706,-0.033203125,1.1373901,-0.05328369
1601132933093,1707,0.2854004,0.826355,0.07537842
1601132933093,1708,0.26293945,0.8734741,-0.062316895
1601132933093,1709,-0.033203125,1.1373901,-0.05328369
1601132933093,1710,0.20776367,0.8908081,-0.11871338
1601132933093,1711,-0.19604492,1.2484741,-0.06890869
1601132933093,1712,0.30786133,0.84539795,-0.024719238
1601132933098,1713,0.2854004,0.826355,0.07537842
1601132933098,1714,0.068847656,0.9359741,-0.06304932
1601132933098,1715,0.30786133,0.84539795,-0.024719238
1601132933098,1716,0.30786133,0.84539795,-0.024719238
1601132933098,1717,0.2854004,0.826355,0.07537842
1601132933098,1718,-0.19604492,1.2484741,-0.06890869
1601132933098,1719,0.32080078,0.8673706,-0.113586426
1601132933098,1720,-0.16992188,0.45916748,0.18206787
1601132933098,1721,0.30786133,0.84539795,-0.024719238
1601132933099,1722,0.26293945,0.8734741,-0.062316895
1601132933099,1723,-0.16992188,0.45916748,0.18206787
1601132933112,1724,0.2854004,0.826355,0.07537842
1601132933112,1725,0.30786133,0.84539795,-0.024719238
1601132933112,1726,0.2854004,0.826355,0.07537842
1601132933112,1727,-0.033203125,1.1373901,-0.05328369
1601132933112,1728,0.30786133,0.84539795,-0.024719238
1601132933112,1729,-0.033203125,1.1373901,-0.05328369
1601132933113,1730,-0.13061523,0.6412964,0.33807373
1601132933113,1731,-0.19604492,1.2484741,-0.06890869
1601132933113,1732,0.2854004,0.826355,0.07537842
1601132933113,1733,-0.6813965,0.8624878,0.21478271
1601132933113,1734,-0.033203125,1.1373901,-0.05328369
1601132933113,1735,-0.16992188,0.45916748,0.18206787
1601132933114,1736,0.2854004,0.826355,0.07537842
1601132933114,1737,-0.033203125,1.1373901,-0.05328369
1601132933114,1738,-0.19604492,1.2484741,-0.06890869
1601132933114,1739,-0.19604492,1.2484741,-0.06890869
1601132933114,1740,0.2854004,0.826355,0.07537842
1601132933114,1741,-0.16992188,0.45916748,0.18206787
1601132933114,1742,-0.033203125,1.1373901,-0.05328369
1601132933114,1743,-0.13061523,0.6412964,0.33807373
1601132933115,1744,-0.19604492,1.2484741,-0.06890869
1601132933116,1745,-0.6813965,0.8624878,0.21478271
1601132933116,1746,-0.19604492,1.2484741,-0.06890869
1601132933116,1747,0.20776367,0.8908081,-0.11871338
1601132933116,1748,-0.13549805,0.8505249,0.40423584
1601132933116,1749,-0.16992188,0.45916748,0.18206787
1601132933117,1750,-0.13061523,0.6412964,0.33807373
1601132933117,1751,0.32080078,0.8673706,-0.113586426
1601132933117,1752,-0.033203125,1.1373901,-0.05328369
1601132933117,1753,-0.16992188,0.45916748,0.18206787
1601132933117,1754,-0.033203125,1.1373901,-0.05328369
1601132933117,1755,-0.16992188,0.45916748,0.18206787
1601132933117,1756,-0.13134766,0.80511475,0.2958374
1601132933117,1757,-0.13061523,0.6412964,0.33807373
1601132933117,1758,-0.13061523,0.6412964,0.33807373
1601132933118,1759,0.26293945,0.8734741,-0.062316895
1601132933118,1760,-0.6813965,0.8624878,0.21478271
1601132933118,1761,-0.13549805,0.8505249,0.40423584
1601132933118,1762,-0.13061523,0.6412964,0.33807373
1601132933118,1763,-0.13061523,0.6412964,0.33807373
1601132933118,1764,-0.19604492,1.2484741,-0.06890869
1601132933118,1765,-0.13134766,0.80511475,0.2958374
1601132933118,1766,0.30786133,0.84539795,-0.024719238
1601132933118,1767,-0.13549805,0.8505249,0.40423584
1601132933118,1768,-0.33154297,0.99871826,0.3139038
1601132933118,1769,-0.6813965,0.8624878,0.21478271
1601132933118,1770,-0.33154297,0.99871826,0.3139038
1601132933118,1771,-0.16992188,0.45916748,0.18206787
1601132933118,1772,-0.6813965,0.8624878,0.21478271
1601132933118,1773,0.2854004,0.826355,0.07537842
1601132933120,1774,-0.13134766,0.80511475,0.2958374
1601132933120,1775,-0.6813965,0.8624878,0.21478271
1601132933120,1776,-0.13549805,0.8505249,0.40423584
1601132933128,1777,-0.13061523,0.6412964,0.33807373
1601132933129,1778,-0.6813965,0.8624878,0.21478271
1601132933129,1779,-0.13549805,0.8505249,0.40423584
1601132933129,1780,-0.10424805,0.8600464,0.23162842
1601132933129,1781,-0.19604492,1.2484741,-0.06890869
1601132933129,1782,-0.033203125,1.1373901,-0.05328369
1601132933129,1783,-0.13549805,0.8505249,0.40423584
1601132933130,1784,-0.10424805,0.8600464,0.23162842
1601132933130,1785,-0.33154297,0.99871826,0.3139038
1601132933130,1786,-0.13549805,0.8505249,0.40423584
1601132933130,1787,-0.13134766,0.80511475,0.2958374
1601132933130,1788,-0.13134766,0.80511475,0.2958374
1601132933136,1789,-0.16992188,0.45916748,0.18206787
1601132933136,1790,-0.18383789,0.8654175,0.24847412
1601132933136,1791,-0.13134766,0.80511475,0.2958374
1601132933136,1792,-0.18383789,0.8654175,0.24847412
1601132933136,1793,-0.10424805,0.8600464,0.23162842
1601132933137,1794,-0.15722656,0.8944702,0.3456421
1601132933137,1795,-0.15722656,0.8944702,0.3456421
1601132933137,1796,-0.19604492,1.2484741,-0.06890869
1601132933138,1797,-0.20361328,0.85198975,0.3204956
1601132933138,1798,-0.16992188,0.45916748,0.18206787
1601132933138,1799,-0.33154297,0.99871826,0.3139038
1601132933138,1800,-0.13061523,0.6412964,0.33807373
1601132933138,1801,-0.13061523,0.6412964,0.33807373
1601132933138,1802,-0.10424805,0.8600464,0.23162842
1601132933138,1803,-0.13134766,0.80511475,0.2958374
1601132933138,1804,-0.18383789,0.8654175,0.24847412
1601132933138,1805,-0.20361328,0.85198975,0.3204956
1601132933138,1806,-0.33154297,0.99871826,0.3139038
1601132933140,1807,-0.06323242,0.8551636,0.67889404
1601132933141,1808,-0.33154297,0.99871826,0.3139038
1601132933144,1809,-0.6813965,0.8624878,0.21478271
1601132933144,1810,-0.6813965,0.8624878,0.21478271
1601132933144,1811,-0.33154297,0.99871826,0.3139038
1601132933144,1812,-0.13549805,0.8505249,0.40423584
1601132933144,1813,-0.13549805,0.8505249,0.40423584
1601132933145,1814,-0.13134766,0.80511475,0.2958374
1601132933145,1815,-0.10424805,0.8600464,0.23162842
1601132933145,1816,-0.6813965,0.8624878,0.21478271
1601132933145,1817,0.37670898,0.68133545,0.7963257
1601132933145,1818,-0.10424805,0.8600464,0.23162842
1601132933150,1819,-0.18383789,0.8654175,0.24847412
1601132933150,1820,-0.15722656,0.8944702,0.3456421
1601132933150,1821,-0.06323242,0.8551636,0.67889404
1601132933151,1822,-0.33154297,0.99871826,0.3139038
1601132933151,1823,-0.13134766,0.80511475,0.2958374
1601132933151,1824,-0.18383789,0.8654175,0.24847412
1601132933151,1825,-0.10424805,0.8600464,0.23162842
1601132933151,1826,0.075683594,0.82684326,-0.33843994
1601132933151,1827,-0.10424805,0.8600464,0.23162842
1601132933217,1828,-0.15722656,0.8944702,0.3456421
1601132933217,1829,-0.20361328,0.85198975,0.3204956
1601132933217,1830,0.37670898,0.68133545,0.7963257
1601132933217,1831,-0.33154297,0.99871826,0.3139038
1601132933217,1832,-0.18383789,0.8654175,0.24847412
1601132933217,1833,-0.15722656,0.8944702,0.3456421
1601132933217,1834,-0.13549805,0.8505249,0.40423584
1601132933217,1835,-0.20361328,0.85198975,0.3204956
1601132933217,1836,-0.41455078,1.1398315,-0.33673096
1601132933217,1837,-0.18383789,0.8654175,0.24847412
1601132933217,1838,-0.20361328,0.85198975,0.3204956
1601132933217,1839,0.075683594,0.82684326,-0.33843994
1601132933218,1840,-0.10424805,0.8600464,0.23162842
1601132933218,1841,-0.15722656,0.8944702,0.3456421
1601132933218,1842,-0.06323242,0.8551636,0.67889404
1601132933218,1843,-0.18383789,0.8654175,0.24847412
1601132933218,1844,-0.13134766,0.80511475,0.2958374
1601132933218,1845,-0.53759766,1.012146,-0.39385986
1601132933218,1846,-0.15722656,0.8944702,0.3456421
1601132933225,1847,-0.06323242,0.8551636,0.67889404
1601132933225,1848,-0.41455078,1.1398315,-0.33673096
1601132933225,1849,-0.18383789,0.8654175,0.24847412
1601132933225,1850,-0.20361328,0.85198975,0.3204956
1601132933225,1851,0.37670898,0.68133545,0.7963257
1601132933225,1852,0.075683594,0.82684326,-0.33843994
1601132933225,1853,-0.15722656,0.8944702,0.3456421
1601132933227,1854,-0.20361328,0.85198975,0.3204956
1601132933228,1855,-0.10498047,1.2233276,0.20281982
1601132933228,1856,-0.06323242,0.8551636,0.67889404
1601132933228,1857,0.37670898,0.68133545,0.7963257
1601132933229,1858,0.075683594,0.82684326,-0.33843994
1601132933229,1859,-0.15722656,0.8944702,0.3456421
1601132933230,1860,0.37670898,0.68133545,0.7963257
1601132933235,1861,-0.20361328,0.85198975,0.3204956
1601132933236,1862,-0.06323242,0.8551636,0.67889404
1601132933236,1863,-0.20361328,0.85198975,0.3204956
1601132933236,1864,0.27392578,1.1867065,0.39056396
1601132933236,1865,-0.53759766,1.012146,-0.39385986
1601132933236,1866,-0.41455078,1.1398315,-0.33673096
1601132933237,1867,-0.33154297,0.99871826,0.3139038
1601132933237,1868,-0.06323242,0.8551636,0.67889404
1601132933237,1869,-0.06323242,0.8551636,0.67889404
1601132933237,1870,0.075683594,0.82684326,-0.33843994
1601132933247,1871,-0.06323242,0.8551636,0.67889404
1601132933247,1872,0.37670898,0.68133545,0.7963257
1601132933247,1873,-0.53759766,1.012146,-0.39385986
1601132933247,1874,-0.10498047,1.2233276,0.20281982
1601132933247,1875,0.37670898,0.68133545,0.7963257
1601132933247,1876,-0.41455078,1.1398315,-0.33673096
1601132933248,1877,0.37670898,0.68133545,0.7963257
1601132933249,1878,-0.10424805,0.8600464,0.23162842
1601132933249,1879,0.075683594,0.82684326,-0.33843994
1601132933249,1880,0.075683594,0.82684326,-0.33843994
1601132933249,1881,0.37670898,0.68133545,0.7963257
1601132933252,1882,0.27392578,1.1867065,0.39056396
1601132933252,1883,-0.10498047,1.2233276,0.20281982
1601132933252,1884,-0.41455078,1.1398315,-0.33673096
1601132933253,1885,0.075683594,0.82684326,-0.33843994
1601132933253,1886,-0.41455078,1.1398315,-0.33673096
1601132933253,1887,-0.53759766,1.012146,-0.39385986
1601132933253,1888,-0.41455078,1.1398315,-0.33673096
1601132933253,1889,-0.41455078,1.1398315,-0.33673096
1601132933255,1890,-0.18383789,0.8654175,0.24847412
1601132933257,1891,0.075683594,0.82684326,-0.33843994
1601132933257,1892,-0.53759766,1.012146,-0.39385986
1601132933257,1893,-0.10498047,1.2233276,0.20281982
1601132933257,1894,-0.53759766,1.012146,-0.39385986
1601132933257,1895,0.27392578,1.1867065,0.39056396
1601132933257,1896,-0.53759766,1.012146,-0.39385986
1601132933258,1897,0.27392578,1.1867065,0.39056396
1601132933260,1898,-0.15722656,0.8944702,0.3456421
1601132933260,1899,-0.41455078,1.1398315,-0.33673096
1601132933260,1900,-0.53759766,1.012146,-0.39385986
1601132933260,1901,-0.53759766,1.012146,-0.39385986
1601132933260,1902,-0.10498047,1.2233276,0.20281982
1601132933261,1903,-0.10498047,1.2233276,0.20281982
1601132933261,1904,-0.20361328,0.85198975,0.3204956
1601132933262,1905,-0.10498047,1.2233276,0.20281982
1601132933263,1906,0.27392578,1.1867065,0.39056396
1601132933263,1907,-0.10498047,1.2233276,0.20281982
1601132933263,1908,-0.10498047,1.2233276,0.20281982
1601132933268,1909,0.27392578,1.1867065,0.39056396
1601132933268,1910,-0.06323242,0.8551636,0.67889404
1601132933268,1911,0.27392578,1.1867065,0.39056396
1601132933269,1912,0.27392578,1.1867065,0.39056396
1601132933269,1913,0.37670898,0.68133545,0.7963257
1601132933269,1914,0.075683594,0.82684326,-0.33843994
1601132933269,1915,0.27392578,1.1867065,0.39056396
1601132933269,1916,-0.41455078,1.1398315,-0.33673096
1601132933269,1917,-0.53759766,1.012146,-0.39385986
1601132933269,1918,-0.10498047,1.2233276,0.20281982
1601132933269,1919,0.27392578,1.1867065,0.39056396
1601132935739,1920,0.13842773,0.8139038,0.1786499
1601132935739,1921,0.13842773,0.8139038,0.1786499
1601132935743,1922,0.13842773,0.8139038,0.1786499
1601132935743,1923,0.13842773,0.8139038,0.1786499
1601132935744,1924,0.13842773,0.8139038,0.1786499
1601132935744,1925,0.24926758,0.8632202,-0.12213135
1601132935745,1926,0.24926758,0.8632202,-0.12213135
1601132935746,1927,-0.19384766,1.0333862,0.090026855
1601132935746,1928,-0.19384766,1.0333862,0.090026855
1601132935746,1929,0.13842773,0.8139038,0.1786499
1601132935746,1930,0.24926758,0.8632202,-0.12213135
1601132935748,1931,0.13842773,0.8139038,0.1786499
1601132935748,1932,0.13842773,0.8139038,0.1786499
1601132935749,1933,-0.19384766,1.0333862,0.090026855
1601132935749,1934,0.24926758,0.8632202,-0.12213135
1601132935752,1935,0.24926758,0.8632202,-0.12213135
1601132935752,1936,0.30249023,0.8554077,0.086120605
1601132935752,1937,0.30249023,0.8554077,0.086120605
1601132935753,1938,0.24926758,0.8632202,-0.12213135
1601132935753,1939,0.13842773,0.8139038,0.1786499
1601132935754,1940,0.24926758,0.8632202,-0.12213135
1601132935754,1941,0.30249023,0.8554077,0.086120605
1601132935754,1942,0.24926758,0.8632202,-0.12213135
1601132935755,1943,0.16357422,0.8812866,0.2020874
1601132935755,1944,-0.19384766,1.0333862,0.090026855
1601132935765,1945,0.16357422,0.8812866,0.2020874
1601132935768,1946,-0.19384766,1.0333862,0.090026855
1601132935768,1947,0.16357422,0.8812866,0.2020874
1601132935768,1948,-0.19384766,1.0333862,0.090026855
1601132935768,1949,0.30249023,0.8554077,0.086120605
1601132935768,1950,-0.19384766,1.0333862,0.090026855
1601132935768,1951,0.13842773,0.8139038,0.1786499
1601132935768,1952,-0.19384766,1.0333862,0.090026855
1601132935769,1953,0.10595703,1.0685425,-0.06964111
1601132935769,1954,0.30249023,0.8554077,0.086120605
1601132935769,1955,0.35986328,0.8768921,0.19720459
1601132935769,1956,0.24926758,0.8632202,-0.12213135
1601132935769,1957,0.50683594,0.6273804,0.40423584
1601132935769,1958,0.018066406,0.9970093,0.2321167
1601132935769,1959,0.30249023,0.8554077,0.086120605
1601132935769,1960,0.30249023,0.8554077,0.086120605
1601132935769,1961,0.16357422,0.8812866,0.2020874
1601132935770,1962,0.24926758,0.8632202,-0.12213135
1601132935771,1963,0.10595703,1.0685425,-0.06964111
1601132935771,1964,0.16357422,0.8812866,0.2020874
1601132935771,1965,-0.19384766,1.0333862,0.090026855
1601132935772,1966,0.10595703,1.0685425,-0.06964111
1601132935772,1967,0.16357422,0.8812866,0.2020874
1601132935772,1968,-0.19384766,1.0333862,0.090026855
1601132935772,1969,-0.14819336,1.1015015,0.34100342
1601132935772,1970,0.10595703,1.0685425,-0.06964111
1601132935772,1971,0.30249023,0.8554077,0.086120605
1601132935784,1972,0.16357422,0.8812866,0.2020874
1601132935784,1973,0.35986328,0.8768921,0.19720459
1601132935784,1974,0.30249023,0.8554077,0.086120605
1601132935784,1975,0.35986328,0.8768921,0.19720459
1601132935784,1976,0.30249023,0.8554077,0.086120605
1601132935785,1977,0.10595703,1.0685425,-0.06964111
1601132935785,1978,0.10595703,1.0685425,-0.06964111
1601132935786,1979,-0.16015625,0.8197632,0.20550537
1601132935786,1980,0.35986328,0.8768921,0.19720459
1601132935786,1981,0.16357422,0.8812866,0.2020874
1601132935786,1982,0.50683594,0.6273804,0.40423584
1601132935787,1983,0.10595703,1.0685425,-0.06964111
1601132935787,1984,0.10595703,1.0685425,-0.06964111
1601132935787,1985,0.16357422,0.8812866,0.2020874
1601132935787,1986,0.16357422,0.8812866,0.2020874
1601132935787,1987,0.35986328,0.8768921,0.19720459
1601132935787,1988,0.35986328,0.8768921,0.19720459
1601132935788,1989,0.50683594,0.6273804,0.40423584
1601132935788,1990,0.50683594,0.6273804,0.40423584
1601132935788,1991,0.14404297,0.69281006,0.3078003
1601132935788,1992,0.35986328,0.8768921,0.19720459
1601132935803,1993,0.35986328,0.8768921,0.19720459
1601132935803,1994,0.10595703,1.0685425,-0.06964111
1601132935803,1995,0.10595703,1.0685425,-0.06964111
1601132935804,1996,0.50683594,0.6273804,0.40423584
1601132935804,1997,0.50683594,0.6273804,0.40423584
1601132935804,1998,0.018066406,0.9970093,0.2321167
1601132935804,1999,0.018066406,0.9970093,0.2321167
1601132935804,2000,-0.26098633,0.9515991,0.45233154
1601132935805,2001,0.018066406,0.9970093,0.2321167
1601132935805,2002,0.50683594,0.6273804,0.40423584
1601132935805,2003,0.35986328,0.8768921,0.19720459
1601132935806,2004,0.50683594,0.6273804,0.40423584
1601132935806,2005,0.35986328,0.8768921,0.19720459
1601132935806,2006,0.018066406,0.9970093,0.2321167
1601132935806,2007,-0.14819336,1.1015015,0.34100342
1601132935806,2008,0.018066406,0.9970093,0.2321167
1601132935806,2009,-0.16015625,0.8197632,0.20550537
1601132935806,2010,-0.26831055,0.9057007,0.48406982
1601132935806,2011,0.14404297,0.69281006,0.3078003
1601132935806,2012,-0.14819336,1.1015015,0.34100342
1601132935806,2013,0.018066406,0.9970093,0.2321167
1601132935806,2014,-0.26098633,0.9515991,0.45233154
1601132935807,2015,-0.16015625,0.8197632,0.20550537
1601132935807,2016,0.018066406,0.9970093,0.2321167
1601132935807,2017,-0.14819336,1.1015015,0.34100342
1601132935807,2018,-0.14819336,1.1015015,0.34100342
1601132935807,2019,0.14404297,0.69281006,0.3078003
1601132935807,2020,0.50683594,0.6273804,0.40423584
1601132935807,2021,-0.16015625,0.8197632,0.20550537
1601132935807,2022,0.055664062,0.6637573,0.34832764
1601132935807,2023,0.14404297,0.69281006,0.3078003
1601132935823,2024,-0.26831055,0.9057007,0.48406982
1601132935824,2025,-0.14819336,1.1015015,0.34100342
1601132935824,2026,0.055664062,0.6637573,0.34832764
1601132935825,2027,-0.14819336,1.1015015,0.34100342
1601132935825,2028,-0.26098633,0.9515991,0.45233154
1601132935825,2029,-0.18286133,0.4171753,0.22869873
1601132935825,2030,-0.16015625,0.8197632,0.20550537
1601132935825,2031,-0.26831055,0.9057007,0.48406982
1601132935825,2032,-0.18286133,0.4171753,0.22869873
1601132935825,2033,0.018066406,0.9970093,0.2321167
1601132935825,2034,0.14404297,0.69281006,0.3078003
1601132935825,2035,-0.1965332,0.72650146,-0.11480713
1601132935825,2036,-0.16015625,0.8197632,0.20550537
1601132935825,2037,-0.26098633,0.9515991,0.45233154
1601132935825,2038,-0.16015625,0.8197632,0.20550537
1601132935826,2039,0.14404297,0.69281006,0.3078003
1601132935826,2040,0.14404297,0.69281006,0.3078003
1601132935826,2041,0.50683594,0.6273804,0.40423584
1601132935826,2042,-0.1965332,0.72650146,-0.11480713
1601132935826,2043,-0.26831055,0.9057007,0.48406982
1601132935826,2044,0.018066406,0.9970093,0.2321167
1601132935826,2045,-0.14819336,1.1015015,0.34100342
1601132935826,2046,-0.14819336,1.1015015,0.34100342
1601132935826,2047,0.055664062,0.6637573,0.34832764
1601132935826,2048,-0.18286133,0.4171753,0.22869873
1601132935826,2049,-1.1164551,1.0929565,0.19476318
1601132935830,2050,0.055664062,0.6637573,0.34832764
1601132935830,2051,-0.16015625,0.8197632,0.20550537
1601132935830,2052,-0.14819336,1.1015015,0.34100342
1601132935830,2053,-0.16015625,0.8197632,0.20550537
1601132935830,2054,-0.26098633,0.9515991,0.45233154
1601132935830,2055,-0.26098633,0.9515991,0.45233154
1601132935831,2056,-0.16015625,0.8197632,0.20550537
1601132935831,2057,0.14404297,0.69281006,0.3078003
1601132935831,2058,-1.1164551,1.0929565,0.19476318
1601132935831,2059,-0.26098633,0.9515991,0.45233154
1601132935831,2060,-0.18286133,0.4171753,0.22869873
1601132935831,2061,-0.26831055,0.9057007,0.48406982
1601132935832,2062,0.14404297,0.69281006,0.3078003
1601132935843,2063,-0.26831055,0.9057007,0.48406982
1601132935843,2064,-0.1965332,0.72650146,-0.11480713
1601132935843,2065,-0.4621582,1.1290894,-0.0044555664
1601132935843,2066,-0.08691406,1.8099976,0.73236084
1601132935843,2067,-0.26831055,0.9057007,0.48406982
1601132935843,2068,0.080566406,0.89105225,0.29656982
1601132935843,2069,-0.1965332,0.72650146,-0.11480713
1601132935844,2070,0.055664062,0.6637573,0.34832764
1601132935844,2071,-0.26098633,0.9515991,0.45233154
1601132935844,2072,0.23242188,0.2999878,0.30340576
1601132935844,2073,-0.26098633,0.9515991,0.45233154
1601132935844,2074,-1.1164551,1.0929565,0.19476318
1601132935844,2075,0.055664062,0.6637573,0.34832764
1601132935844,2076,0.14404297,0.69281006,0.3078003
1601132935845,2077,-0.4621582,1.1290894,-0.0044555664
1601132935845,2078,-0.18286133,0.4171753,0.22869873
1601132935845,2079,-0.4621582,1.1290894,-0.0044555664
1601132935845,2080,-1.1164551,1.0929565,0.19476318
1601132935845,2081,-0.08691406,1.8099976,0.73236084
1601132935845,2082,0.5402832,1.1149292,0.4664917
1601132935845,2083,-0.26831055,0.9057007,0.48406982
1601132935846,2084,0.055664062,0.6637573,0.34832764
1601132935846,2085,-0.18286133,0.4171753,0.22869873
1601132935856,2086,-0.08691406,1.8099976,0.73236084
1601132935856,2087,-0.26098633,0.9515991,0.45233154
1601132935857,2088,-0.4621582,1.1290894,-0.0044555664
1601132935857,2089,0.080566406,0.89105225,0.29656982
1601132935857,2090,-0.08691406,1.8099976,0.73236084
1601132935857,2091,-0.0078125,0.8390503,0.3139038
1601132935857,2092,0.23242188,0.2999878,0.30340576
1601132935857,2093,-0.1965332,0.72650146,-0.11480713
1601132935857,2094,-0.18286133,0.4171753,0.22869873
1601132935857,2095,-0.1965332,0.72650146,-0.11480713
1601132935857,2096,0.33007812,0.7147827,0.38153076
1601132935858,2097,-0.1965332,0.72650146,-0.11480713
1601132935858,2098,-1.1164551,1.0929565,0.19476318
1601132935858,2099,0.080566406,0.89105225,0.29656982
1601132935858,2100,-1.1164551,1.0929565,0.19476318
1601132935858,2101,0.055664062,0.6637573,0.34832764
1601132935858,2102,-0.4621582,1.1290894,-0.0044555664
1601132935859,2103,0.5402832,1.1149292,0.4664917
1601132935859,2104,0.23242188,0.2999878,0.30340576
1601132935859,2105,-0.26831055,0.9057007,0.48406982
1601132935860,2106,-0.4621582,1.1290894,-0.0044555664
1601132935860,2107,-0.26831055,0.9057007,0.48406982
1601132935860,2108,0.39135742,0.6347046,0.46722412
1601132935860,2109,-0.08691406,1.8099976,0.73236084
1601132935865,2110,-0.18286133,0.4171753,0.22869873
1601132935865,2111,0.080566406,0.89105225,0.29656982
1601132935865,2112,-0.0078125,0.8390503,0.3139038
1601132935865,2113,0.5402832,1.1149292,0.4664917
1601132935865,2114,0.33007812,0.7147827,0.38153076
1601132935865,2115,-1.1164551,1.0929565,0.19476318
1601132935865,2116,-0.08691406,1.8099976,0.73236084
1601132935866,2117,-0.4621582,1.1290894,-0.0044555664
1601132935866,2118,0.080566406,0.89105225,0.29656982
1601132935866,2119,-0.08691406,1.8099976,0.73236084
1601132935866,2120,-0.1965332,0.72650146,-0.11480713
1601132935866,2121,0.080566406,0.89105225,0.29656982
1601132935866,2122,0.23242188,0.2999878,0.30340576
1601132935866,2123,0.41333008,0.762146,0.42156982
1601132935866,2124,-0.0078125,0.8390503,0.3139038
1601132935866,2125,0.5402832,1.1149292,0.4664917
1601132935867,2126,0.055664062,0.6637573,0.34832764
1601132935867,2127,0.080566406,0.89105225,0.29656982
1601132935867,2128,-1.1164551,1.0929565,0.19476318
1601132935868,2129,0.23242188,0.2999878,0.30340576
1601132935890,2130,0.39135742,0.6347046,0.46722412
1601132935890,2131,0.10620117,0.85980225,0.38104248
1601132935890,2132,0.33007812,0.7147827,0.38153076
1601132935891,2133,-0.0078125,0.8390503,0.3139038
1601132935892,2134,-0.18286133,0.4171753,0.22869873
1601132935892,2135,0.23242188,0.2999878,0.30340576
1601132935892,2136,0.055664062,0.6637573,0.34832764
1601132935892,2137,-0.4621582,1.1290894,-0.0044555664
1601132935892,2138,0.5402832,1.1149292,0.4664917
1601132935892,2139,0.23242188,0.2999878,0.30340576
1601132935892,2140,-0.0078125,0.8390503,0.3139038
1601132935892,2141,0.1887207,0.8727417,0.45428467
1601132935892,2142,0.41333008,0.762146,0.42156982
1601132935893,2143,0.33007812,0.7147827,0.38153076
1601132935893,2144,-0.1965332,0.72650146,-0.11480713
1601132935893,2145,0.39135742,0.6347046,0.46722412
1601132935893,2146,0.5402832,1.1149292,0.4664917
1601132935893,2147,0.10620117,0.85980225,0.38104248
1601132935893,2148,-0.08691406,1.8099976,0.73236084
1601132935893,2149,-1.1164551,1.0929565,0.19476318
1601132935893,2150,0.5402832,1.1149292,0.4664917
1601132935893,2151,0.080566406,0.89105225,0.29656982
1601132935894,2152,-0.20922852,0.826355,0.26507568
1601132935894,2153,0.39135742,0.6347046,0.46722412
1601132935894,2154,0.41333008,0.762146,0.42156982
1601132935894,2155,0.1887207,0.8727417,0.45428467
1601132935894,2156,0.0056152344,0.8942261,0.3241577
1601132935894,2157,-0.0078125,0.8390503,0.3139038
1601132935894,2158,-0.18286133,0.4171753,0.22869873
1601132935894,2159,0.33007812,0.7147827,0.38153076
1601132935894,2160,-0.4621582,1.1290894,-0.0044555664
1601132935895,2161,0.33007812,0.7147827,0.38153076
1601132935895,2162,-0.0078125,0.8390503,0.3139038
1601132935896,2163,0.41333008,0.762146,0.42156982
1601132935896,2164,-0.08691406,1.8099976,0.73236084
1601132935896,2165,0.10620117,0.85980225,0.38104248
1601132935896,2166,-0.20922852,0.826355,0.26507568
1601132935896,2167,0.02709961,0.87786865,0.21600342
1601132935896,2168,0.23242188,0.2999878,0.30340576
1601132935896,2169,0.39135742,0.6347046,0.46722412
1601132935896,2170,-0.1965332,0.72650146,-0.11480713
1601132935896,2171,0.33007812,0.7147827,0.38153076
1601132935896,2172,0.1887207,0.8727417,0.45428467
1601132935896,2173,-1.1164551,1.0929565,0.19476318
1601132935897,2174,0.39135742,0.6347046,0.46722412
1601132935897,2175,0.080566406,0.89105225,0.29656982
1601132935897,2176,0.41333008,0.762146,0.42156982
1601132935897,2177,-0.20922852,0.826355,0.26507568
1601132935897,2178,0.39135742,0.6347046,0.46722412
1601132935897,2179,0.5402832,1.1149292,0.4664917
1601132935897,2180,0.23242188,0.2999878,0.30340576
1601132935905,2181,0.41333008,0.762146,0.42156982
1601132935906,2182,-0.4621582,1.1290894,-0.0044555664
1601132935906,2183,0.0056152344,0.8942261,0.3241577
1601132935906,2184,0.10620117,0.85980225,0.38104248
1601132935906,2185,0.10620117,0.85980225,0.38104248
1601132935906,2186,0.0056152344,0.8942261,0.3241577
1601132935906,2187,0.41333008,0.762146,0.42156982
1601132935906,2188,0.10620117,0.85980225,0.38104248
1601132935907,2189,0.5402832,1.1149292,0.4664917
1601132935907,2190,0.10620117,0.85980225,0.38104248
1601132935907,2191,0.1887207,0.8727417,0.45428467
1601132935907,2192,0.1887207,0.8727417,0.45428467
1601132935907,2193,-0.0078125,0.8390503,0.3139038
1601132935907,2194,-0.20922852,0.826355,0.26507568
1601132935907,2195,-0.0078125,0.8390503,0.3139038
1601132935907,2196,0.0056152344,0.8942261,0.3241577
1601132935907,2197,0.1887207,0.8727417,0.45428467
1601132935907,2198,0.02709961,0.87786865,0.21600342
1601132935907,2199,0.33007812,0.7147827,0.38153076
1601132935908,2200,0.1887207,0.8727417,0.45428467
1601132935908,2201,-0.08691406,1.8099976,0.73236084
1601132935908,2202,0.02709961,0.87786865,0.21600342
1601132935908,2203,-0.20922852,0.826355,0.26507568
1601132935908,2204,0.33007812,0.7147827,0.38153076
1601132935908,2205,0.080566406,0.89105225,0.29656982
1601132935908,2206,0.0056152344,0.8942261,0.3241577
1601132935908,2207,-0.20922852,0.826355,0.26507568
1601132935908,2208,-0.20922852,0.826355,0.26507568
1601132935908,2209,0.02709961,0.87786865,0.21600342
1601132935909,2210,0.0056152344,0.8942261,0.3241577
1601132935909,2211,0.02709961,0.87786865,0.21600342
1601132935909,2212,0.02709961,0.87786865,0.21600342
1601132935912,2213,0.23242188,0.2999878,0.30340576
1601132935912,2214,0.0056152344,0.8942261,0.3241577
1601132935912,2215,0.39135742,0.6347046,0.46722412
1601132935912,2216,0.39135742,0.6347046,0.46722412
1601132935913,2217,0.5402832,1.1149292,0.4664917
1601132935914,2218,0.41333008,0.762146,0.42156982
1601132935914,2219,0.41333008,0.762146,0.42156982
1601132935914,2220,0.02709961,0.87786865,0.21600342
1601132935914,2221,-0.0078125,0.8390503,0.3139038
1601132935917,2222,0.33007812,0.7147827,0.38153076
1601132935917,2223,0.10620117,0.85980225,0.38104248
1601132935917,2224,0.10620117,0.85980225,0.38104248
1601132935918,2225,0.1887207,0.8727417,0.45428467
1601132935918,2226,0.39135742,0.6347046,0.46722412
1601132935918,2227,0.1887207,0.8727417,0.45428467
1601132935920,2228,-0.20922852,0.826355,0.26507568
1601132935920,2229,0.0056152344,0.8942261,0.3241577
1601132935920,2230,-0.20922852,0.826355,0.26507568
1601132935921,2231,0.41333008,0.762146,0.42156982
1601132935922,2232,0.02709961,0.87786865,0.21600342
1601132935922,2233,0.0056152344,0.8942261,0.3241577
1601132935922,2234,0.10620117,0.85980225,0.38104248
1601132935922,2235,0.02709961,0.87786865,0.21600342
1601132935923,2236,0.1887207,0.8727417,0.45428467
1601132935926,2237,-0.20922852,0.826355,0.26507568
1601132935928,2238,0.0056152344,0.8942261,0.3241577
1601132935928,2239,0.02709961,0.87786865,0.21600342
1601132938053,2240,0.05517578,0.78240967,0.29022217
1601132938054,2241,0.19824219,1.107605,0.074401855
1601132938055,2242,0.1772461,0.852478,0.21795654
1601132938055,2243,0.05517578,0.78240967,0.29022217
1601132938055,2244,0.12426758,0.9003296,0.17645264
1601132938056,2245,-4.8828125E-4,0.9008179,0.1942749
1601132938056,2246,0.119140625,0.94207764,0.07293701
1601132938056,2247,0.0034179688,0.87615967,0.23065186
1601132938059,2248,-0.075927734,1.1276245,0.41741943
1601132938060,2249,0.19824219,1.107605,0.074401855
1601132938060,2250,-0.07788086,1.1290894,-0.022766113
1601132938060,2251,0.1772461,0.852478,0.21795654
1601132938060,2252,0.12426758,0.9003296,0.17645264
1601132938065,2253,-4.8828125E-4,0.9008179,0.1942749
1601132938065,2254,0.05517578,0.78240967,0.29022217
1601132938065,2255,0.05517578,0.78240967,0.29022217
1601132938071,2256,-0.1862793,0.854187,0.10003662
1601132938072,2257,0.119140625,0.94207764,0.07293701
1601132938072,2258,0.05517578,0.78240967,0.29022217
1601132938072,2259,0.19824219,1.107605,0.074401855
1601132938072,2260,0.05517578,0.78240967,0.29022217
1601132938072,2261,-0.31713867,0.3961792,0.06707764
1601132938072,2262,0.05517578,0.78240967,0.29022217
1601132938072,2263,0.05517578,0.78240967,0.29022217
1601132938072,2264,0.19824219,1.107605,0.074401855
1601132938073,2265,0.05517578,0.78240967,0.29022217
1601132938073,2266,0.19824219,1.107605,0.074401855
1601132938080,2267,0.0034179688,0.87615967,0.23065186
1601132938080,2268,0.19824219,1.107605,0.074401855
1601132938080,2269,0.25195312,1.6908569,1.1698608
1601132938080,2270,0.1772461,0.852478,0.21795654
1601132938080,2271,0.05517578,0.78240967,0.29022217
1601132938081,2272,0.1772461,0.852478,0.21795654
1601132938081,2273,0.19824219,1.107605,0.074401855
1601132938081,2274,0.19824219,1.107605,0.074401855
1601132938081,2275,0.19824219,1.107605,0.074401855
1601132938082,2276,-0.075927734,1.1276245,0.41741943
1601132938082,2277,0.1772461,0.852478,0.21795654
1601132938082,2278,0.12426758,0.9003296,0.17645264
1601132938083,2279,-0.07788086,1.1290894,-0.022766113
1601132938085,2280,0.018310547,0.8200073,0.078552246
1601132938085,2281,0.12426758,0.9003296,0.17645264
1601132938085,2282,0.1772461,0.852478,0.21795654
1601132938086,2283,0.1772461,0.852478,0.21795654
1601132938086,2284,0.1772461,0.852478,0.21795654
1601132938090,2285,0.1772461,0.852478,0.21795654
1601132938090,2286,0.12426758,0.9003296,0.17645264
1601132938091,2287,0.12426758,0.9003296,0.17645264
1601132938092,2288,-0.1862793,0.854187,0.10003662
1601132938092,2289,-4.8828125E-4,0.9008179,0.1942749
1601132938092,2290,-0.27026367,0.46331787,0.15570068
1601132938092,2291,-4.8828125E-4,0.9008179,0.1942749
1601132938092,2292,0.12426758,0.9003296,0.17645264
1601132938092,2293,0.12426758,0.9003296,0.17645264
1601132938097,2294,0.12426758,0.9003296,0.17645264
1601132938097,2295,-4.8828125E-4,0.9008179,0.1942749
1601132938097,2296,0.19824219,1.107605,0.074401855
1601132938097,2297,-0.30249023,0.31829834,-0.093811035
1601132938097,2298,-4.8828125E-4,0.9008179,0.1942749
1601132938097,2299,0.13647461,1.8998413,0.5248413
1601132938098,2300,-0.31713867,0.3961792,0.06707764
1601132938098,2301,0.119140625,0.94207764,0.07293701
1601132938098,2302,0.119140625,0.94207764,0.07293701
1601132938098,2303,-4.8828125E-4,0.9008179,0.1942749
1601132938110,2304,-4.8828125E-4,0.9008179,0.1942749
1601132938110,2305,0.119140625,0.94207764,0.07293701
1601132938111,2306,0.119140625,0.94207764,0.07293701
1601132938111,2307,0.119140625,0.94207764,0.07293701
1601132938111,2308,-0.18896484,0.47503662,0.3480835
1601132938111,2309,-4.8828125E-4,0.9008179,0.1942749
1601132938111,2310,0.119140625,0.94207764,0.07293701
1601132938111,2311,0.0034179688,0.87615967,0.23065186
1601132938111,2312,0.0034179688,0.87615967,0.23065186
1601132938112,2313,0.25195312,1.6908569,1.1698608
1601132938112,2314,-0.075927734,1.1276245,0.41741943
1601132938112,2315,0.0034179688,0.87615967,0.23065186
1601132938112,2316,-0.07788086,1.1290894,-0.022766113
1601132938112,2317,0.1772461,0.852478,0.21795654
1601132938112,2318,0.018310547,0.8200073,0.078552246
1601132938112,2319,-0.075927734,1.1276245,0.41741943
1601132938112,2320,0.12426758,0.9003296,0.17645264
1601132938112,2321,0.119140625,0.94207764,0.07293701
1601132938112,2322,-0.075927734,1.1276245,0.41741943
1601132938113,2323,0.0034179688,0.87615967,0.23065186
1601132938113,2324,0.0034179688,0.87615967,0.23065186
1601132938113,2325,-0.1862793,0.854187,0.10003662
1601132938113,2326,-0.07788086,1.1290894,-0.022766113
1601132938113,2327,0.0034179688,0.87615967,0.23065186
1601132938113,2328,-0.27026367,0.46331787,0.15570068
1601132938120,2329,0.0034179688,0.87615967,0.23065186
