# Sensor position: Chest
# Sensor side: Left
# Activity type: Movement
# Activity code: 9
# Subject id: s1735229
timestamp,seq,accel_x,accel_y,accel_z
1601136529386,0,-0.053710938,-1.024231,-0.045959473
1601136529386,1,-0.053710938,-1.024231,-0.045959473
1601136529386,2,0.011962891,-1.0232544,-0.034240723
1601136529386,3,-0.053710938,-1.024231,-0.045959473
1601136529386,4,-0.053710938,-1.024231,-0.045959473
1601136529386,5,-0.053710938,-1.024231,-0.045959473
1601136529386,6,-0.053710938,-1.024231,-0.045959473
1601136529386,7,-0.053710938,-1.024231,-0.045959473
1601136529387,8,-0.053710938,-1.024231,-0.045959473
1601136529387,9,-0.053710938,-1.024231,-0.045959473
1601136529409,10,0.011962891,-1.0232544,-0.034240723
1601136529409,11,0.011962891,-1.0232544,-0.034240723
1601136529409,12,0.011962891,-1.0232544,-0.034240723
1601136529410,13,0.011962891,-1.0232544,-0.034240723
1601136529410,14,0.021484375,-1.0149536,-0.016174316
1601136529410,15,0.021484375,-1.0149536,-0.016174316
1601136529410,16,0.011962891,-1.0232544,-0.034240723
1601136529410,17,0.021484375,-1.0149536,-0.016174316
1601136529410,18,0.064453125,-1.0232544,-0.019348145
1601136529410,19,0.08227539,-1.0230103,-0.006164551
1601136529410,20,0.064453125,-1.0232544,-0.019348145
1601136529410,21,0.011962891,-1.0232544,-0.034240723
1601136529411,22,0.021484375,-1.0149536,-0.016174316
1601136529411,23,0.021484375,-1.0149536,-0.016174316
1601136529411,24,0.064453125,-1.0232544,-0.019348145
1601136529411,25,0.08227539,-1.0230103,-0.006164551
1601136529411,26,0.011962891,-1.0232544,-0.034240723
1601136529411,27,0.021484375,-1.0149536,-0.016174316
1601136529411,28,0.064453125,-1.0232544,-0.019348145
1601136529411,29,0.11450195,-1.0073853,-0.024963379
1601136529411,30,0.011962891,-1.0232544,-0.034240723
1601136529412,31,0.08227539,-1.0230103,-0.006164551
1601136529412,32,0.064453125,-1.0232544,-0.019348145
1601136529412,33,0.11450195,-1.0073853,-0.024963379
1601136529412,34,0.021484375,-1.0149536,-0.016174316
1601136529412,35,0.11450195,-1.0073853,-0.024963379
1601136529412,36,0.021484375,-1.0149536,-0.016174316
1601136529412,37,-0.053710938,-1.024231,-0.045959473
1601136529412,38,0.12792969,-0.9871216,-0.023254395
1601136529412,39,0.064453125,-1.0232544,-0.019348145
1601136529413,40,0.20092773,-0.9902954,-0.0017700195
1601136529413,41,0.08227539,-1.0230103,-0.006164551
1601136529415,42,0.12792969,-0.9871216,-0.023254395
1601136529415,43,0.08227539,-1.0230103,-0.006164551
1601136529416,44,0.12792969,-0.9871216,-0.023254395
1601136529417,45,0.064453125,-1.0232544,-0.019348145
1601136529425,46,0.08227539,-1.0230103,-0.006164551
1601136529425,47,0.11450195,-1.0073853,-0.024963379
1601136529425,48,0.11450195,-1.0073853,-0.024963379
1601136529425,49,0.12792969,-0.9871216,-0.023254395
1601136529425,50,0.11450195,-1.0073853,-0.024963379
1601136529425,51,0.20092773,-0.9902954,-0.0017700195
1601136529426,52,0.011962891,-1.0232544,-0.034240723
1601136529426,53,0.20092773,-0.9902954,-0.0017700195
1601136529426,54,0.021484375,-1.0149536,-0.016174316
1601136529426,55,0.2421875,-1.0081177,-0.015930176
1601136529436,56,0.20214844,-1.0359497,0.049743652
1601136529436,57,0.08227539,-1.0230103,-0.006164551
1601136529436,58,0.12792969,-0.9871216,-0.023254395
1601136529436,59,0.11450195,-1.0073853,-0.024963379
1601136529437,60,0.12792969,-0.9871216,-0.023254395
1601136529437,61,0.2421875,-1.0081177,-0.015930176
1601136529437,62,0.20092773,-0.9902954,-0.0017700195
1601136529438,63,0.064453125,-1.0232544,-0.019348145
1601136529438,64,0.2421875,-1.0081177,-0.015930176
1601136529438,65,0.2421875,-1.0081177,-0.015930176
1601136529438,66,0.11279297,-0.98760986,-0.023254395
1601136529439,67,0.20092773,-0.9902954,-0.0017700195
1601136529439,68,0.20092773,-0.9902954,-0.0017700195
1601136529445,69,0.2421875,-1.0081177,-0.015930176
1601136529445,70,0.20214844,-1.0359497,0.049743652
1601136529461,71,0.08227539,-1.0230103,-0.006164551
1601136529461,72,0.064453125,-1.0232544,-0.019348145
1601136529462,73,0.11450195,-1.0073853,-0.024963379
1601136529462,74,0.18530273,-1.0569458,0.020202637
1601136529462,75,0.08227539,-1.0230103,-0.006164551
1601136529462,76,0.12792969,-0.9871216,-0.023254395
1601136529463,77,0.11450195,-1.0073853,-0.024963379
1601136529463,78,0.20214844,-1.0359497,0.049743652
1601136529463,79,0.12792969,-0.9871216,-0.023254395
1601136529463,80,0.11279297,-0.98760986,-0.023254395
1601136529463,81,0.20092773,-0.9902954,-0.0017700195
1601136529463,82,0.20214844,-1.0359497,0.049743652
1601136529463,83,0.2421875,-1.0081177,-0.015930176
1601136529463,84,0.12792969,-0.9871216,-0.023254395
1601136529464,85,0.20214844,-1.0359497,0.049743652
1601136529464,86,0.021484375,-1.0149536,-0.016174316
1601136529464,87,0.20092773,-0.9902954,-0.0017700195
1601136529465,88,0.20092773,-0.9902954,-0.0017700195
1601136529465,89,0.064453125,-1.0232544,-0.019348145
1601136529465,90,0.26904297,-1.017395,-0.06964111
1601136529465,91,0.08227539,-1.0230103,-0.006164551
1601136529465,92,0.20214844,-1.0359497,0.049743652
1601136529465,93,0.11279297,-0.98760986,-0.023254395
1601136529465,94,0.11279297,-0.98760986,-0.023254395
1601136529465,95,0.11279297,-0.98760986,-0.023254395
1601136529465,96,0.18530273,-1.0569458,0.020202637
1601136529465,97,0.2421875,-1.0081177,-0.015930176
1601136529466,98,0.18530273,-1.0569458,0.020202637
1601136529466,99,0.2421875,-1.0081177,-0.015930176
1601136529466,100,0.11450195,-1.0073853,-0.024963379
1601136529485,101,0.18530273,-1.0569458,0.020202637
1601136529486,102,0.12792969,-0.9871216,-0.023254395
1601136529487,103,0.18530273,-1.0569458,0.020202637
1601136529487,104,0.20092773,-0.9902954,-0.0017700195
1601136529487,105,0.26904297,-1.017395,-0.06964111
1601136529487,106,0.20214844,-1.0359497,0.049743652
1601136529487,107,0.15966797,-1.0376587,-0.047912598
1601136529487,108,0.20214844,-1.0359497,0.049743652
1601136529488,109,0.11279297,-0.98760986,-0.023254395
1601136529488,110,0.11279297,-0.98760986,-0.023254395
1601136529488,111,0.2421875,-1.0081177,-0.015930176
1601136529488,112,0.26904297,-1.017395,-0.06964111
1601136529488,113,0.26904297,-1.017395,-0.06964111
1601136529488,114,0.2421875,-1.0081177,-0.015930176
1601136529488,115,0.26904297,-1.017395,-0.06964111
1601136529488,116,0.20214844,-1.0359497,0.049743652
1601136529489,117,0.15966797,-1.0376587,-0.047912598
1601136529489,118,-0.043945312,-1.1311646,-0.08892822
1601136529489,119,0.11279297,-0.98760986,-0.023254395
1601136529489,120,0.18530273,-1.0569458,0.020202637
1601136529489,121,0.18530273,-1.0569458,0.020202637
1601136529489,122,0.20214844,-1.0359497,0.049743652
1601136529489,123,0.26904297,-1.017395,-0.06964111
1601136529490,124,0.15966797,-1.0376587,-0.047912598
1601136529490,125,0.26904297,-1.017395,-0.06964111
1601136529490,126,0.11279297,-0.98760986,-0.023254395
1601136529490,127,0.15966797,-1.0376587,-0.047912598
1601136529490,128,-0.043945312,-1.1311646,-0.08892822
1601136529490,129,0.15966797,-1.0376587,-0.047912598
1601136529490,130,0.1315918,-0.8233032,-0.066711426
1601136529490,131,0.18530273,-1.0569458,0.020202637
1601136529490,132,0.1315918,-0.8233032,-0.066711426
1601136529490,133,0.11279297,-0.98760986,-0.023254395
1601136529498,134,0.18530273,-1.0569458,0.020202637
1601136529498,135,-0.043945312,-1.1311646,-0.08892822
1601136529498,136,0.15966797,-1.0376587,-0.047912598
1601136529498,137,0.1315918,-0.8233032,-0.066711426
1601136529499,138,-0.043945312,-1.1311646,-0.08892822
1601136529499,139,-0.024414062,-1.1897583,0.024108887
1601136529499,140,0.15966797,-1.0376587,-0.047912598
1601136529499,141,0.26904297,-1.017395,-0.06964111
1601136529499,142,-0.0925293,-1.0569458,-0.13873291
1601136529499,143,0.15966797,-1.0376587,-0.047912598
1601136529504,144,0.26904297,-1.017395,-0.06964111
1601136529504,145,-0.043945312,-1.1311646,-0.08892822
1601136529505,146,-0.043945312,-1.1311646,-0.08892822
1601136529505,147,0.15966797,-1.0376587,-0.047912598
1601136529505,148,0.1315918,-0.8233032,-0.066711426
1601136529505,149,-0.043945312,-1.1311646,-0.08892822
1601136529505,150,0.1315918,-0.8233032,-0.066711426
1601136529506,151,0.1315918,-0.8233032,-0.066711426
1601136529506,152,-0.024414062,-1.1897583,0.024108887
1601136529506,153,-0.17553711,-0.82403564,-0.21173096
1601136529506,154,-0.024414062,-1.1897583,0.024108887
1601136529507,155,-0.043945312,-1.1311646,-0.08892822
1601136529507,156,-0.0925293,-1.0569458,-0.13873291
1601136529523,157,-0.043945312,-1.1311646,-0.08892822
1601136529523,158,-0.024414062,-1.1897583,0.024108887
1601136529523,159,-0.024414062,-1.1897583,0.024108887
1601136529524,160,-0.203125,-1.065979,-0.26763916
1601136529524,161,-0.0925293,-1.0569458,-0.13873291
1601136529524,162,0.1315918,-0.8233032,-0.066711426
1601136529524,163,-0.17553711,-0.82403564,-0.21173096
1601136529525,164,-0.024414062,-1.1897583,0.024108887
1601136529525,165,-0.024414062,-1.1897583,0.024108887
1601136529525,166,-0.203125,-1.065979,-0.26763916
1601136529525,167,-0.0925293,-1.0569458,-0.13873291
1601136529525,168,0.18530273,-1.0569458,0.020202637
1601136529525,169,0.1315918,-0.8233032,-0.066711426
1601136529526,170,-0.3137207,-1.3967896,-0.18389893
1601136529526,171,0.26904297,-1.017395,-0.06964111
1601136529526,172,-0.0925293,-1.0569458,-0.13873291
1601136529527,173,-0.0925293,-1.0569458,-0.13873291
1601136529527,174,0.15966797,-1.0376587,-0.047912598
1601136529527,175,-0.17553711,-0.82403564,-0.21173096
1601136529527,176,-0.17553711,-0.82403564,-0.21173096
1601136529527,177,0.1315918,-0.8233032,-0.066711426
1601136529527,178,-0.043945312,-1.1311646,-0.08892822
1601136529527,179,-0.17553711,-0.82403564,-0.21173096
1601136529527,180,-0.024414062,-1.1897583,0.024108887
1601136529527,181,-0.0925293,-1.0569458,-0.13873291
1601136529527,182,-0.203125,-1.065979,-0.26763916
1601136529527,183,-0.118896484,-1.0911255,-0.11993408
1601136529528,184,-0.203125,-1.065979,-0.26763916
1601136529536,185,-0.3137207,-1.3967896,-0.18389893
1601136529537,186,-0.17553711,-0.82403564,-0.21173096
1601136529537,187,-0.118896484,-1.0911255,-0.11993408
1601136529537,188,-0.024414062,-1.1897583,0.024108887
1601136529537,189,-0.0925293,-1.0569458,-0.13873291
1601136529538,190,-0.203125,-1.065979,-0.26763916
1601136529538,191,-0.17553711,-0.82403564,-0.21173096
1601136529538,192,-0.17553711,-0.82403564,-0.21173096
1601136529538,193,-0.15893555,-0.7600708,-0.13897705
1601136529538,194,-0.3137207,-1.3967896,-0.18389893
1601136529539,195,-0.08129883,-0.8855591,-0.016906738
1601136529539,196,-0.3137207,-1.3967896,-0.18389893
1601136529539,197,-0.15576172,-1.2217407,0.035827637
1601136529539,198,-0.15893555,-0.7600708,-0.13897705
1601136529539,199,-0.118896484,-1.0911255,-0.11993408
1601136529539,200,0.029296875,-1.361145,0.17010498
1601136529540,201,-0.3137207,-1.3967896,-0.18389893
1601136529540,202,-0.0925293,-1.0569458,-0.13873291
1601136529540,203,0.1315918,-0.8233032,-0.066711426
1601136529540,204,-0.118896484,-1.0911255,-0.11993408
1601136529540,205,-0.203125,-1.065979,-0.26763916
1601136529540,206,-0.15893555,-0.7600708,-0.13897705
1601136529541,207,-0.08129883,-0.8855591,-0.016906738
1601136529550,208,-0.024414062,-1.1897583,0.024108887
1601136529550,209,-0.15893555,-0.7600708,-0.13897705
1601136529550,210,-0.203125,-1.065979,-0.26763916
1601136529551,211,-0.17553711,-0.82403564,-0.21173096
1601136529551,212,-0.08129883,-0.8855591,-0.016906738
1601136529551,213,-0.203125,-1.065979,-0.26763916
1601136529551,214,-0.3137207,-1.3967896,-0.18389893
1601136529551,215,-0.15576172,-1.2217407,0.035827637
1601136529551,216,-0.118896484,-1.0911255,-0.11993408
1601136529551,217,-0.118896484,-1.0911255,-0.11993408
1601136529551,218,-0.15576172,-1.2217407,0.035827637
1601136529551,219,-0.15893555,-0.7600708,-0.13897705
1601136529551,220,-0.0925293,-1.0569458,-0.13873291
1601136529551,221,0.029296875,-1.361145,0.17010498
1601136529552,222,-0.3137207,-1.3967896,-0.18389893
1601136529552,223,0.047851562,-0.8777466,0.012390137
1601136529552,224,-0.3137207,-1.3967896,-0.18389893
1601136529552,225,-0.118896484,-1.0911255,-0.11993408
1601136529555,226,0.047851562,-0.8777466,0.012390137
1601136529555,227,-0.08129883,-0.8855591,-0.016906738
1601136529556,228,0.029296875,-1.361145,0.17010498
1601136529568,229,-0.118896484,-1.0911255,-0.11993408
1601136529568,230,-0.15893555,-0.7600708,-0.13897705
1601136529568,231,0.084472656,-0.7571411,-0.021057129
1601136529570,232,-0.203125,-1.065979,-0.26763916
1601136529570,233,-0.08129883,-0.8855591,-0.016906738
1601136529570,234,-0.17553711,-0.82403564,-0.21173096
1601136529570,235,-0.08129883,-0.8855591,-0.016906738
1601136529570,236,0.084472656,-0.7571411,-0.021057129
1601136529570,237,-0.3137207,-1.3967896,-0.18389893
1601136529570,238,0.047851562,-0.8777466,0.012390137
1601136529577,239,-0.15893555,-0.7600708,-0.13897705
1601136529577,240,-0.034179688,-0.97125244,0.08123779
1601136529577,241,-0.15576172,-1.2217407,0.035827637
1601136529577,242,0.2841797,-1.3030396,0.16668701
1601136529577,243,-0.15893555,-0.7600708,-0.13897705
1601136529578,244,0.029296875,-1.361145,0.17010498
1601136529578,245,-0.118896484,-1.0911255,-0.11993408
1601136529578,246,0.047851562,-0.8777466,0.012390137
1601136529578,247,-0.15576172,-1.2217407,0.035827637
1601136529578,248,0.084472656,-0.7571411,-0.021057129
1601136529578,249,-0.08129883,-0.8855591,-0.016906738
1601136529578,250,-0.203125,-1.065979,-0.26763916
1601136529578,251,-0.034179688,-0.97125244,0.08123779
1601136529578,252,-0.3137207,-1.3967896,-0.18389893
1601136529578,253,0.084472656,-0.7571411,-0.021057129
1601136529578,254,-0.034179688,-0.97125244,0.08123779
1601136529579,255,-0.15576172,-1.2217407,0.035827637
1601136529579,256,0.029296875,-1.361145,0.17010498
1601136529579,257,0.2841797,-1.3030396,0.16668701
1601136529579,258,0.1796875,-0.96954346,0.12176514
1601136529579,259,-0.15576172,-1.2217407,0.035827637
1601136529579,260,-0.15893555,-0.7600708,-0.13897705
1601136529582,261,0.029296875,-1.361145,0.17010498
1601136529582,262,-0.08129883,-0.8855591,-0.016906738
1601136529582,263,0.047851562,-0.8777466,0.012390137
1601136529582,264,-0.08129883,-0.8855591,-0.016906738
1601136529582,265,0.1796875,-0.96954346,0.12176514
1601136529582,266,0.2841797,-1.3030396,0.16668701
1601136529582,267,0.084472656,-0.7571411,-0.021057129
1601136529582,268,-0.118896484,-1.0911255,-0.11993408
1601136529589,269,0.047851562,-0.8777466,0.012390137
1601136529589,270,-0.034179688,-0.97125244,0.08123779
1601136529589,271,0.06640625,-0.6860962,0.0099487305
1601136529590,272,0.084472656,-0.7571411,-0.021057129
1601136529590,273,0.029296875,-1.361145,0.17010498
1601136529590,274,-0.034179688,-0.97125244,0.08123779
1601136529590,275,0.1796875,-0.96954346,0.12176514
1601136529590,276,-0.034179688,-0.97125244,0.08123779
1601136529590,277,-0.15893555,-0.7600708,-0.13897705
1601136529591,278,-0.15576172,-1.2217407,0.035827637
1601136529591,279,0.2841797,-1.3030396,0.16668701
1601136529591,280,0.06640625,-0.6860962,0.0099487305
1601136529591,281,0.06640625,-0.6860962,0.0099487305
1601136529592,282,-0.15576172,-1.2217407,0.035827637
1601136529592,283,0.2841797,-1.3030396,0.16668701
1601136529592,284,0.029296875,-1.361145,0.17010498
1601136529592,285,0.029296875,-1.361145,0.17010498
1601136529592,286,-0.08129883,-0.8855591,-0.016906738
1601136529598,287,0.047851562,-0.8777466,0.012390137
1601136529598,288,0.1796875,-0.96954346,0.12176514
1601136529598,289,0.084472656,-0.7571411,-0.021057129
1601136529599,290,0.06640625,-0.6860962,0.0099487305
1601136529599,291,0.047851562,-0.8777466,0.012390137
1601136529599,292,-0.15576172,-1.2217407,0.035827637
1601136529599,293,0.084472656,-0.7571411,-0.021057129
1601136529600,294,0.047851562,-0.8777466,0.012390137
1601136529600,295,-0.034179688,-0.97125244,0.08123779
1601136529600,296,0.2841797,-1.3030396,0.16668701
1601136529600,297,0.1796875,-0.96954346,0.12176514
1601136529602,298,0.1796875,-0.96954346,0.12176514
1601136529602,299,0.084472656,-0.7571411,-0.021057129
1601136529602,300,-0.034179688,-0.97125244,0.08123779
1601136529602,301,-0.034179688,-0.97125244,0.08123779
1601136529602,302,0.2841797,-1.3030396,0.16668701
1601136529603,303,0.029296875,-1.361145,0.17010498
1601136529603,304,0.06640625,-0.6860962,0.0099487305
1601136529604,305,0.2841797,-1.3030396,0.16668701
1601136529605,306,0.1796875,-0.96954346,0.12176514
1601136529606,307,0.1796875,-0.96954346,0.12176514
1601136529606,308,0.06640625,-0.6860962,0.0099487305
1601136529606,309,0.2841797,-1.3030396,0.16668701
1601136529606,310,0.047851562,-0.8777466,0.012390137
1601136529611,311,0.06640625,-0.6860962,0.0099487305
1601136529611,312,0.06640625,-0.6860962,0.0099487305
1601136529611,313,0.1796875,-0.96954346,0.12176514
1601136529611,314,0.06640625,-0.6860962,0.0099487305
1601136529612,315,0.084472656,-0.7571411,-0.021057129
1601136529612,316,-0.034179688,-0.97125244,0.08123779
1601136529613,317,0.2841797,-1.3030396,0.16668701
1601136529613,318,0.1796875,-0.96954346,0.12176514
1601136529614,319,0.06640625,-0.6860962,0.0099487305
1601136531920,320,0.23510742,-0.9920044,-0.006164551
1601136531921,321,0.23510742,-0.9920044,-0.006164551
1601136531922,322,0.23510742,-0.9920044,-0.006164551
1601136531922,323,0.23510742,-0.9920044,-0.006164551
1601136531925,324,0.23510742,-0.9920044,-0.006164551
1601136531925,325,0.23510742,-0.9920044,-0.006164551
1601136531925,326,0.23510742,-0.9920044,-0.006164551
1601136531925,327,0.23510742,-0.9920044,-0.006164551
1601136531925,328,0.23510742,-0.9920044,-0.006164551
1601136531925,329,0.33691406,-1.406311,-0.0095825195
1601136531926,330,0.33691406,-1.406311,-0.0095825195
1601136531935,331,0.23510742,-0.9920044,-0.006164551
1601136531935,332,0.33691406,-1.406311,-0.0095825195
1601136531935,333,0.24511719,-0.94317627,-0.08843994
1601136531935,334,0.33691406,-1.406311,-0.0095825195
1601136531935,335,0.33691406,-1.406311,-0.0095825195
1601136531935,336,0.33691406,-1.406311,-0.0095825195
1601136531935,337,0.24511719,-0.94317627,-0.08843994
1601136531935,338,0.33691406,-1.406311,-0.0095825195
1601136531935,339,0.34326172,-0.61260986,-0.13458252
1601136531935,340,0.33691406,-1.406311,-0.0095825195
1601136531936,341,0.24511719,-0.94317627,-0.08843994
1601136531936,342,0.35107422,-1.0623169,-0.0029907227
1601136531936,343,0.24511719,-0.94317627,-0.08843994
1601136531937,344,0.24511719,-0.94317627,-0.08843994
1601136531937,345,0.24511719,-0.94317627,-0.08843994
1601136531939,346,0.33691406,-1.406311,-0.0095825195
1601136531939,347,0.34326172,-0.61260986,-0.13458252
1601136531940,348,0.24511719,-0.94317627,-0.08843994
1601136531940,349,0.2734375,-1.4490356,0.12322998
1601136531940,350,0.35107422,-1.0623169,-0.0029907227
1601136531940,351,0.34326172,-0.61260986,-0.13458252
1601136531940,352,0.33691406,-1.406311,-0.0095825195
1601136531940,353,0.24511719,-0.94317627,-0.08843994
1601136531940,354,0.34326172,-0.61260986,-0.13458252
1601136531942,355,0.34326172,-0.61260986,-0.13458252
1601136531942,356,0.2734375,-1.4490356,0.12322998
1601136531949,357,0.35107422,-1.0623169,-0.0029907227
1601136531949,358,0.34326172,-0.61260986,-0.13458252
1601136531950,359,0.16772461,-1.0413208,0.13421631
1601136531950,360,0.35107422,-1.0623169,-0.0029907227
1601136531950,361,0.34326172,-0.61260986,-0.13458252
1601136531950,362,0.2734375,-1.4490356,0.12322998
1601136531951,363,0.16772461,-1.0413208,0.13421631
1601136531951,364,0.35107422,-1.0623169,-0.0029907227
1601136531951,365,0.34326172,-0.61260986,-0.13458252
1601136531951,366,0.35107422,-1.0623169,-0.0029907227
1601136531951,367,0.24511719,-0.94317627,-0.08843994
1601136531951,368,0.018554688,-0.6807251,-0.051818848
1601136531953,369,0.16772461,-1.0413208,0.13421631
1601136531953,370,0.2734375,-1.4490356,0.12322998
1601136531954,371,0.24511719,-0.94317627,-0.08843994
1601136531954,372,0.2734375,-1.4490356,0.12322998
1601136531954,373,0.35107422,-1.0623169,-0.0029907227
1601136531954,374,0.35107422,-1.0623169,-0.0029907227
1601136531954,375,0.16772461,-1.0413208,0.13421631
1601136531954,376,0.34326172,-0.61260986,-0.13458252
1601136531954,377,-0.018798828,-0.9212036,-0.027893066
1601136531954,378,0.018554688,-0.6807251,-0.051818848
1601136531955,379,0.35107422,-1.0623169,-0.0029907227
1601136531961,380,0.16772461,-1.0413208,0.13421631
1601136531961,381,0.2734375,-1.4490356,0.12322998
1601136531961,382,0.34326172,-0.61260986,-0.13458252
1601136531961,383,0.018554688,-0.6807251,-0.051818848
1601136531961,384,0.2734375,-1.4490356,0.12322998
1601136531962,385,-0.02734375,-1.4661255,0.32122803
1601136531962,386,0.018554688,-0.6807251,-0.051818848
1601136531962,387,0.2734375,-1.4490356,0.12322998
1601136531962,388,-0.018798828,-0.9212036,-0.027893066
1601136531962,389,0.16772461,-1.0413208,0.13421631
1601136531963,390,0.018554688,-0.6807251,-0.051818848
1601136531963,391,0.2734375,-1.4490356,0.12322998
1601136531963,392,0.16772461,-1.0413208,0.13421631
1601136531963,393,-0.018798828,-0.9212036,-0.027893066
1601136531963,394,0.16772461,-1.0413208,0.13421631
1601136531964,395,0.11987305,-0.99884033,-0.04498291
1601136531964,396,-0.018798828,-0.9212036,-0.027893066
1601136531964,397,0.018554688,-0.6807251,-0.051818848
1601136531964,398,0.018554688,-0.6807251,-0.051818848
1601136531989,399,0.35107422,-1.0623169,-0.0029907227
1601136531990,400,0.018554688,-0.6807251,-0.051818848
1601136531990,401,-0.02734375,-1.4661255,0.32122803
1601136531990,402,-0.018798828,-0.9212036,-0.027893066
1601136531990,403,-0.02734375,-1.4661255,0.32122803
1601136531990,404,-0.12890625,-0.5796509,-0.18804932
1601136531990,405,-0.018798828,-0.9212036,-0.027893066
1601136531990,406,0.16772461,-1.0413208,0.13421631
1601136531990,407,-0.018798828,-0.9212036,-0.027893066
1601136531990,408,-0.018798828,-0.9212036,-0.027893066
1601136531990,409,0.11987305,-0.99884033,-0.04498291
1601136531990,410,-0.02734375,-1.4661255,0.32122803
1601136531990,411,-0.12890625,-0.5796509,-0.18804932
1601136531990,412,0.2734375,-1.4490356,0.12322998
1601136531990,413,-0.3161621,-1.2153931,0.046569824
1601136531991,414,-0.02734375,-1.4661255,0.32122803
1601136531991,415,-0.3161621,-1.2153931,0.046569824
1601136531991,416,0.018554688,-0.6807251,-0.051818848
1601136531991,417,-0.21313477,-1.1624146,0.047790527
1601136531991,418,-0.21313477,-1.1624146,0.047790527
1601136531991,419,-0.02734375,-1.4661255,0.32122803
1601136531992,420,0.11987305,-0.99884033,-0.04498291
1601136531992,421,0.11987305,-0.99884033,-0.04498291
1601136531992,422,-0.02734375,-1.4661255,0.32122803
1601136531992,423,0.16772461,-1.0413208,0.13421631
1601136531992,424,0.11987305,-0.99884033,-0.04498291
1601136531992,425,-0.02734375,-1.4661255,0.32122803
1601136531993,426,-0.12890625,-0.5796509,-0.18804932
1601136531993,427,0.018554688,-0.6807251,-0.051818848
1601136531993,428,-0.018798828,-0.9212036,-0.027893066
1601136531993,429,0.11987305,-0.99884033,-0.04498291
1601136531993,430,0.11987305,-0.99884033,-0.04498291
1601136531993,431,-0.12890625,-0.5796509,-0.18804932
1601136531993,432,-0.12890625,-0.5796509,-0.18804932
1601136531993,433,-0.12890625,-0.5796509,-0.18804932
1601136531993,434,0.0012207031,-0.87579346,-0.0134887695
1601136531994,435,-0.3161621,-1.2153931,0.046569824
1601136531995,436,-0.018798828,-0.9212036,-0.027893066
1601136531995,437,0.11987305,-0.99884033,-0.04498291
1601136531995,438,-0.02734375,-1.4661255,0.32122803
1601136531995,439,0.0012207031,-0.87579346,-0.0134887695
1601136531995,440,-0.12890625,-0.5796509,-0.18804932
1601136531995,441,0.11987305,-0.99884033,-0.04498291
1601136531995,442,-0.3161621,-1.2153931,0.046569824
1601136532011,443,-0.3161621,-1.2153931,0.046569824
1601136532011,444,-0.03173828,-1.0056763,0.023132324
1601136532011,445,-0.21313477,-1.1624146,0.047790527
1601136532011,446,-0.044433594,-1.2979126,0.29901123
1601136532011,447,-0.12890625,-0.5796509,-0.18804932
1601136532013,448,-0.12890625,-0.5796509,-0.18804932
1601136532013,449,-0.03173828,-1.0056763,0.023132324
1601136532013,450,-0.3161621,-1.2153931,0.046569824
1601136532013,451,-0.21313477,-1.1624146,0.047790527
1601136532013,452,-0.3161621,-1.2153931,0.046569824
1601136532013,453,-0.21313477,-1.1624146,0.047790527
1601136532013,454,-0.21313477,-1.1624146,0.047790527
1601136532013,455,-0.02734375,-1.4661255,0.32122803
1601136532013,456,0.0012207031,-0.87579346,-0.0134887695
1601136532014,457,0.11987305,-0.99884033,-0.04498291
1601136532014,458,-0.3161621,-1.2153931,0.046569824
1601136532014,459,-0.044433594,-1.2979126,0.29901123
1601136532014,460,-0.3161621,-1.2153931,0.046569824
1601136532014,461,-0.21313477,-1.1624146,0.047790527
1601136532014,462,0.0012207031,-0.87579346,-0.0134887695
1601136532014,463,0.0012207031,-0.87579346,-0.0134887695
1601136532014,464,-0.21313477,-1.1624146,0.047790527
1601136532014,465,0.0012207031,-0.87579346,-0.0134887695
1601136532015,466,0.095947266,-1.1052856,0.3143921
1601136532015,467,0.0012207031,-0.87579346,-0.0134887695
1601136532015,468,-0.12890625,-0.5796509,-0.18804932
1601136532015,469,0.095947266,-1.1052856,0.3143921
1601136532023,470,0.0012207031,-0.87579346,-0.0134887695
1601136532023,471,-0.03173828,-1.0056763,0.023132324
1601136532023,472,-0.03173828,-1.0056763,0.023132324
1601136532024,473,-0.03173828,-1.0056763,0.023132324
1601136532024,474,-0.03173828,-1.0056763,0.023132324
1601136532024,475,0.15234375,-0.65875244,0.03704834
1601136532024,476,-0.044433594,-1.2979126,0.29901123
1601136532024,477,-0.044433594,-1.2979126,0.29901123
1601136532024,478,-0.3161621,-1.2153931,0.046569824
1601136532024,479,0.15234375,-0.65875244,0.03704834
1601136532025,480,0.095947266,-1.1052856,0.3143921
1601136532025,481,-0.21313477,-1.1624146,0.047790527
1601136532025,482,-0.025390625,-1.104065,0.23968506
1601136532025,483,0.15234375,-0.65875244,0.03704834
1601136532025,484,0.115722656,-1.1528931,0.29534912
1601136532026,485,-0.03173828,-1.0056763,0.023132324
1601136532026,486,0.14013672,-0.73516846,0.07928467
1601136532026,487,-0.044433594,-1.2979126,0.29901123
1601136532026,488,0.3334961,-0.8899536,0.11517334
1601136532026,489,-0.044433594,-1.2979126,0.29901123
1601136532026,490,0.095947266,-1.1052856,0.3143921
1601136532026,491,0.0012207031,-0.87579346,-0.0134887695
1601136532026,492,0.095947266,-1.1052856,0.3143921
1601136532027,493,0.36816406,-1.0335083,0.13006592
1601136532034,494,-0.03173828,-1.0056763,0.023132324
1601136532034,495,0.15234375,-0.65875244,0.03704834
1601136532034,496,0.095947266,-1.1052856,0.3143921
1601136532035,497,0.15234375,-0.65875244,0.03704834
1601136532035,498,-0.025390625,-1.104065,0.23968506
1601136532035,499,-0.21313477,-1.1624146,0.047790527
1601136532035,500,-0.025390625,-1.104065,0.23968506
1601136532035,501,0.15234375,-0.65875244,0.03704834
1601136532035,502,0.0012207031,-0.87579346,-0.0134887695
1601136532035,503,0.28710938,-0.90338135,0.062683105
1601136532043,504,-0.044433594,-1.2979126,0.29901123
1601136532043,505,-0.025390625,-1.104065,0.23968506
1601136532043,506,-0.03173828,-1.0056763,0.023132324
1601136532043,507,-0.025390625,-1.104065,0.23968506
1601136532043,508,-0.025390625,-1.104065,0.23968506
1601136532043,509,0.115722656,-1.1528931,0.29534912
1601136532043,510,-0.044433594,-1.2979126,0.29901123
1601136532043,511,0.115722656,-1.1528931,0.29534912
1601136532043,512,-0.03173828,-1.0056763,0.023132324
1601136532044,513,0.095947266,-1.1052856,0.3143921
1601136532044,514,-0.044433594,-1.2979126,0.29901123
1601136532044,515,0.14013672,-0.73516846,0.07928467
1601136532044,516,0.095947266,-1.1052856,0.3143921
1601136532044,517,0.115722656,-1.1528931,0.29534912
1601136532045,518,0.14013672,-0.73516846,0.07928467
1601136532045,519,0.115722656,-1.1528931,0.29534912
1601136532045,520,0.3647461,-0.88409424,0.031921387
1601136532045,521,0.115722656,-1.1528931,0.29534912
1601136532045,522,0.15234375,-0.65875244,0.03704834
1601136532045,523,0.095947266,-1.1052856,0.3143921
1601136532045,524,0.3334961,-0.8899536,0.11517334
1601136532046,525,0.15234375,-0.65875244,0.03704834
1601136532047,526,-0.044433594,-1.2979126,0.29901123
1601136532049,527,0.14013672,-0.73516846,0.07928467
1601136532054,528,0.45947266,-1.1160278,-0.08648682
1601136532054,529,0.3334961,-0.8899536,0.11517334
1601136532055,530,-0.025390625,-1.104065,0.23968506
1601136532055,531,0.36816406,-1.0335083,0.13006592
1601136532055,532,0.14013672,-0.73516846,0.07928467
1601136532055,533,-0.025390625,-1.104065,0.23968506
1601136532055,534,0.095947266,-1.1052856,0.3143921
1601136532055,535,0.3334961,-0.8899536,0.11517334
1601136532056,536,0.14013672,-0.73516846,0.07928467
1601136532056,537,0.15234375,-0.65875244,0.03704834
1601136532061,538,0.36816406,-1.0335083,0.13006592
1601136532061,539,0.115722656,-1.1528931,0.29534912
1601136532061,540,-0.025390625,-1.104065,0.23968506
1601136532061,541,0.3334961,-0.8899536,0.11517334
1601136532061,542,0.28710938,-0.90338135,0.062683105
1601136532061,543,0.15234375,-0.65875244,0.03704834
1601136532061,544,0.36816406,-1.0335083,0.13006592
1601136532061,545,0.3334961,-0.8899536,0.11517334
1601136532061,546,0.2705078,-1.0379028,-0.14434814
1601136532061,547,-0.025390625,-1.104065,0.23968506
1601136532061,548,0.115722656,-1.1528931,0.29534912
1601136532065,549,0.36816406,-1.0335083,0.13006592
1601136532071,550,0.36816406,-1.0335083,0.13006592
1601136532071,551,0.14013672,-0.73516846,0.07928467
1601136532072,552,0.3647461,-0.88409424,0.031921387
1601136532072,553,0.28710938,-0.90338135,0.062683105
1601136532072,554,0.115722656,-1.1528931,0.29534912
1601136532072,555,0.45947266,-1.1160278,-0.08648682
1601136532072,556,0.2854004,-0.8064575,-0.11407471
1601136532072,557,0.115722656,-1.1528931,0.29534912
1601136532072,558,0.2705078,-1.0379028,-0.14434814
1601136532072,559,0.14013672,-0.73516846,0.07928467
1601136532072,560,0.28710938,-0.90338135,0.062683105
1601136532072,561,0.3334961,-0.8899536,0.11517334
1601136532075,562,0.28710938,-0.90338135,0.062683105
1601136532075,563,0.3647461,-0.88409424,0.031921387
1601136532076,564,0.28710938,-0.90338135,0.062683105
1601136532076,565,0.029052734,-1.0838013,-0.101867676
1601136532076,566,0.3647461,-0.88409424,0.031921387
1601136532076,567,0.14013672,-0.73516846,0.07928467
1601136532076,568,0.2854004,-0.8064575,-0.11407471
1601136532076,569,0.10253906,-1.302063,0.026306152
1601136532076,570,0.029052734,-1.0838013,-0.101867676
1601136532076,571,-0.1274414,-0.93707275,-0.046447754
1601136532076,572,0.45947266,-1.1160278,-0.08648682
1601136532078,573,0.14013672,-0.73516846,0.07928467
1601136532078,574,0.3647461,-0.88409424,0.031921387
1601136532082,575,0.3647461,-0.88409424,0.031921387
1601136532082,576,0.45947266,-1.1160278,-0.08648682
1601136532085,577,0.2705078,-1.0379028,-0.14434814
1601136532085,578,0.3334961,-0.8899536,0.11517334
1601136532085,579,0.2705078,-1.0379028,-0.14434814
1601136532085,580,0.3334961,-0.8899536,0.11517334
1601136532085,581,0.2854004,-0.8064575,-0.11407471
1601136532086,582,0.36816406,-1.0335083,0.13006592
1601136532086,583,0.10253906,-1.302063,0.026306152
1601136532086,584,0.28710938,-0.90338135,0.062683105
1601136532087,585,0.3334961,-0.8899536,0.11517334
1601136532094,586,0.36816406,-1.0335083,0.13006592
1601136532094,587,0.36816406,-1.0335083,0.13006592
1601136532094,588,0.2854004,-0.8064575,-0.11407471
1601136532094,589,0.029052734,-1.0838013,-0.101867676
1601136532094,590,0.36816406,-1.0335083,0.13006592
1601136532094,591,0.28710938,-0.90338135,0.062683105
1601136532095,592,-0.1274414,-0.93707275,-0.046447754
1601136532095,593,0.45947266,-1.1160278,-0.08648682
1601136532095,594,0.3647461,-0.88409424,0.031921387
1601136532095,595,0.45947266,-1.1160278,-0.08648682
1601136532095,596,0.2705078,-1.0379028,-0.14434814
1601136532095,597,0.3647461,-0.88409424,0.031921387
1601136532096,598,0.10253906,-1.302063,0.026306152
1601136532096,599,0.029052734,-1.0838013,-0.101867676
1601136532096,600,0.2705078,-1.0379028,-0.14434814
1601136532096,601,0.28710938,-0.90338135,0.062683105
1601136532096,602,0.2854004,-0.8064575,-0.11407471
1601136532096,603,0.45947266,-1.1160278,-0.08648682
1601136532106,604,0.45947266,-1.1160278,-0.08648682
1601136532106,605,0.28710938,-0.90338135,0.062683105
1601136532106,606,0.2705078,-1.0379028,-0.14434814
1601136532106,607,0.10253906,-1.302063,0.026306152
1601136532106,608,0.2854004,-0.8064575,-0.11407471
1601136532106,609,-0.1274414,-0.93707275,-0.046447754
1601136532107,610,0.029052734,-1.0838013,-0.101867676
1601136532107,611,0.2705078,-1.0379028,-0.14434814
1601136532107,612,-0.1274414,-0.93707275,-0.046447754
1601136532107,613,0.2854004,-0.8064575,-0.11407471
1601136532107,614,0.029052734,-1.0838013,-0.101867676
1601136532107,615,0.029052734,-1.0838013,-0.101867676
1601136532107,616,0.3647461,-0.88409424,0.031921387
1601136532108,617,0.10253906,-1.302063,0.026306152
1601136532108,618,0.10253906,-1.302063,0.026306152
1601136532108,619,0.45947266,-1.1160278,-0.08648682
1601136532108,620,-0.1274414,-0.93707275,-0.046447754
1601136532108,621,0.3647461,-0.88409424,0.031921387
1601136532109,622,0.2854004,-0.8064575,-0.11407471
1601136532109,623,0.10253906,-1.302063,0.026306152
1601136532110,624,0.2705078,-1.0379028,-0.14434814
1601136532110,625,0.45947266,-1.1160278,-0.08648682
1601136532111,626,0.029052734,-1.0838013,-0.101867676
1601136532111,627,-0.1274414,-0.93707275,-0.046447754
1601136532113,628,0.2854004,-0.8064575,-0.11407471
1601136532115,629,-0.1274414,-0.93707275,-0.046447754
1601136532118,630,0.10253906,-1.302063,0.026306152
1601136532118,631,0.029052734,-1.0838013,-0.101867676
1601136532118,632,-0.1274414,-0.93707275,-0.046447754
1601136532118,633,0.10253906,-1.302063,0.026306152
1601136532119,634,0.2705078,-1.0379028,-0.14434814
1601136532119,635,-0.1274414,-0.93707275,-0.046447754
1601136532121,636,0.2854004,-0.8064575,-0.11407471
1601136532121,637,0.029052734,-1.0838013,-0.101867676
1601136532122,638,0.10253906,-1.302063,0.026306152
1601136532123,639,-0.1274414,-0.93707275,-0.046447754
1601136535003,640,-0.015625,-0.7930298,-0.07647705
1601136535003,641,-0.14379883,-1.2153931,0.039245605
1601136535003,642,-0.17822266,-1.2017212,0.0016479492
1601136535003,643,-0.015625,-0.7930298,-0.07647705
1601136535004,644,-0.015625,-0.7930298,-0.07647705
1601136535004,645,-0.12060547,-0.7490845,-0.16827393
1601136535005,646,-0.015625,-0.7930298,-0.07647705
1601136535005,647,-0.21362305,-1.0288696,-0.14312744
1601136535005,648,-0.14379883,-1.2153931,0.039245605
1601136535015,649,-0.14379883,-1.2153931,0.039245605
1601136535015,650,0.03173828,-1.3355103,0.1552124
1601136535015,651,-0.17822266,-1.2017212,0.0016479492
1601136535015,652,-0.17822266,-1.2017212,0.0016479492
1601136535015,653,-0.015625,-0.7930298,-0.07647705
1601136535016,654,-0.015625,-0.7930298,-0.07647705
1601136535016,655,-0.14379883,-1.2153931,0.039245605
1601136535016,656,-0.015625,-0.7930298,-0.07647705
1601136535016,657,-0.14379883,-1.2153931,0.039245605
1601136535016,658,-0.015625,-0.7930298,-0.07647705
1601136535021,659,-0.12060547,-0.7490845,-0.16827393
1601136535021,660,-0.12060547,-0.7490845,-0.16827393
1601136535021,661,-0.015625,-0.7930298,-0.07647705
1601136535021,662,-0.21362305,-1.0288696,-0.14312744
1601136535021,663,-0.015625,-0.7930298,-0.07647705
1601136535022,664,-0.14379883,-1.2153931,0.039245605
1601136535022,665,-0.14379883,-1.2153931,0.039245605
1601136535022,666,-0.17822266,-1.2017212,0.0016479492
1601136535022,667,-0.17822266,-1.2017212,0.0016479492
1601136535022,668,-0.12060547,-0.7490845,-0.16827393
1601136535029,669,-0.21362305,-1.0288696,-0.14312744
1601136535029,670,-0.016113281,-1.1018677,0.043151855
1601136535029,671,0.03173828,-1.3355103,0.1552124
1601136535029,672,0.03173828,-1.3355103,0.1552124
1601136535030,673,-0.17822266,-1.2017212,0.0016479492
1601136535030,674,0.020019531,-0.8526001,-0.055480957
1601136535030,675,-0.14379883,-1.2153931,0.039245605
1601136535030,676,-0.14379883,-1.2153931,0.039245605
1601136535030,677,0.11767578,-1.08844,0.2345581
1601136535030,678,-0.17822266,-1.2017212,0.0016479492
1601136535030,679,-0.14379883,-1.2153931,0.039245605
1601136535031,680,0.05834961,-1.1848755,0.2033081
1601136535031,681,-0.016113281,-1.1018677,0.043151855
1601136535031,682,-0.17822266,-1.2017212,0.0016479492
1601136535031,683,-0.016113281,-1.1018677,0.043151855
1601136535032,684,-0.12060547,-0.7490845,-0.16827393
1601136535032,685,-0.12060547,-0.7490845,-0.16827393
1601136535032,686,-0.21362305,-1.0288696,-0.14312744
1601136535039,687,-0.12060547,-0.7490845,-0.16827393
1601136535039,688,-0.17822266,-1.2017212,0.0016479492
1601136535039,689,0.0690918,-0.84991455,0.022399902
1601136535039,690,-0.21362305,-1.0288696,-0.14312744
1601136535039,691,0.020019531,-0.8526001,-0.055480957
1601136535039,692,-0.21362305,-1.0288696,-0.14312744
1601136535040,693,0.020019531,-0.8526001,-0.055480957
1601136535040,694,-0.21362305,-1.0288696,-0.14312744
1601136535040,695,0.03173828,-1.3355103,0.1552124
1601136535045,696,-0.12060547,-0.7490845,-0.16827393
1601136535045,697,-0.12060547,-0.7490845,-0.16827393
1601136535045,698,0.088134766,-0.75787354,0.039245605
1601136535045,699,-0.21362305,-1.0288696,-0.14312744
1601136535045,700,0.27270508,-1.161438,0.15789795
1601136535045,701,0.03173828,-1.3355103,0.1552124
1601136535045,702,0.28759766,-1.1084595,0.12762451
1601136535045,703,-0.17822266,-1.2017212,0.0016479492
1601136535046,704,0.2055664,-0.7522583,0.048034668
1601136535046,705,0.03173828,-1.3355103,0.1552124
1601136535051,706,-0.21362305,-1.0288696,-0.14312744
1601136535052,707,0.03173828,-1.3355103,0.1552124
1601136535052,708,0.03173828,-1.3355103,0.1552124
1601136535052,709,0.03173828,-1.3355103,0.1552124
1601136535052,710,-0.016113281,-1.1018677,0.043151855
1601136535052,711,-0.016113281,-1.1018677,0.043151855
1601136535052,712,-0.016113281,-1.1018677,0.043151855
1601136535052,713,0.2680664,-0.8526001,0.124694824
1601136535052,714,0.020019531,-0.8526001,-0.055480957
1601136535053,715,0.3400879,-1.0618286,0.25115967
1601136535065,716,0.11767578,-1.08844,0.2345581
1601136535066,717,0.11767578,-1.08844,0.2345581
1601136535066,718,-0.016113281,-1.1018677,0.043151855
1601136535066,719,0.020019531,-0.8526001,-0.055480957
1601136535066,720,-0.016113281,-1.1018677,0.043151855
1601136535066,721,-0.12060547,-0.7490845,-0.16827393
1601136535067,722,0.020019531,-0.8526001,-0.055480957
1601136535067,723,-0.016113281,-1.1018677,0.043151855
1601136535067,724,0.11767578,-1.08844,0.2345581
1601136535067,725,0.32495117,-0.8706665,0.1552124
1601136535067,726,0.05834961,-1.1848755,0.2033081
1601136535067,727,0.05834961,-1.1848755,0.2033081
1601136535067,728,0.020019531,-0.8526001,-0.055480957
1601136535067,729,0.05834961,-1.1848755,0.2033081
1601136535067,730,0.11767578,-1.08844,0.2345581
1601136535067,731,0.020019531,-0.8526001,-0.055480957
1601136535068,732,-0.21362305,-1.0288696,-0.14312744
1601136535068,733,0.0690918,-0.84991455,0.022399902
1601136535068,734,0.11767578,-1.08844,0.2345581
1601136535068,735,0.11767578,-1.08844,0.2345581
1601136535068,736,0.3022461,-0.8711548,0.010681152
1601136535068,737,0.05834961,-1.1848755,0.2033081
1601136535068,738,0.05834961,-1.1848755,0.2033081
1601136535069,739,0.0690918,-0.84991455,0.022399902
1601136535069,740,0.0690918,-0.84991455,0.022399902
1601136535069,741,0.05834961,-1.1848755,0.2033081
1601136535069,742,0.03173828,-1.3355103,0.1552124
1601136535076,743,0.088134766,-0.75787354,0.039245605
1601136535077,744,0.0690918,-0.84991455,0.022399902
1601136535077,745,0.11767578,-1.08844,0.2345581
1601136535077,746,0.020019531,-0.8526001,-0.055480957
1601136535077,747,0.0690918,-0.84991455,0.022399902
1601136535077,748,0.088134766,-0.75787354,0.039245605
1601136535077,749,0.35424805,-1.0003052,0.12884521
1601136535077,750,0.0690918,-0.84991455,0.022399902
1601136535077,751,-0.016113281,-1.1018677,0.043151855
1601136535077,752,0.088134766,-0.75787354,0.039245605
1601136535077,753,0.088134766,-0.75787354,0.039245605
1601136535078,754,0.020019531,-0.8526001,-0.055480957
1601136535078,755,0.05834961,-1.1848755,0.2033081
1601136535078,756,0.11767578,-1.08844,0.2345581
1601136535078,757,0.088134766,-0.75787354,0.039245605
1601136535078,758,0.27270508,-1.161438,0.15789795
1601136535078,759,0.05834961,-1.1848755,0.2033081
1601136535078,760,0.4182129,-0.9378052,0.08343506
1601136535079,761,0.27270508,-1.161438,0.15789795
1601136535079,762,0.27270508,-1.161438,0.15789795
1601136535079,763,0.11767578,-1.08844,0.2345581
1601136535084,764,0.0690918,-0.84991455,0.022399902
1601136535084,765,0.088134766,-0.75787354,0.039245605
1601136535084,766,0.0690918,-0.84991455,0.022399902
1601136535084,767,0.28759766,-1.1084595,0.12762451
1601136535084,768,0.27270508,-1.161438,0.15789795
1601136535085,769,0.27270508,-1.161438,0.15789795
1601136535085,770,0.28759766,-1.1084595,0.12762451
1601136535085,771,0.4946289,-0.97784424,0.08001709
1601136535085,772,0.27270508,-1.161438,0.15789795
1601136535089,773,0.05834961,-1.1848755,0.2033081
1601136535089,774,0.088134766,-0.75787354,0.039245605
1601136535089,775,0.28759766,-1.1084595,0.12762451
1601136535089,776,0.0690918,-0.84991455,0.022399902
1601136535089,777,0.088134766,-0.75787354,0.039245605
1601136535089,778,0.2055664,-0.7522583,0.048034668
1601136535090,779,0.2055664,-0.7522583,0.048034668
1601136535090,780,0.32055664,-0.9402466,-0.03375244
1601136535090,781,0.27270508,-1.161438,0.15789795
1601136535090,782,0.28759766,-1.1084595,0.12762451
1601136535090,783,0.28759766,-1.1084595,0.12762451
1601136535092,784,0.28759766,-1.1084595,0.12762451
1601136535095,785,0.2055664,-0.7522583,0.048034668
1601136535095,786,0.2680664,-0.8526001,0.124694824
1601136535095,787,0.2680664,-0.8526001,0.124694824
1601136535095,788,0.0871582,-1.1365356,-0.10748291
1601136535095,789,0.28759766,-1.1084595,0.12762451
1601136535095,790,0.2055664,-0.7522583,0.048034668
1601136535095,791,0.27270508,-1.161438,0.15789795
1601136535096,792,0.2055664,-0.7522583,0.048034668
1601136535096,793,0.2055664,-0.7522583,0.048034668
1601136535096,794,0.088134766,-0.75787354,0.039245605
1601136535097,795,0.2680664,-0.8526001,0.124694824
1601136535110,796,0.3400879,-1.0618286,0.25115967
1601136535110,797,0.2680664,-0.8526001,0.124694824
1601136535110,798,0.1628418,-0.94195557,-0.0791626
1601136535110,799,0.3400879,-1.0618286,0.25115967
1601136535110,800,0.2680664,-0.8526001,0.124694824
1601136535110,801,0.2055664,-0.7522583,0.048034668
1601136535111,802,0.2680664,-0.8526001,0.124694824
1601136535111,803,0.27270508,-1.161438,0.15789795
1601136535111,804,0.3400879,-1.0618286,0.25115967
1601136535111,805,-0.024414062,-0.7971802,-0.20318604
1601136535111,806,0.3400879,-1.0618286,0.25115967
1601136535111,807,0.28759766,-1.1084595,0.12762451
1601136535111,808,0.32495117,-0.8706665,0.1552124
1601136535112,809,0.32495117,-0.8706665,0.1552124
1601136535112,810,0.3400879,-1.0618286,0.25115967
1601136535112,811,0.2680664,-0.8526001,0.124694824
1601136535112,812,0.3022461,-0.8711548,0.010681152
1601136535112,813,0.32495117,-0.8706665,0.1552124
1601136535112,814,0.28759766,-1.1084595,0.12762451
1601136535113,815,0.32495117,-0.8706665,0.1552124
1601136535113,816,0.32495117,-0.8706665,0.1552124
1601136535113,817,0.2055664,-0.7522583,0.048034668
1601136535113,818,0.3022461,-0.8711548,0.010681152
1601136535113,819,0.3022461,-0.8711548,0.010681152
1601136535113,820,0.2055664,-0.7522583,0.048034668
1601136535115,821,0.3400879,-1.0618286,0.25115967
1601136535115,822,0.35424805,-1.0003052,0.12884521
1601136535117,823,0.35424805,-1.0003052,0.12884521
1601136535117,824,0.3400879,-1.0618286,0.25115967
1601136535117,825,0.4182129,-0.9378052,0.08343506
1601136535117,826,-0.24243164,-1.6055298,0.09075928
1601136535117,827,0.32495117,-0.8706665,0.1552124
1601136535117,828,0.2680664,-0.8526001,0.124694824
1601136535117,829,-0.044677734,-0.9170532,-0.11456299
1601136535117,830,0.3022461,-0.8711548,0.010681152
1601136535121,831,0.35424805,-1.0003052,0.12884521
1601136535121,832,0.3022461,-0.8711548,0.010681152
1601136535121,833,0.4946289,-0.97784424,0.08001709
1601136535121,834,0.35424805,-1.0003052,0.12884521
1601136535121,835,0.4182129,-0.9378052,0.08343506
1601136535121,836,0.2680664,-0.8526001,0.124694824
1601136535122,837,0.35424805,-1.0003052,0.12884521
1601136535122,838,0.4946289,-0.97784424,0.08001709
1601136535122,839,0.32495117,-0.8706665,0.1552124
1601136535122,840,0.32055664,-0.9402466,-0.03375244
1601136535122,841,0.32055664,-0.9402466,-0.03375244
1601136535127,842,0.3400879,-1.0618286,0.25115967
1601136535128,843,0.4182129,-0.9378052,0.08343506
1601136535129,844,0.3400879,-1.0618286,0.25115967
1601136535129,845,0.4182129,-0.9378052,0.08343506
1601136535129,846,0.32495117,-0.8706665,0.1552124
1601136535129,847,0.0871582,-1.1365356,-0.10748291
1601136535129,848,0.3022461,-0.8711548,0.010681152
1601136535129,849,0.4946289,-0.97784424,0.08001709
1601136535129,850,0.0871582,-1.1365356,-0.10748291
1601136535129,851,0.32055664,-0.9402466,-0.03375244
1601136535129,852,0.1628418,-0.94195557,-0.0791626
1601136535130,853,0.4182129,-0.9378052,0.08343506
1601136535130,854,0.4946289,-0.97784424,0.08001709
1601136535130,855,0.3022461,-0.8711548,0.010681152
1601136535130,856,0.1628418,-0.94195557,-0.0791626
1601136535132,857,0.32495117,-0.8706665,0.1552124
1601136535132,858,0.3022461,-0.8711548,0.010681152
1601136535132,859,0.020996094,-0.8555298,-0.14483643
1601136535132,860,0.0871582,-1.1365356,-0.10748291
1601136535132,861,0.4946289,-0.97784424,0.08001709
1601136535132,862,-0.024414062,-0.7971802,-0.20318604
1601136535132,863,0.32055664,-0.9402466,-0.03375244
1601136535132,864,0.35424805,-1.0003052,0.12884521
1601136535132,865,0.1628418,-0.94195557,-0.0791626
1601136535133,866,-0.024414062,-0.7971802,-0.20318604
1601136535134,867,0.35424805,-1.0003052,0.12884521
1601136535141,868,0.32055664,-0.9402466,-0.03375244
1601136535141,869,0.4182129,-0.9378052,0.08343506
1601136535141,870,0.35424805,-1.0003052,0.12884521
1601136535141,871,0.4182129,-0.9378052,0.08343506
1601136535141,872,-0.24243164,-1.6055298,0.09075928
1601136535141,873,-0.024414062,-0.7971802,-0.20318604
1601136535141,874,0.4182129,-0.9378052,0.08343506
1601136535141,875,0.3022461,-0.8711548,0.010681152
1601136535142,876,0.4946289,-0.97784424,0.08001709
1601136535142,877,0.0871582,-1.1365356,-0.10748291
1601136535142,878,0.32055664,-0.9402466,-0.03375244
1601136535142,879,0.4946289,-0.97784424,0.08001709
1601136535142,880,0.0871582,-1.1365356,-0.10748291
1601136535143,881,-0.044677734,-0.9170532,-0.11456299
1601136535143,882,0.32055664,-0.9402466,-0.03375244
1601136535143,883,0.4946289,-0.97784424,0.08001709
1601136535143,884,0.020996094,-0.8555298,-0.14483643
1601136535143,885,-0.24243164,-1.6055298,0.09075928
1601136535144,886,0.1628418,-0.94195557,-0.0791626
1601136535144,887,0.0871582,-1.1365356,-0.10748291
1601136535153,888,-0.24243164,-1.6055298,0.09075928
1601136535153,889,0.1628418,-0.94195557,-0.0791626
1601136535153,890,-0.15527344,-1.4719849,0.020202637
1601136535154,891,0.0871582,-1.1365356,-0.10748291
1601136535154,892,-0.15527344,-1.4719849,0.020202637
1601136535154,893,0.32055664,-0.9402466,-0.03375244
1601136535154,894,-0.22729492,-0.986145,-0.039611816
1601136535154,895,0.1628418,-0.94195557,-0.0791626
1601136535154,896,-0.27270508,-0.7991333,-0.04156494
1601136535154,897,-0.024414062,-0.7971802,-0.20318604
1601136535154,898,-0.044677734,-0.9170532,-0.11456299
1601136535159,899,0.0871582,-1.1365356,-0.10748291
1601136535159,900,0.020996094,-0.8555298,-0.14483643
1601136535160,901,0.35424805,-1.0003052,0.12884521
1601136535160,902,-0.024414062,-0.7971802,-0.20318604
1601136535160,903,0.4182129,-0.9378052,0.08343506
1601136535160,904,0.1628418,-0.94195557,-0.0791626
1601136535160,905,-0.15527344,-1.4719849,0.020202637
1601136535160,906,-0.024414062,-0.7971802,-0.20318604
1601136535164,907,-0.22729492,-0.986145,-0.039611816
1601136535164,908,0.1628418,-0.94195557,-0.0791626
1601136535164,909,-0.044677734,-0.9170532,-0.11456299
1601136535164,910,-0.024414062,-0.7971802,-0.20318604
1601136535164,911,-0.24243164,-1.6055298,0.09075928
1601136535164,912,-0.24243164,-1.6055298,0.09075928
1601136535164,913,-0.22729492,-0.986145,-0.039611816
1601136535164,914,0.4946289,-0.97784424,0.08001709
1601136535165,915,-0.024414062,-0.7971802,-0.20318604
1601136535168,916,-0.24243164,-1.6055298,0.09075928
1601136535168,917,0.32055664,-0.9402466,-0.03375244
1601136535168,918,-0.27270508,-0.7991333,-0.04156494
1601136535168,919,0.020996094,-0.8555298,-0.14483643
1601136535168,920,-0.24243164,-1.6055298,0.09075928
1601136535168,921,-0.044677734,-0.9170532,-0.11456299
1601136535175,922,-0.24243164,-1.6055298,0.09075928
1601136535175,923,-0.044677734,-0.9170532,-0.11456299
1601136535175,924,-0.15527344,-1.4719849,0.020202637
1601136535175,925,0.0871582,-1.1365356,-0.10748291
1601136535176,926,-0.27270508,-0.7991333,-0.04156494
1601136535176,927,-0.044677734,-0.9170532,-0.11456299
1601136535176,928,-0.044677734,-0.9170532,-0.11456299
1601136535176,929,-0.044677734,-0.9170532,-0.11456299
1601136535176,930,0.020996094,-0.8555298,-0.14483643
1601136535176,931,-0.22729492,-0.986145,-0.039611816
1601136535176,932,-0.15527344,-1.4719849,0.020202637
1601136535177,933,0.1628418,-0.94195557,-0.0791626
1601136535177,934,0.020996094,-0.8555298,-0.14483643
1601136535177,935,0.020996094,-0.8555298,-0.14483643
1601136535183,936,0.020996094,-0.8555298,-0.14483643
1601136535183,937,-0.22729492,-0.986145,-0.039611816
1601136535183,938,-0.27270508,-0.7991333,-0.04156494
1601136535183,939,0.020996094,-0.8555298,-0.14483643
1601136535183,940,-0.15527344,-1.4719849,0.020202637
1601136535183,941,-0.15527344,-1.4719849,0.020202637
1601136535183,942,-0.22729492,-0.986145,-0.039611816
1601136535187,943,-0.15527344,-1.4719849,0.020202637
1601136535187,944,-0.27270508,-0.7991333,-0.04156494
1601136535187,945,-0.22729492,-0.986145,-0.039611816
1601136535187,946,-0.024414062,-0.7971802,-0.20318604
1601136535188,947,-0.27270508,-0.7991333,-0.04156494
1601136535188,948,-0.22729492,-0.986145,-0.039611816
1601136535188,949,-0.15527344,-1.4719849,0.020202637
1601136535191,950,-0.27270508,-0.7991333,-0.04156494
1601136535191,951,-0.22729492,-0.986145,-0.039611816
1601136535191,952,-0.27270508,-0.7991333,-0.04156494
1601136535191,953,-0.24243164,-1.6055298,0.09075928
1601136535193,954,-0.27270508,-0.7991333,-0.04156494
1601136535194,955,-0.044677734,-0.9170532,-0.11456299
1601136535195,956,0.020996094,-0.8555298,-0.14483643
1601136535195,957,-0.15527344,-1.4719849,0.020202637
1601136535197,958,-0.22729492,-0.986145,-0.039611816
1601136535197,959,-0.27270508,-0.7991333,-0.04156494
1601136536999,960,-0.29125977,-0.8887329,-0.0178833
1601136537009,961,-0.16503906,-1.1553345,0.07244873
1601136537009,962,-0.29125977,-0.8887329,-0.0178833
1601136537009,963,-0.29125977,-0.8887329,-0.0178833
1601136537010,964,-0.29125977,-0.8887329,-0.0178833
1601136537010,965,-0.16503906,-1.1553345,0.07244873
1601136537010,966,-0.29125977,-0.8887329,-0.0178833
1601136537010,967,-0.29125977,-0.8887329,-0.0178833
1601136537010,968,-0.22216797,-0.9522095,0.035339355
1601136537010,969,-0.29125977,-0.8887329,-0.0178833
1601136537038,970,-0.16503906,-1.1553345,0.07244873
1601136537038,971,-0.16503906,-1.1553345,0.07244873
1601136537038,972,-0.29125977,-0.8887329,-0.0178833
1601136537038,973,-0.16503906,-1.1553345,0.07244873
1601136537038,974,-0.22216797,-0.9522095,0.035339355
1601136537038,975,-0.16503906,-1.1553345,0.07244873
1601136537039,976,-0.29125977,-0.8887329,-0.0178833
1601136537039,977,-0.1315918,-0.9644165,0.043151855
1601136537039,978,-0.29125977,-0.8887329,-0.0178833
1601136537039,979,-0.22216797,-0.9522095,0.035339355
1601136537039,980,-0.16503906,-1.1553345,0.07244873
1601136537039,981,-0.16503906,-1.1553345,0.07244873
1601136537039,982,-0.22216797,-0.9522095,0.035339355
1601136537039,983,-0.16503906,-1.1553345,0.07244873
1601136537039,984,-0.1315918,-0.9644165,0.043151855
1601136537044,985,-0.22216797,-0.9522095,0.035339355
1601136537044,986,-0.1315918,-0.9644165,0.043151855
1601136537044,987,-0.22216797,-0.9522095,0.035339355
1601136537044,988,-0.22216797,-0.9522095,0.035339355
1601136537044,989,-0.22216797,-0.9522095,0.035339355
1601136537044,990,-0.22216797,-0.9522095,0.035339355
1601136537044,991,-0.1315918,-0.9644165,0.043151855
1601136537045,992,-0.24560547,-1.0523071,-0.15777588
1601136537045,993,-0.16503906,-1.1553345,0.07244873
1601136537045,994,-0.24560547,-1.0523071,-0.15777588
1601136537045,995,-0.1315918,-0.9644165,0.043151855
1601136537045,996,-0.24560547,-1.0523071,-0.15777588
1601136537052,997,-0.1315918,-0.9644165,0.043151855
1601136537052,998,-0.24560547,-1.0523071,-0.15777588
1601136537052,999,-0.1315918,-0.9644165,0.043151855
1601136537052,1000,-0.1315918,-0.9644165,0.043151855
1601136537052,1001,-0.24560547,-1.0523071,-0.15777588
1601136537052,1002,-0.24560547,-1.0523071,-0.15777588
1601136537053,1003,-0.2043457,-0.9751587,-0.15045166
1601136537053,1004,-0.2043457,-0.9751587,-0.15045166
1601136537053,1005,-0.24438477,-0.95440674,-0.11846924
1601136537053,1006,-0.1315918,-0.9644165,0.043151855
1601136537053,1007,-0.18530273,-1.1477661,-0.113586426
1601136537053,1008,-0.2043457,-0.9751587,-0.15045166
1601136537054,1009,0.1796875,-0.9295044,-0.25811768
1601136537054,1010,-0.22216797,-0.9522095,0.035339355
1601136537075,1011,-0.2043457,-0.9751587,-0.15045166
1601136537076,1012,-0.24560547,-1.0523071,-0.15777588
1601136537076,1013,-0.2043457,-0.9751587,-0.15045166
1601136537076,1014,-0.24438477,-0.95440674,-0.11846924
1601136537076,1015,-0.24438477,-0.95440674,-0.11846924
1601136537077,1016,-0.24438477,-0.95440674,-0.11846924
1601136537077,1017,-0.2043457,-0.9751587,-0.15045166
1601136537077,1018,-0.18530273,-1.1477661,-0.113586426
1601136537077,1019,0.03100586,-0.97540283,0.051208496
1601136537077,1020,-0.1315918,-0.9644165,0.043151855
1601136537077,1021,0.1796875,-0.9295044,-0.25811768
1601136537078,1022,-0.2043457,-0.9751587,-0.15045166
1601136537078,1023,-0.24560547,-1.0523071,-0.15777588
1601136537078,1024,-0.24560547,-1.0523071,-0.15777588
1601136537078,1025,-0.18530273,-1.1477661,-0.113586426
1601136537078,1026,0.32421875,-1.5379028,0.13201904
1601136537078,1027,-0.2043457,-0.9751587,-0.15045166
1601136537078,1028,0.22192383,-1.0925903,-0.003479004
1601136537078,1029,-0.18530273,-1.1477661,-0.113586426
1601136537078,1030,-0.24560547,-1.0523071,-0.15777588
1601136537078,1031,-0.24438477,-0.95440674,-0.11846924
1601136537078,1032,-0.2043457,-0.9751587,-0.15045166
1601136537079,1033,-0.24438477,-0.95440674,-0.11846924
1601136537079,1034,-0.24438477,-0.95440674,-0.11846924
1601136537079,1035,-0.24438477,-0.95440674,-0.11846924
1601136537079,1036,-0.18530273,-1.1477661,-0.113586426
1601136537079,1037,0.03100586,-0.97540283,0.051208496
1601136537079,1038,-0.24438477,-0.95440674,-0.11846924
1601136537079,1039,0.1796875,-0.9295044,-0.25811768
1601136537079,1040,0.03100586,-0.97540283,0.051208496
1601136537079,1041,-0.18530273,-1.1477661,-0.113586426
1601136537079,1042,0.32421875,-1.5379028,0.13201904
1601136537079,1043,0.1796875,-0.9295044,-0.25811768
1601136537079,1044,0.22192383,-1.0925903,-0.003479004
1601136537079,1045,-0.18530273,-1.1477661,-0.113586426
1601136537079,1046,0.03100586,-0.97540283,0.051208496
1601136537080,1047,-0.2043457,-0.9751587,-0.15045166
1601136537080,1048,0.32421875,-1.5379028,0.13201904
1601136537080,1049,0.1796875,-0.9295044,-0.25811768
1601136537080,1050,0.1796875,-0.9295044,-0.25811768
1601136537080,1051,0.1796875,-0.9295044,-0.25811768
1601136537080,1052,0.09790039,-0.7390747,-0.14874268
1601136537080,1053,-0.18530273,-1.1477661,-0.113586426
1601136537080,1054,0.32421875,-1.5379028,0.13201904
1601136537080,1055,0.18896484,-0.767395,-0.031066895
1601136537080,1056,0.1796875,-0.9295044,-0.25811768
1601136537080,1057,0.22192383,-1.0925903,-0.003479004
1601136537080,1058,0.22192383,-1.0925903,-0.003479004
1601136537080,1059,-0.18530273,-1.1477661,-0.113586426
1601136537081,1060,-0.24438477,-0.95440674,-0.11846924
1601136537081,1061,0.03100586,-0.97540283,0.051208496
1601136537081,1062,0.1796875,-0.9295044,-0.25811768
1601136537081,1063,0.09790039,-0.7390747,-0.14874268
1601136537084,1064,0.03100586,-0.97540283,0.051208496
1601136537084,1065,0.03100586,-0.97540283,0.051208496
1601136537084,1066,0.32421875,-1.5379028,0.13201904
1601136537085,1067,0.03100586,-0.97540283,0.051208496
1601136537085,1068,0.09790039,-0.7390747,-0.14874268
1601136537085,1069,-0.18530273,-1.1477661,-0.113586426
1601136537085,1070,0.18896484,-0.767395,-0.031066895
1601136537085,1071,-0.02368164,-1.0925903,0.026794434
1601136537085,1072,0.32421875,-1.5379028,0.13201904
1601136537085,1073,0.09790039,-0.7390747,-0.14874268
1601136537085,1074,0.18896484,-0.767395,-0.031066895
1601136537085,1075,0.32421875,-1.5379028,0.13201904
1601136537086,1076,0.32421875,-1.5379028,0.13201904
1601136537086,1077,0.22192383,-1.0925903,-0.003479004
1601136537086,1078,0.22192383,-1.0925903,-0.003479004
1601136537086,1079,-0.02368164,-1.0925903,0.026794434
1601136537087,1080,0.1796875,-0.9295044,-0.25811768
1601136537087,1081,0.057861328,-1.416565,-0.3213501
1601136537088,1082,0.22192383,-1.0925903,-0.003479004
1601136537088,1083,0.22192383,-1.0925903,-0.003479004
1601136537088,1084,0.18896484,-0.767395,-0.031066895
1601136537088,1085,0.09790039,-0.7390747,-0.14874268
1601136537088,1086,0.03100586,-0.97540283,0.051208496
1601136537089,1087,0.09790039,-0.7390747,-0.14874268
1601136537089,1088,0.09790039,-0.7390747,-0.14874268
1601136537089,1089,-0.06762695,-0.7659302,-0.117492676
1601136537089,1090,0.32421875,-1.5379028,0.13201904
1601136537089,1091,0.057861328,-1.416565,-0.3213501
1601136537090,1092,-0.02368164,-1.0925903,0.026794434
1601136537095,1093,0.09790039,-0.7390747,-0.14874268
1601136537095,1094,-0.02368164,-1.0925903,0.026794434
1601136537095,1095,0.18896484,-0.767395,-0.031066895
1601136537095,1096,0.18896484,-0.767395,-0.031066895
1601136537095,1097,0.12597656,-1.0376587,-0.14068604
1601136537095,1098,0.18896484,-0.767395,-0.031066895
1601136537096,1099,0.22192383,-1.0925903,-0.003479004
1601136537096,1100,-0.06762695,-0.7659302,-0.117492676
1601136537096,1101,0.18896484,-0.767395,-0.031066895
1601136537096,1102,0.057861328,-1.416565,-0.3213501
1601136537097,1103,0.03100586,-0.97540283,0.051208496
1601136537098,1104,-0.02368164,-1.0925903,0.026794434
1601136537098,1105,0.09790039,-0.7390747,-0.14874268
1601136537099,1106,0.057861328,-1.416565,-0.3213501
1601136537099,1107,-0.02368164,-1.0925903,0.026794434
1601136537099,1108,0.12597656,-1.0376587,-0.14068604
1601136537100,1109,0.18896484,-0.767395,-0.031066895
1601136537105,1110,-0.03515625,-1.2046509,0.22845459
1601136537105,1111,-0.02368164,-1.0925903,0.026794434
1601136537105,1112,-0.0043945312,-0.8369751,0.15496826
1601136537105,1113,-0.06762695,-0.7659302,-0.117492676
1601136537106,1114,-0.059326172,-0.9602661,0.23162842
1601136537106,1115,-0.06762695,-0.7659302,-0.117492676
1601136537106,1116,0.057861328,-1.416565,-0.3213501
1601136537106,1117,0.057861328,-1.416565,-0.3213501
1601136537106,1118,0.32421875,-1.5379028,0.13201904
1601136537106,1119,-0.03515625,-1.2046509,0.22845459
1601136537106,1120,-0.02368164,-1.0925903,0.026794434
1601136537106,1121,-0.02368164,-1.0925903,0.026794434
1601136537106,1122,0.057861328,-1.416565,-0.3213501
1601136537106,1123,-0.06762695,-0.7659302,-0.117492676
1601136537107,1124,0.12597656,-1.0376587,-0.14068604
1601136537114,1125,-0.03515625,-1.2046509,0.22845459
1601136537114,1126,0.22192383,-1.0925903,-0.003479004
1601136537114,1127,-0.0043945312,-0.8369751,0.15496826
1601136537114,1128,-0.06762695,-0.7659302,-0.117492676
1601136537114,1129,0.057861328,-1.416565,-0.3213501
1601136537114,1130,-0.059326172,-0.9602661,0.23162842
1601136537114,1131,0.12597656,-1.0376587,-0.14068604
1601136537114,1132,-0.06323242,-0.90045166,0.17108154
1601136537114,1133,0.12597656,-1.0376587,-0.14068604
1601136537115,1134,-0.06762695,-0.7659302,-0.117492676
1601136537115,1135,-0.024902344,-1.2769165,0.034118652
1601136537115,1136,-0.0043945312,-0.8369751,0.15496826
1601136537115,1137,0.4177246,-1.0889282,-0.070617676
1601136537115,1138,0.09790039,-0.7390747,-0.14874268
1601136537115,1139,0.3071289,-0.8352661,-0.054504395
1601136537115,1140,-0.06762695,-0.7659302,-0.117492676
1601136537115,1141,0.18896484,-0.767395,-0.031066895
1601136537115,1142,-0.06323242,-0.90045166,0.17108154
1601136537115,1143,0.12597656,-1.0376587,-0.14068604
1601136537117,1144,0.12597656,-1.0376587,-0.14068604
1601136537123,1145,-0.03515625,-1.2046509,0.22845459
1601136537123,1146,0.12597656,-1.0376587,-0.14068604
1601136537123,1147,-0.0043945312,-0.8369751,0.15496826
1601136537123,1148,0.32250977,-1.1494751,-0.09112549
1601136537123,1149,-0.02368164,-1.0925903,0.026794434
1601136537123,1150,-0.03515625,-1.2046509,0.22845459
1601136537123,1151,-0.024902344,-1.2769165,0.034118652
1601136537123,1152,0.36572266,-0.9458618,-0.15460205
1601136537123,1153,-0.03515625,-1.2046509,0.22845459
1601136537124,1154,0.057861328,-1.416565,-0.3213501
1601136537124,1155,0.28686523,-0.9373169,0.016296387
1601136537124,1156,-0.03515625,-1.2046509,0.22845459
1601136537124,1157,-0.0043945312,-0.8369751,0.15496826
1601136537124,1158,-0.03515625,-1.2046509,0.22845459
1601136537124,1159,0.057861328,-1.416565,-0.3213501
1601136537124,1160,-0.06762695,-0.7659302,-0.117492676
1601136537124,1161,-0.059326172,-0.9602661,0.23162842
1601136537124,1162,-0.0043945312,-0.8369751,0.15496826
1601136537125,1163,-0.059326172,-0.9602661,0.23162842
1601136537151,1164,0.4177246,-1.0889282,-0.070617676
1601136537151,1165,0.30493164,-0.86724854,-0.066223145
1601136537151,1166,-0.0043945312,-0.8369751,0.15496826
1601136537151,1167,0.3071289,-0.8352661,-0.054504395
1601136537151,1168,-0.059326172,-0.9602661,0.23162842
1601136537151,1169,-0.0043945312,-0.8369751,0.15496826
1601136537151,1170,0.36645508,-0.93536377,-0.02960205
1601136537151,1171,0.12597656,-1.0376587,-0.14068604
1601136537151,1172,-0.06323242,-0.90045166,0.17108154
1601136537152,1173,-0.059326172,-0.9602661,0.23162842
1601136537152,1174,-0.06323242,-0.90045166,0.17108154
1601136537152,1175,-0.06762695,-0.7659302,-0.117492676
1601136537152,1176,-0.03515625,-1.2046509,0.22845459
1601136537152,1177,-0.06323242,-0.90045166,0.17108154
1601136537152,1178,-0.024902344,-1.2769165,0.034118652
1601136537152,1179,-0.024902344,-1.2769165,0.034118652
1601136537152,1180,0.31298828,-1.0266724,-0.030822754
1601136537153,1181,0.32250977,-1.1494751,-0.09112549
1601136537153,1182,-0.06323242,-0.90045166,0.17108154
1601136537153,1183,0.29785156,-0.9534302,0.035339355
1601136537153,1184,0.4177246,-1.0889282,-0.070617676
1601136537153,1185,-0.059326172,-0.9602661,0.23162842
1601136537153,1186,0.12597656,-1.0376587,-0.14068604
1601136537153,1187,0.4177246,-1.0889282,-0.070617676
1601136537153,1188,0.36572266,-0.9458618,-0.15460205
1601136537154,1189,0.3071289,-0.8352661,-0.054504395
1601136537154,1190,-0.059326172,-0.9602661,0.23162842
1601136537155,1191,0.32250977,-1.1494751,-0.09112549
1601136537155,1192,-0.024902344,-1.2769165,0.034118652
1601136537155,1193,0.3071289,-0.8352661,-0.054504395
1601136537155,1194,-0.06323242,-0.90045166,0.17108154
1601136537155,1195,-0.03515625,-1.2046509,0.22845459
1601136537155,1196,-0.024902344,-1.2769165,0.034118652
1601136537155,1197,-0.024902344,-1.2769165,0.034118652
1601136537155,1198,-0.06323242,-0.90045166,0.17108154
1601136537155,1199,0.4177246,-1.0889282,-0.070617676
1601136537156,1200,0.36572266,-0.9458618,-0.15460205
1601136537156,1201,0.4177246,-1.0889282,-0.070617676
1601136537156,1202,0.32250977,-1.1494751,-0.09112549
1601136537156,1203,0.28686523,-0.9373169,0.016296387
1601136537156,1204,0.36572266,-0.9458618,-0.15460205
1601136537156,1205,-0.0043945312,-0.8369751,0.15496826
1601136537156,1206,0.4177246,-1.0889282,-0.070617676
1601136537157,1207,-0.0043945312,-0.8369751,0.15496826
1601136537157,1208,0.3071289,-0.8352661,-0.054504395
1601136537157,1209,-0.059326172,-0.9602661,0.23162842
1601136537158,1210,0.28686523,-0.9373169,0.016296387
1601136537158,1211,0.3071289,-0.8352661,-0.054504395
1601136537160,1212,0.30493164,-0.86724854,-0.066223145
1601136537160,1213,0.28686523,-0.9373169,0.016296387
1601136537160,1214,-0.059326172,-0.9602661,0.23162842
1601136537160,1215,-0.024902344,-1.2769165,0.034118652
1601136537160,1216,0.3071289,-0.8352661,-0.054504395
1601136537160,1217,-0.06323242,-0.90045166,0.17108154
1601136537160,1218,0.4177246,-1.0889282,-0.070617676
1601136537160,1219,0.32250977,-1.1494751,-0.09112549
1601136537161,1220,0.30493164,-0.86724854,-0.066223145
1601136537161,1221,0.30493164,-0.86724854,-0.066223145
1601136537165,1222,-0.06323242,-0.90045166,0.17108154
1601136537165,1223,0.32250977,-1.1494751,-0.09112549
1601136537165,1224,0.32250977,-1.1494751,-0.09112549
1601136537165,1225,0.3071289,-0.8352661,-0.054504395
1601136537165,1226,0.36572266,-0.9458618,-0.15460205
1601136537165,1227,0.36572266,-0.9458618,-0.15460205
1601136537166,1228,0.28686523,-0.9373169,0.016296387
1601136537166,1229,0.36645508,-0.93536377,-0.02960205
1601136537166,1230,0.36645508,-0.93536377,-0.02960205
1601136537170,1231,0.36645508,-0.93536377,-0.02960205
1601136537170,1232,0.36572266,-0.9458618,-0.15460205
1601136537170,1233,0.31298828,-1.0266724,-0.030822754
1601136537170,1234,0.32250977,-1.1494751,-0.09112549
1601136537171,1235,0.30493164,-0.86724854,-0.066223145
1601136537171,1236,0.28686523,-0.9373169,0.016296387
1601136537171,1237,-0.024902344,-1.2769165,0.034118652
1601136537171,1238,0.29785156,-0.9534302,0.035339355
1601136537176,1239,0.4177246,-1.0889282,-0.070617676
1601136537176,1240,0.28686523,-0.9373169,0.016296387
1601136537176,1241,0.31298828,-1.0266724,-0.030822754
1601136537176,1242,0.36572266,-0.9458618,-0.15460205
1601136537176,1243,0.36645508,-0.93536377,-0.02960205
1601136537176,1244,-0.024902344,-1.2769165,0.034118652
1601136537176,1245,0.30493164,-0.86724854,-0.066223145
1601136537176,1246,0.28686523,-0.9373169,0.016296387
1601136537177,1247,0.31298828,-1.0266724,-0.030822754
1601136537184,1248,0.30493164,-0.86724854,-0.066223145
1601136537185,1249,0.29785156,-0.9534302,0.035339355
1601136537185,1250,0.31298828,-1.0266724,-0.030822754
1601136537185,1251,0.29785156,-0.9534302,0.035339355
1601136537185,1252,0.30493164,-0.86724854,-0.066223145
1601136537185,1253,0.36645508,-0.93536377,-0.02960205
1601136537192,1254,0.36645508,-0.93536377,-0.02960205
1601136537192,1255,0.4177246,-1.0889282,-0.070617676
1601136537192,1256,0.3071289,-0.8352661,-0.054504395
1601136537192,1257,0.31298828,-1.0266724,-0.030822754
1601136537193,1258,0.31298828,-1.0266724,-0.030822754
1601136537193,1259,0.3071289,-0.8352661,-0.054504395
1601136537193,1260,0.32250977,-1.1494751,-0.09112549
1601136537193,1261,0.36645508,-0.93536377,-0.02960205
1601136537193,1262,0.29785156,-0.9534302,0.035339355
1601136537193,1263,0.29785156,-0.9534302,0.035339355
1601136537193,1264,0.31298828,-1.0266724,-0.030822754
1601136537194,1265,0.32250977,-1.1494751,-0.09112549
1601136537194,1266,0.29785156,-0.9534302,0.035339355
1601136537200,1267,0.36572266,-0.9458618,-0.15460205
1601136537200,1268,0.36572266,-0.9458618,-0.15460205
1601136537200,1269,0.28686523,-0.9373169,0.016296387
1601136537200,1270,0.29785156,-0.9534302,0.035339355
1601136537201,1271,0.30493164,-0.86724854,-0.066223145
1601136537201,1272,0.28686523,-0.9373169,0.016296387
1601136537201,1273,0.36645508,-0.93536377,-0.02960205
1601136537203,1274,0.30493164,-0.86724854,-0.066223145
1601136537205,1275,0.36645508,-0.93536377,-0.02960205
1601136537205,1276,0.31298828,-1.0266724,-0.030822754
1601136537206,1277,0.31298828,-1.0266724,-0.030822754
1601136537206,1278,0.29785156,-0.9534302,0.035339355
1601136537209,1279,0.29785156,-0.9534302,0.035339355
1601136539536,1280,0.2097168,-1.1172485,-0.06304932
1601136539536,1281,0.2097168,-1.1172485,-0.06304932
1601136539543,1282,0.2097168,-1.1172485,-0.06304932
1601136539544,1283,0.2097168,-1.1172485,-0.06304932
1601136539544,1284,-0.13916016,-0.94195557,0.050476074
1601136539545,1285,0.2097168,-1.1172485,-0.06304932
1601136539545,1286,-0.13916016,-0.94195557,0.050476074
1601136539547,1287,-0.13916016,-0.94195557,0.050476074
1601136539547,1288,0.2097168,-1.1172485,-0.06304932
1601136539547,1289,-0.13916016,-0.94195557,0.050476074
1601136539547,1290,0.2097168,-1.1172485,-0.06304932
1601136539547,1291,0.2097168,-1.1172485,-0.06304932
1601136539552,1292,-0.17553711,-1.2161255,-0.06549072
1601136539553,1293,-0.13916016,-0.94195557,0.050476074
1601136539553,1294,0.2097168,-1.1172485,-0.06304932
1601136539553,1295,-0.20922852,-0.9487915,0.053894043
1601136539554,1296,-0.13916016,-0.94195557,0.050476074
1601136539554,1297,-0.17553711,-1.2161255,-0.06549072
1601136539554,1298,-0.13916016,-0.94195557,0.050476074
1601136539554,1299,-0.17553711,-1.2161255,-0.06549072
1601136539554,1300,-0.036865234,-0.9619751,-0.01739502
1601136539554,1301,-0.17553711,-1.2161255,-0.06549072
1601136539554,1302,-0.20922852,-0.9487915,0.053894043
1601136539563,1303,-0.17553711,-1.2161255,-0.06549072
1601136539563,1304,-0.036865234,-0.9619751,-0.01739502
1601136539563,1305,-0.17553711,-1.2161255,-0.06549072
1601136539563,1306,-0.20922852,-0.9487915,0.053894043
1601136539563,1307,-0.17553711,-1.2161255,-0.06549072
1601136539563,1308,-0.20922852,-0.9487915,0.053894043
1601136539564,1309,0.2097168,-1.1172485,-0.06304932
1601136539564,1310,-0.036865234,-0.9619751,-0.01739502
1601136539564,1311,-0.13916016,-0.94195557,0.050476074
1601136539564,1312,-0.12939453,-1.0200806,0.026306152
1601136539564,1313,-0.13916016,-0.94195557,0.050476074
1601136539564,1314,-0.20922852,-0.9487915,0.053894043
1601136539564,1315,-0.12939453,-1.0200806,0.026306152
1601136539565,1316,-0.036865234,-0.9619751,-0.01739502
1601136539565,1317,-0.036865234,-0.9619751,-0.01739502
1601136539565,1318,-0.12939453,-1.0200806,0.026306152
1601136539565,1319,-0.1315918,-0.99224854,0.0927124
1601136539565,1320,-0.20922852,-0.9487915,0.053894043
1601136539578,1321,-0.1315918,-0.99224854,0.0927124
1601136539578,1322,-0.17553711,-1.2161255,-0.06549072
1601136539578,1323,-0.17553711,-1.2161255,-0.06549072
1601136539578,1324,-0.20922852,-0.9487915,0.053894043
1601136539578,1325,-0.12939453,-1.0200806,0.026306152
1601136539578,1326,-0.036865234,-0.9619751,-0.01739502
1601136539578,1327,-0.13916016,-0.94195557,0.050476074
1601136539578,1328,-0.1315918,-0.99224854,0.0927124
1601136539579,1329,-0.15063477,-1.0464478,0.085876465
1601136539579,1330,-0.15063477,-1.0464478,0.085876465
1601136539579,1331,-0.036865234,-0.9619751,-0.01739502
1601136539579,1332,-0.15063477,-1.0464478,0.085876465
1601136539579,1333,-0.12939453,-1.0200806,0.026306152
1601136539579,1334,-0.06542969,-1.0557251,0.11810303
1601136539579,1335,-0.20922852,-0.9487915,0.053894043
1601136539579,1336,-0.119628906,-1.0549927,0.08856201
1601136539580,1337,-0.12939453,-1.0200806,0.026306152
1601136539580,1338,-0.17553711,-1.2161255,-0.06549072
1601136539580,1339,-0.06542969,-1.0557251,0.11810303
1601136539580,1340,-0.12939453,-1.0200806,0.026306152
1601136539581,1341,-0.06542969,-1.0557251,0.11810303
1601136539582,1342,-0.20922852,-0.9487915,0.053894043
1601136539582,1343,-0.036865234,-0.9619751,-0.01739502
1601136539583,1344,-0.1315918,-0.99224854,0.0927124
1601136539583,1345,-0.12939453,-1.0200806,0.026306152
1601136539596,1346,-0.1315918,-0.99224854,0.0927124
1601136539597,1347,-0.119628906,-1.0549927,0.08856201
1601136539597,1348,-0.1315918,-0.99224854,0.0927124
1601136539597,1349,-0.036865234,-0.9619751,-0.01739502
1601136539597,1350,-0.119628906,-1.0549927,0.08856201
1601136539597,1351,-0.1315918,-0.99224854,0.0927124
1601136539597,1352,-0.12939453,-1.0200806,0.026306152
1601136539597,1353,-0.20922852,-0.9487915,0.053894043
1601136539597,1354,-0.1315918,-0.99224854,0.0927124
1601136539597,1355,-0.15063477,-1.0464478,0.085876465
1601136539598,1356,-0.15063477,-1.0464478,0.085876465
1601136539598,1357,-0.036865234,-0.9619751,-0.01739502
1601136539598,1358,-0.07104492,-1.0845337,0.15301514
1601136539598,1359,-0.15063477,-1.0464478,0.085876465
1601136539598,1360,-0.15063477,-1.0464478,0.085876465
1601136539598,1361,-0.15063477,-1.0464478,0.085876465
1601136539598,1362,0.17553711,-1.0869751,0.0018920898
1601136539598,1363,-0.1315918,-0.99224854,0.0927124
1601136539598,1364,-0.06542969,-1.0557251,0.11810303
1601136539598,1365,-0.06542969,-1.0557251,0.11810303
1601136539599,1366,-0.15063477,-1.0464478,0.085876465
1601136539599,1367,-0.119628906,-1.0549927,0.08856201
1601136539599,1368,-0.06542969,-1.0557251,0.11810303
1601136539599,1369,-0.07104492,-1.0845337,0.15301514
1601136539610,1370,-0.06542969,-1.0557251,0.11810303
1601136539611,1371,-0.06542969,-1.0557251,0.11810303
1601136539611,1372,0.19824219,-0.96295166,-0.06451416
1601136539611,1373,-0.119628906,-1.0549927,0.08856201
1601136539611,1374,-0.07104492,-1.0845337,0.15301514
1601136539612,1375,-0.12939453,-1.0200806,0.026306152
1601136539612,1376,0.2915039,-0.7913208,-0.11627197
1601136539612,1377,-0.1315918,-0.99224854,0.0927124
1601136539612,1378,-0.119628906,-1.0549927,0.08856201
1601136539612,1379,0.17553711,-1.0869751,0.0018920898
1601136539613,1380,-0.119628906,-1.0549927,0.08856201
1601136539619,1381,-0.15063477,-1.0464478,0.085876465
1601136539619,1382,-0.07104492,-1.0845337,0.15301514
1601136539619,1383,-0.07104492,-1.0845337,0.15301514
1601136539620,1384,0.17553711,-1.0869751,0.0018920898
1601136539620,1385,-0.07104492,-1.0845337,0.15301514
1601136539620,1386,-0.119628906,-1.0549927,0.08856201
1601136539620,1387,0.19824219,-0.96295166,-0.06451416
1601136539620,1388,-0.07104492,-1.0845337,0.15301514
1601136539620,1389,-0.06542969,-1.0557251,0.11810303
1601136539620,1390,0.17553711,-1.0869751,0.0018920898
1601136539630,1391,0.27441406,-1.3411255,0.051696777
1601136539630,1392,0.17553711,-1.0869751,0.0018920898
1601136539630,1393,0.19824219,-0.96295166,-0.06451416
1601136539630,1394,0.19824219,-0.96295166,-0.06451416
1601136539630,1395,0.17553711,-1.0869751,0.0018920898
1601136539630,1396,0.17553711,-1.0869751,0.0018920898
1601136539631,1397,0.19824219,-0.96295166,-0.06451416
1601136539632,1398,0.2915039,-0.7913208,-0.11627197
1601136539632,1399,-0.06542969,-1.0557251,0.11810303
1601136539632,1400,0.27441406,-1.3411255,0.051696777
1601136539632,1401,0.19824219,-0.96295166,-0.06451416
1601136539632,1402,-0.119628906,-1.0549927,0.08856201
1601136539633,1403,0.12866211,-0.81329346,-0.0068969727
1601136539633,1404,-0.07104492,-1.0845337,0.15301514
1601136539633,1405,0.2915039,-0.7913208,-0.11627197
1601136539633,1406,-0.119628906,-1.0549927,0.08856201
1601136539633,1407,0.27441406,-1.3411255,0.051696777
1601136539633,1408,0.19824219,-0.96295166,-0.06451416
1601136539638,1409,-0.07104492,-1.0845337,0.15301514
1601136539638,1410,0.2915039,-0.7913208,-0.11627197
1601136539639,1411,0.17553711,-1.0869751,0.0018920898
1601136539639,1412,0.12866211,-0.81329346,-0.0068969727
1601136539639,1413,0.27441406,-1.3411255,0.051696777
1601136539639,1414,0.17553711,-1.0869751,0.0018920898
1601136539639,1415,0.12866211,-0.81329346,-0.0068969727
1601136539639,1416,0.23632812,-0.96099854,0.14154053
1601136539639,1417,0.12866211,-0.81329346,-0.0068969727
1601136539639,1418,0.2915039,-0.7913208,-0.11627197
1601136539639,1419,0.2915039,-0.7913208,-0.11627197
1601136539640,1420,0.23632812,-0.96099854,0.14154053
1601136539641,1421,0.119140625,-0.9678345,0.14276123
1601136539643,1422,0.23632812,-0.96099854,0.14154053
1601136539655,1423,0.27441406,-1.3411255,0.051696777
1601136539655,1424,0.23632812,-0.96099854,0.14154053
1601136539655,1425,0.19824219,-0.96295166,-0.06451416
1601136539655,1426,0.27441406,-1.3411255,0.051696777
1601136539655,1427,-0.07104492,-1.0845337,0.15301514
1601136539655,1428,0.2915039,-0.7913208,-0.11627197
1601136539655,1429,0.12866211,-0.81329346,-0.0068969727
1601136539656,1430,0.12695312,-0.9307251,0.10809326
1601136539656,1431,0.27441406,-1.3411255,0.051696777
1601136539656,1432,0.119140625,-0.9678345,0.14276123
1601136539656,1433,0.119140625,-0.9678345,0.14276123
1601136539656,1434,0.12866211,-0.81329346,-0.0068969727
1601136539657,1435,0.119140625,-0.9678345,0.14276123
1601136539657,1436,0.12695312,-0.9307251,0.10809326
1601136539657,1437,0.19824219,-0.96295166,-0.06451416
1601136539657,1438,0.17553711,-1.0869751,0.0018920898
1601136539657,1439,0.23632812,-0.96099854,0.14154053
1601136539658,1440,0.12695312,-0.9307251,0.10809326
1601136539658,1441,0.12695312,-0.9307251,0.10809326
1601136539658,1442,0.119140625,-0.9678345,0.14276123
1601136539658,1443,0.044433594,-1.1624146,0.04437256
1601136539658,1444,0.12695312,-0.9307251,0.10809326
1601136539658,1445,0.2915039,-0.7913208,-0.11627197
1601136539658,1446,0.057617188,-0.86187744,0.036315918
1601136539660,1447,0.2915039,-0.7913208,-0.11627197
1601136539660,1448,0.12866211,-0.81329346,-0.0068969727
1601136539660,1449,0.27441406,-1.3411255,0.051696777
1601136539660,1450,0.044433594,-1.1624146,0.04437256
1601136539660,1451,0.23632812,-0.96099854,0.14154053
1601136539660,1452,0.044433594,-1.1624146,0.04437256
1601136539661,1453,0.12109375,-1.3257446,0.105163574
1601136539663,1454,0.12866211,-0.81329346,-0.0068969727
1601136539663,1455,0.27441406,-1.3411255,0.051696777
1601136539663,1456,0.057617188,-0.86187744,0.036315918
1601136539668,1457,0.119140625,-0.9678345,0.14276123
1601136539671,1458,0.044433594,-1.1624146,0.04437256
1601136539671,1459,0.044433594,-1.1624146,0.04437256
1601136539671,1460,0.12109375,-1.3257446,0.105163574
1601136539671,1461,0.23632812,-0.96099854,0.14154053
1601136539671,1462,0.23632812,-0.96099854,0.14154053
1601136539671,1463,-0.080566406,-0.8826294,0.09100342
1601136539671,1464,0.12866211,-0.81329346,-0.0068969727
1601136539671,1465,0.12695312,-0.9307251,0.10809326
1601136539672,1466,0.044433594,-1.1624146,0.04437256
1601136539672,1467,0.057617188,-0.86187744,0.036315918
1601136539673,1468,0.057617188,-0.86187744,0.036315918
1601136539673,1469,0.16088867,-0.9463501,0.08685303
1601136539673,1470,0.119140625,-0.9678345,0.14276123
1601136539675,1471,0.057617188,-0.86187744,0.036315918
1601136539675,1472,0.057617188,-0.86187744,0.036315918
1601136539676,1473,0.12109375,-1.3257446,0.105163574
1601136539693,1474,0.12109375,-1.3257446,0.105163574
1601136539694,1475,0.19824219,-0.96295166,-0.06451416
1601136539694,1476,-0.05102539,-1.0669556,0.02923584
1601136539694,1477,0.12695312,-0.9307251,0.10809326
1601136539697,1478,0.23632812,-0.96099854,0.14154053
1601136539697,1479,-0.068359375,-0.9661255,0.093688965
1601136539697,1480,0.12109375,-1.3257446,0.105163574
1601136539697,1481,0.12109375,-1.3257446,0.105163574
1601136539697,1482,0.119140625,-0.9678345,0.14276123
1601136539697,1483,0.044433594,-1.1624146,0.04437256
1601136539697,1484,-0.080566406,-0.8826294,0.09100342
1601136539698,1485,-0.080566406,-0.8826294,0.09100342
1601136539698,1486,0.16088867,-0.9463501,0.08685303
1601136539698,1487,-0.080566406,-0.8826294,0.09100342
1601136539698,1488,-0.08911133,-0.9812622,-0.043518066
1601136539698,1489,0.119140625,-0.9678345,0.14276123
1601136539698,1490,-0.080566406,-0.8826294,0.09100342
1601136539698,1491,0.22509766,-1.33844,-0.062072754
1601136539698,1492,0.057617188,-0.86187744,0.036315918
1601136539699,1493,0.12695312,-0.9307251,0.10809326
1601136539699,1494,-0.080566406,-0.8826294,0.09100342
1601136539699,1495,0.12695312,-0.9307251,0.10809326
1601136539699,1496,0.24682617,-0.9558716,0.09954834
1601136539699,1497,-0.05102539,-1.0669556,0.02923584
1601136539700,1498,0.16088867,-0.9463501,0.08685303
1601136539716,1499,0.12109375,-1.3257446,0.105163574
1601136539716,1500,0.2915039,-0.7913208,-0.11627197
1601136539716,1501,0.044433594,-1.1624146,0.04437256
1601136539716,1502,0.16088867,-0.9463501,0.08685303
1601136539716,1503,0.057617188,-0.86187744,0.036315918
1601136539717,1504,0.16088867,-0.9463501,0.08685303
1601136539717,1505,-0.05102539,-1.0669556,0.02923584
1601136539717,1506,-0.068359375,-0.9661255,0.093688965
1601136539717,1507,0.12109375,-1.3257446,0.105163574
1601136539717,1508,-0.05102539,-1.0669556,0.02923584
1601136539717,1509,-0.068359375,-0.9661255,0.093688965
1601136539717,1510,0.27441406,-1.3411255,0.051696777
1601136539717,1511,-0.080566406,-0.8826294,0.09100342
1601136539718,1512,0.40576172,-0.96466064,0.020202637
1601136539718,1513,0.16088867,-0.9463501,0.08685303
1601136539718,1514,-0.08911133,-0.9812622,-0.043518066
1601136539718,1515,0.2043457,-0.8792114,0.049987793
1601136539719,1516,0.044433594,-1.1624146,0.04437256
1601136539720,1517,-0.068359375,-0.9661255,0.093688965
1601136539720,1518,0.16088867,-0.9463501,0.08685303
1601136539720,1519,-0.05102539,-1.0669556,0.02923584
1601136539720,1520,0.057617188,-0.86187744,0.036315918
1601136539720,1521,-0.05102539,-1.0669556,0.02923584
1601136539720,1522,0.12109375,-1.3257446,0.105163574
1601136539720,1523,-0.05102539,-1.0669556,0.02923584
1601136539720,1524,-0.080566406,-0.8826294,0.09100342
1601136539720,1525,0.22509766,-1.33844,-0.062072754
1601136539720,1526,0.16088867,-0.9463501,0.08685303
1601136539721,1527,-0.08911133,-0.9812622,-0.043518066
1601136539724,1528,-0.080566406,-0.8826294,0.09100342
1601136539725,1529,-0.068359375,-0.9661255,0.093688965
1601136539725,1530,-0.068359375,-0.9661255,0.093688965
1601136539751,1531,0.16088867,-0.9463501,0.08685303
1601136539751,1532,-0.08911133,-0.9812622,-0.043518066
1601136539751,1533,-0.05102539,-1.0669556,0.02923584
1601136539751,1534,0.24682617,-0.9558716,0.09954834
1601136539751,1535,0.22509766,-1.33844,-0.062072754
1601136539752,1536,-0.08911133,-0.9812622,-0.043518066
1601136539752,1537,0.24682617,-0.9558716,0.09954834
1601136539752,1538,-0.068359375,-0.9661255,0.093688965
1601136539752,1539,-0.068359375,-0.9661255,0.093688965
1601136539752,1540,0.21801758,-1.1296997,0.08148193
1601136539753,1541,-0.08911133,-0.9812622,-0.043518066
1601136539753,1542,0.12866211,-0.81329346,-0.0068969727
1601136539753,1543,0.22509766,-1.33844,-0.062072754
1601136539754,1544,-0.08911133,-0.9812622,-0.043518066
1601136539754,1545,0.40576172,-0.96466064,0.020202637
1601136539754,1546,0.24682617,-0.9558716,0.09954834
1601136539754,1547,0.22509766,-1.33844,-0.062072754
1601136539754,1548,0.2043457,-0.8792114,0.049987793
1601136539754,1549,-0.05102539,-1.0669556,0.02923584
1601136539754,1550,0.21801758,-1.1296997,0.08148193
1601136539754,1551,0.23632812,-0.96099854,0.14154053
1601136539755,1552,0.22509766,-1.33844,-0.062072754
1601136539755,1553,0.22509766,-1.33844,-0.062072754
1601136539755,1554,0.24682617,-0.9558716,0.09954834
1601136539755,1555,0.24682617,-0.9558716,0.09954834
1601136539755,1556,0.40576172,-0.96466064,0.020202637
1601136539755,1557,-0.08911133,-0.9812622,-0.043518066
1601136539755,1558,0.2043457,-0.8792114,0.049987793
1601136539755,1559,0.40576172,-0.96466064,0.020202637
1601136539755,1560,0.21801758,-1.1296997,0.08148193
1601136539755,1561,0.119140625,-0.9678345,0.14276123
1601136539756,1562,0.40576172,-0.96466064,0.020202637
1601136539771,1563,0.40576172,-0.96466064,0.020202637
1601136539772,1564,0.24682617,-0.9558716,0.09954834
1601136539774,1565,0.22509766,-1.33844,-0.062072754
1601136539774,1566,0.40576172,-0.96466064,0.020202637
1601136539774,1567,0.2043457,-0.8792114,0.049987793
1601136539774,1568,0.12695312,-0.9307251,0.10809326
1601136539775,1569,0.2043457,-0.8792114,0.049987793
1601136539775,1570,0.2043457,-0.8792114,0.049987793
1601136539776,1571,-0.068359375,-0.9661255,0.093688965
1601136539776,1572,0.21801758,-1.1296997,0.08148193
1601136539776,1573,0.2043457,-0.8792114,0.049987793
1601136539776,1574,0.044433594,-1.1624146,0.04437256
1601136539776,1575,0.21801758,-1.1296997,0.08148193
1601136539776,1576,0.057617188,-0.86187744,0.036315918
1601136539776,1577,0.21801758,-1.1296997,0.08148193
1601136539776,1578,-0.08911133,-0.9812622,-0.043518066
1601136539776,1579,0.21801758,-1.1296997,0.08148193
1601136539776,1580,0.24682617,-0.9558716,0.09954834
1601136539777,1581,0.22509766,-1.33844,-0.062072754
1601136539777,1582,0.40576172,-0.96466064,0.020202637
1601136539780,1583,0.24682617,-0.9558716,0.09954834
1601136539783,1584,0.2043457,-0.8792114,0.049987793
1601136539783,1585,0.12109375,-1.3257446,0.105163574
1601136539784,1586,0.40576172,-0.96466064,0.020202637
1601136539784,1587,-0.080566406,-0.8826294,0.09100342
1601136539784,1588,0.21801758,-1.1296997,0.08148193
1601136539784,1589,0.2043457,-0.8792114,0.049987793
1601136539788,1590,0.21801758,-1.1296997,0.08148193
1601136539789,1591,0.16088867,-0.9463501,0.08685303
1601136539789,1592,-0.05102539,-1.0669556,0.02923584
1601136539790,1593,-0.068359375,-0.9661255,0.093688965
1601136539791,1594,-0.08911133,-0.9812622,-0.043518066
1601136539794,1595,0.22509766,-1.33844,-0.062072754
1601136539794,1596,0.24682617,-0.9558716,0.09954834
1601136539794,1597,0.40576172,-0.96466064,0.020202637
1601136539796,1598,0.2043457,-0.8792114,0.049987793
1601136539797,1599,0.21801758,-1.1296997,0.08148193
1601136542071,1600,0.19384766,-0.89801025,0.030212402
1601136542071,1601,0.19384766,-0.89801025,0.030212402
1601136542072,1602,0.19384766,-0.89801025,0.030212402
1601136542072,1603,0.19384766,-0.89801025,0.030212402
1601136542090,1604,0.30566406,-0.96881104,0.10809326
1601136542090,1605,0.19384766,-0.89801025,0.030212402
1601136542090,1606,0.19384766,-0.89801025,0.030212402
1601136542090,1607,0.30566406,-0.96881104,0.10809326
1601136542090,1608,0.19384766,-0.89801025,0.030212402
1601136542091,1609,0.19384766,-0.89801025,0.030212402
1601136542091,1610,0.30566406,-0.96881104,0.10809326
1601136542092,1611,0.30566406,-0.96881104,0.10809326
1601136542092,1612,0.19384766,-0.89801025,0.030212402
1601136542092,1613,0.38305664,-0.90948486,0.06072998
1601136542092,1614,0.30566406,-0.96881104,0.10809326
1601136542092,1615,0.30566406,-0.96881104,0.10809326
1601136542092,1616,0.30566406,-0.96881104,0.10809326
1601136542092,1617,0.38305664,-0.90948486,0.06072998
1601136542093,1618,0.30566406,-0.96881104,0.10809326
1601136542093,1619,0.19384766,-0.89801025,0.030212402
1601136542093,1620,0.38305664,-0.90948486,0.06072998
1601136542093,1621,0.30566406,-0.96881104,0.10809326
1601136542093,1622,0.2915039,-0.91070557,0.049743652
1601136542093,1623,0.30566406,-0.96881104,0.10809326
1601136542093,1624,0.38305664,-0.90948486,0.06072998
1601136542093,1625,0.38305664,-0.90948486,0.06072998
1601136542093,1626,0.38305664,-0.90948486,0.06072998
1601136542093,1627,0.2915039,-0.91070557,0.049743652
1601136542093,1628,0.2915039,-0.91070557,0.049743652
1601136542097,1629,0.38305664,-0.90948486,0.06072998
1601136542097,1630,0.27685547,-0.9951782,0.11077881
1601136542097,1631,0.2915039,-0.91070557,0.049743652
1601136542097,1632,0.2915039,-0.91070557,0.049743652
1601136542098,1633,0.27685547,-0.9951782,0.11077881
1601136542098,1634,0.27685547,-0.9951782,0.11077881
1601136542098,1635,0.2915039,-0.91070557,0.049743652
1601136542098,1636,0.2915039,-0.91070557,0.049743652
1601136542098,1637,0.27685547,-0.9951782,0.11077881
1601136542099,1638,0.38305664,-0.90948486,0.06072998
1601136542100,1639,0.27685547,-0.9951782,0.11077881
1601136542100,1640,0.21826172,-0.9788208,0.097595215
1601136542106,1641,0.21826172,-0.9788208,0.097595215
1601136542106,1642,0.27685547,-0.9951782,0.11077881
1601136542106,1643,0.21826172,-0.9788208,0.097595215
1601136542106,1644,0.21826172,-0.9788208,0.097595215
1601136542106,1645,0.38305664,-0.90948486,0.06072998
1601136542106,1646,0.033203125,-1.0115356,0.1486206
1601136542106,1647,0.2915039,-0.91070557,0.049743652
1601136542107,1648,0.21826172,-0.9788208,0.097595215
1601136542107,1649,0.27685547,-0.9951782,0.11077881
1601136542108,1650,0.21826172,-0.9788208,0.097595215
1601136542114,1651,0.033203125,-1.0115356,0.1486206
1601136542114,1652,0.21826172,-0.9788208,0.097595215
1601136542115,1653,-0.2163086,-1.1814575,0.1005249
1601136542115,1654,0.033203125,-1.0115356,0.1486206
1601136542115,1655,0.2915039,-0.91070557,0.049743652
1601136542115,1656,0.033203125,-1.0115356,0.1486206
1601136542115,1657,0.27685547,-0.9951782,0.11077881
1601136542115,1658,0.033203125,-1.0115356,0.1486206
1601136542115,1659,0.033203125,-1.0115356,0.1486206
1601136542123,1660,-0.2163086,-1.1814575,0.1005249
1601136542123,1661,0.38305664,-0.90948486,0.06072998
1601136542125,1662,-0.2163086,-1.1814575,0.1005249
1601136542125,1663,-0.22021484,-1.1367798,0.07147217
1601136542125,1664,0.27685547,-0.9951782,0.11077881
1601136542125,1665,-0.22021484,-1.1367798,0.07147217
1601136542125,1666,0.21826172,-0.9788208,0.097595215
1601136542125,1667,-0.25317383,-0.8694458,-0.144104
1601136542126,1668,0.21826172,-0.9788208,0.097595215
1601136542126,1669,-0.25317383,-0.8694458,-0.144104
1601136542126,1670,0.033203125,-1.0115356,0.1486206
1601136542126,1671,-0.2163086,-1.1814575,0.1005249
1601136542126,1672,-0.2163086,-1.1814575,0.1005249
1601136542126,1673,-0.22021484,-1.1367798,0.07147217
1601136542126,1674,-0.22021484,-1.1367798,0.07147217
1601136542126,1675,0.033203125,-1.0115356,0.1486206
1601136542126,1676,-0.33862305,-0.9883423,-0.10455322
1601136542126,1677,0.2915039,-0.91070557,0.049743652
1601136542128,1678,0.27685547,-0.9951782,0.11077881
1601136542147,1679,0.033203125,-1.0115356,0.1486206
1601136542148,1680,-0.2163086,-1.1814575,0.1005249
1601136542148,1681,-0.25317383,-0.8694458,-0.144104
1601136542148,1682,-0.2163086,-1.1814575,0.1005249
1601136542148,1683,-0.2163086,-1.1814575,0.1005249
1601136542148,1684,-0.24584961,-1.0264282,0.04876709
1601136542148,1685,-0.22021484,-1.1367798,0.07147217
1601136542148,1686,-0.33862305,-0.9883423,-0.10455322
1601136542148,1687,-0.25317383,-0.8694458,-0.144104
1601136542148,1688,-0.2163086,-1.1814575,0.1005249
1601136542149,1689,-0.22021484,-1.1367798,0.07147217
1601136542149,1690,-0.22021484,-1.1367798,0.07147217
1601136542149,1691,0.21826172,-0.9788208,0.097595215
1601136542149,1692,-0.25317383,-0.8694458,-0.144104
1601136542150,1693,-0.22021484,-1.1367798,0.07147217
1601136542150,1694,0.033203125,-1.0115356,0.1486206
1601136542151,1695,-0.22021484,-1.1367798,0.07147217
1601136542152,1696,-0.33862305,-0.9883423,-0.10455322
1601136542152,1697,-0.25317383,-0.8694458,-0.144104
1601136542152,1698,-0.24584961,-1.0264282,0.04876709
1601136542152,1699,-0.33862305,-0.9883423,-0.10455322
1601136542153,1700,-0.25317383,-0.8694458,-0.144104
1601136542153,1701,-0.17138672,-1.0286255,0.016052246
1601136542153,1702,-0.33862305,-0.9883423,-0.10455322
1601136542153,1703,-0.24584961,-1.0264282,0.04876709
1601136542154,1704,-0.17138672,-1.0286255,0.016052246
1601136542155,1705,-0.25317383,-0.8694458,-0.144104
1601136542155,1706,-0.24584961,-1.0264282,0.04876709
1601136542155,1707,-0.24584961,-1.0264282,0.04876709
1601136542157,1708,-0.25317383,-0.8694458,-0.144104
1601136542158,1709,-0.18579102,-1.0203247,-0.07647705
1601136542159,1710,-0.2163086,-1.1814575,0.1005249
1601136542170,1711,-0.18579102,-1.0203247,-0.07647705
1601136542170,1712,-0.17138672,-1.0286255,0.016052246
1601136542170,1713,-0.2746582,-1.0645142,-0.042541504
1601136542170,1714,-0.33862305,-0.9883423,-0.10455322
1601136542171,1715,-0.33862305,-0.9883423,-0.10455322
1601136542171,1716,-0.17138672,-1.0286255,0.016052246
1601136542171,1717,-0.33862305,-0.9883423,-0.10455322
1601136542171,1718,-0.22021484,-1.1367798,0.07147217
1601136542184,1719,-0.33862305,-0.9883423,-0.10455322
1601136542184,1720,-0.18579102,-1.0203247,-0.07647705
1601136542184,1721,-0.20166016,-1.0418091,-0.02935791
1601136542184,1722,-0.24584961,-1.0264282,0.04876709
1601136542184,1723,-0.2746582,-1.0645142,-0.042541504
1601136542184,1724,-0.2746582,-1.0645142,-0.042541504
1601136542184,1725,-0.25317383,-0.8694458,-0.144104
1601136542184,1726,-0.25683594,-1.0801392,0.0018920898
1601136542184,1727,-0.33862305,-0.9883423,-0.10455322
1601136542185,1728,-0.24584961,-1.0264282,0.04876709
1601136542185,1729,-0.21191406,-1.1126099,0.027282715
1601136542185,1730,-0.17138672,-1.0286255,0.016052246
1601136542185,1731,-0.17138672,-1.0286255,0.016052246
1601136542185,1732,-0.18579102,-1.0203247,-0.07647705
1601136542185,1733,-0.24584961,-1.0264282,0.04876709
1601136542185,1734,-0.20166016,-1.0418091,-0.02935791
1601136542185,1735,-0.2746582,-1.0645142,-0.042541504
1601136542185,1736,-0.18579102,-1.0203247,-0.07647705
1601136542185,1737,-0.25683594,-1.0801392,0.0018920898
1601136542185,1738,-0.24584961,-1.0264282,0.04876709
1601136542185,1739,-0.17138672,-1.0286255,0.016052246
1601136542185,1740,-0.21191406,-1.1126099,0.027282715
1601136542186,1741,-0.17138672,-1.0286255,0.016052246
1601136542186,1742,-0.18579102,-1.0203247,-0.07647705
1601136542195,1743,-0.17138672,-1.0286255,0.016052246
1601136542195,1744,-0.20166016,-1.0418091,-0.02935791
1601136542195,1745,-0.13476562,-0.9644165,-0.062072754
1601136542195,1746,-0.18579102,-1.0203247,-0.07647705
1601136542202,1747,-0.20166016,-1.0418091,-0.02935791
1601136542202,1748,-0.24584961,-1.0264282,0.04876709
1601136542202,1749,-0.18579102,-1.0203247,-0.07647705
1601136542202,1750,-0.18579102,-1.0203247,-0.07647705
1601136542202,1751,-0.2746582,-1.0645142,-0.042541504
1601136542202,1752,-0.13476562,-0.9644165,-0.062072754
1601136542202,1753,-0.2746582,-1.0645142,-0.042541504
1601136542202,1754,-0.2746582,-1.0645142,-0.042541504
1601136542202,1755,-0.20166016,-1.0418091,-0.02935791
1601136542202,1756,-0.25683594,-1.0801392,0.0018920898
1601136542202,1757,-0.2746582,-1.0645142,-0.042541504
1601136542202,1758,-0.2746582,-1.0645142,-0.042541504
1601136542202,1759,-0.068603516,-0.9170532,-0.05987549
1601136542202,1760,-0.20166016,-1.0418091,-0.02935791
1601136542202,1761,-0.20166016,-1.0418091,-0.02935791
1601136542203,1762,-0.25683594,-1.0801392,0.0018920898
1601136542204,1763,-0.068603516,-0.9170532,-0.05987549
1601136542204,1764,-0.25683594,-1.0801392,0.0018920898
1601136542204,1765,-0.20166016,-1.0418091,-0.02935791
1601136542204,1766,-0.21191406,-1.1126099,0.027282715
1601136542205,1767,-0.25683594,-1.0801392,0.0018920898
1601136542205,1768,-0.20166016,-1.0418091,-0.02935791
1601136542205,1769,-0.1899414,-1.048645,0.036071777
1601136542205,1770,-0.25683594,-1.0801392,0.0018920898
1601136542205,1771,-0.25683594,-1.0801392,0.0018920898
1601136542205,1772,-0.21191406,-1.1126099,0.027282715
1601136542205,1773,-0.1899414,-1.048645,0.036071777
1601136542205,1774,-0.17138672,-1.0286255,0.016052246
1601136542216,1775,-0.21191406,-1.1126099,0.027282715
1601136542216,1776,-0.21191406,-1.1126099,0.027282715
1601136542216,1777,-0.13476562,-0.9644165,-0.062072754
1601136542216,1778,-0.13476562,-0.9644165,-0.062072754
1601136542216,1779,0.10888672,-1.0679321,-0.10772705
1601136542216,1780,-0.068603516,-0.9170532,-0.05987549
1601136542216,1781,-0.068603516,-0.9170532,-0.05987549
1601136542216,1782,-0.13476562,-0.9644165,-0.062072754
1601136542216,1783,-0.25683594,-1.0801392,0.0018920898
1601136542216,1784,-0.1899414,-1.048645,0.036071777
1601136542216,1785,-0.1899414,-1.048645,0.036071777
1601136542217,1786,0.4038086,-1.0877075,0.0045776367
1601136542217,1787,0.10888672,-1.0679321,-0.10772705
1601136542217,1788,-0.13476562,-0.9644165,-0.062072754
1601136542217,1789,-0.21191406,-1.1126099,0.027282715
1601136542217,1790,-0.068603516,-0.9170532,-0.05987549
1601136542217,1791,0.10888672,-1.0679321,-0.10772705
1601136542217,1792,-0.1899414,-1.048645,0.036071777
1601136542217,1793,-0.068603516,-0.9170532,-0.05987549
1601136542217,1794,0.4038086,-1.0877075,0.0045776367
1601136542217,1795,-0.21191406,-1.1126099,0.027282715
1601136542218,1796,0.4038086,-1.0877075,0.0045776367
1601136542218,1797,0.43920898,-0.65509033,-0.13043213
1601136542218,1798,0.43920898,-0.65509033,-0.13043213
1601136542218,1799,0.10888672,-1.0679321,-0.10772705
1601136542218,1800,-0.13476562,-0.9644165,-0.062072754
1601136542218,1801,-0.21191406,-1.1126099,0.027282715
1601136542218,1802,0.4038086,-1.0877075,0.0045776367
1601136542218,1803,-0.1899414,-1.048645,0.036071777
1601136542218,1804,0.43920898,-0.65509033,-0.13043213
1601136542218,1805,0.10888672,-1.0679321,-0.10772705
1601136542218,1806,0.3947754,-1.1497192,0.06903076
1601136542218,1807,0.3947754,-1.1497192,0.06903076
1601136542218,1808,0.44677734,-0.72540283,-0.16680908
1601136542218,1809,0.43920898,-0.65509033,-0.13043213
1601136542219,1810,0.35180664,-0.991272,-0.08892822
1601136542219,1811,-0.13476562,-0.9644165,-0.062072754
1601136542219,1812,0.3330078,-0.96295166,-0.20147705
1601136542219,1813,0.10888672,-1.0679321,-0.10772705
1601136542219,1814,0.4038086,-1.0877075,0.0045776367
1601136542223,1815,0.44677734,-0.72540283,-0.16680908
1601136542223,1816,0.43920898,-0.65509033,-0.13043213
1601136542223,1817,0.3947754,-1.1497192,0.06903076
1601136542224,1818,0.3947754,-1.1497192,0.06903076
1601136542224,1819,-0.068603516,-0.9170532,-0.05987549
1601136542224,1820,0.25048828,-0.8789673,-0.2053833
1601136542224,1821,0.44677734,-0.72540283,-0.16680908
1601136542224,1822,0.3947754,-1.1497192,0.06903076
1601136542225,1823,0.4038086,-1.0877075,0.0045776367
1601136542226,1824,-0.13476562,-0.9644165,-0.062072754
1601136542227,1825,-0.18579102,-1.0203247,-0.07647705
1601136542227,1826,-0.2746582,-1.0645142,-0.042541504
1601136542228,1827,0.35180664,-0.991272,-0.08892822
1601136542229,1828,0.44677734,-0.72540283,-0.16680908
1601136542229,1829,0.43920898,-0.65509033,-0.13043213
1601136542230,1830,0.3330078,-0.96295166,-0.20147705
1601136542230,1831,0.44677734,-0.72540283,-0.16680908
1601136542240,1832,0.23925781,-0.9522095,-0.3106079
1601136542240,1833,-0.1899414,-1.048645,0.036071777
1601136542241,1834,-0.068603516,-0.9170532,-0.05987549
1601136542241,1835,-0.068603516,-0.9170532,-0.05987549
1601136542241,1836,0.35180664,-0.991272,-0.08892822
1601136542241,1837,-0.1899414,-1.048645,0.036071777
1601136542241,1838,-0.1899414,-1.048645,0.036071777
1601136542241,1839,0.25048828,-0.8789673,-0.2053833
1601136542241,1840,0.3330078,-0.96295166,-0.20147705
1601136542242,1841,0.35180664,-0.991272,-0.08892822
1601136542242,1842,0.10888672,-1.0679321,-0.10772705
1601136542242,1843,0.42895508,-1.069397,-0.13458252
1601136542242,1844,0.10888672,-1.0679321,-0.10772705
1601136542242,1845,0.3947754,-1.1497192,0.06903076
1601136542242,1846,0.35180664,-0.991272,-0.08892822
1601136542242,1847,0.36767578,-1.1265259,0.081970215
1601136542242,1848,0.25048828,-0.8789673,-0.2053833
1601136542243,1849,0.44677734,-0.72540283,-0.16680908
1601136542243,1850,0.3330078,-0.96295166,-0.20147705
1601136542244,1851,0.3330078,-0.96295166,-0.20147705
1601136542246,1852,0.4038086,-1.0877075,0.0045776367
1601136542249,1853,0.23925781,-0.9522095,-0.3106079
1601136542255,1854,0.25048828,-0.8789673,-0.2053833
1601136542255,1855,-0.20166016,-1.0418091,-0.02935791
1601136542256,1856,0.23925781,-0.9522095,-0.3106079
1601136542258,1857,-0.25683594,-1.0801392,0.0018920898
1601136542258,1858,0.25048828,-0.8789673,-0.2053833
1601136542258,1859,-0.21191406,-1.1126099,0.027282715
1601136542258,1860,0.10888672,-1.0679321,-0.10772705
1601136542258,1861,0.42895508,-1.069397,-0.13458252
1601136542258,1862,0.23925781,-0.9522095,-0.3106079
1601136542260,1863,0.35180664,-0.991272,-0.08892822
1601136542269,1864,0.42895508,-1.069397,-0.13458252
1601136542270,1865,0.43920898,-0.65509033,-0.13043213
1601136542270,1866,-0.13476562,-0.9644165,-0.062072754
1601136542270,1867,0.3947754,-1.1497192,0.06903076
1601136542270,1868,0.23925781,-0.9522095,-0.3106079
1601136542270,1869,0.44677734,-0.72540283,-0.16680908
1601136542270,1870,0.35180664,-0.991272,-0.08892822
1601136542270,1871,0.4038086,-1.0877075,0.0045776367
1601136542270,1872,0.3330078,-0.96295166,-0.20147705
1601136542271,1873,0.25048828,-0.8789673,-0.2053833
1601136542283,1874,-0.068603516,-0.9170532,-0.05987549
1601136542284,1875,0.42895508,-1.069397,-0.13458252
1601136542284,1876,0.42895508,-1.069397,-0.13458252
1601136542284,1877,-0.1899414,-1.048645,0.036071777
1601136542284,1878,0.3330078,-0.96295166,-0.20147705
1601136542284,1879,0.23925781,-0.9522095,-0.3106079
1601136542284,1880,0.36767578,-1.1265259,0.081970215
1601136542284,1881,0.36767578,-1.1265259,0.081970215
1601136542284,1882,0.25048828,-0.8789673,-0.2053833
1601136542284,1883,0.36767578,-1.1265259,0.081970215
1601136542284,1884,0.36767578,-1.1265259,0.081970215
1601136542285,1885,0.43920898,-0.65509033,-0.13043213
1601136542285,1886,0.10888672,-1.0679321,-0.10772705
1601136542285,1887,0.4038086,-1.0877075,0.0045776367
1601136542285,1888,0.3947754,-1.1497192,0.06903076
1601136542289,1889,0.42895508,-1.069397,-0.13458252
1601136542290,1890,0.4038086,-1.0877075,0.0045776367
1601136542290,1891,0.36767578,-1.1265259,0.081970215
1601136542290,1892,0.23925781,-0.9522095,-0.3106079
1601136542291,1893,0.43920898,-0.65509033,-0.13043213
1601136542296,1894,0.42895508,-1.069397,-0.13458252
1601136542297,1895,0.44677734,-0.72540283,-0.16680908
1601136542298,1896,0.3947754,-1.1497192,0.06903076
1601136542298,1897,0.43920898,-0.65509033,-0.13043213
1601136542301,1898,0.36767578,-1.1265259,0.081970215
1601136542301,1899,0.3947754,-1.1497192,0.06903076
1601136542301,1900,0.44677734,-0.72540283,-0.16680908
1601136542302,1901,0.44677734,-0.72540283,-0.16680908
1601136542304,1902,0.35180664,-0.991272,-0.08892822
1601136542304,1903,0.35180664,-0.991272,-0.08892822
1601136542304,1904,0.3330078,-0.96295166,-0.20147705
1601136542308,1905,0.25048828,-0.8789673,-0.2053833
1601136542308,1906,0.35180664,-0.991272,-0.08892822
1601136542308,1907,0.3330078,-0.96295166,-0.20147705
1601136542308,1908,0.23925781,-0.9522095,-0.3106079
1601136542309,1909,0.25048828,-0.8789673,-0.2053833
1601136542310,1910,0.3330078,-0.96295166,-0.20147705
1601136542311,1911,0.23925781,-0.9522095,-0.3106079
1601136542311,1912,0.42895508,-1.069397,-0.13458252
1601136542315,1913,0.42895508,-1.069397,-0.13458252
1601136542315,1914,0.25048828,-0.8789673,-0.2053833
1601136542315,1915,0.36767578,-1.1265259,0.081970215
1601136542317,1916,0.23925781,-0.9522095,-0.3106079
1601136542317,1917,0.36767578,-1.1265259,0.081970215
1601136542321,1918,0.42895508,-1.069397,-0.13458252
1601136542322,1919,0.36767578,-1.1265259,0.081970215
1601136544405,1920,0.27563477,-0.97320557,-0.13482666
1601136544410,1921,0.27563477,-0.97320557,-0.13482666
1601136544411,1922,0.27563477,-0.97320557,-0.13482666
1601136544418,1923,-0.0024414062,-1.18219,-0.19390869
1601136544418,1924,-0.0024414062,-1.18219,-0.19390869
1601136544419,1925,-0.0024414062,-1.18219,-0.19390869
1601136544419,1926,0.27563477,-0.97320557,-0.13482666
1601136544420,1927,0.27563477,-0.97320557,-0.13482666
1601136544420,1928,0.27563477,-0.97320557,-0.13482666
1601136544421,1929,0.27563477,-0.97320557,-0.13482666
1601136544421,1930,-0.0024414062,-1.18219,-0.19390869
1601136544421,1931,-0.0024414062,-1.18219,-0.19390869
1601136544422,1932,0.27563477,-0.97320557,-0.13482666
1601136544422,1933,0.1315918,-0.9702759,-0.010070801
1601136544422,1934,0.1315918,-0.9702759,-0.010070801
1601136544422,1935,0.27563477,-0.97320557,-0.13482666
1601136544423,1936,-0.0024414062,-1.18219,-0.19390869
1601136544423,1937,0.1315918,-0.9702759,-0.010070801
1601136544423,1938,0.1315918,-0.9702759,-0.010070801
1601136544424,1939,-0.0024414062,-1.18219,-0.19390869
1601136544424,1940,0.1315918,-0.9702759,-0.010070801
1601136544433,1941,-0.09814453,-0.94903564,0.06732178
1601136544433,1942,-0.09814453,-0.94903564,0.06732178
1601136544433,1943,0.111083984,-0.925354,0.008483887
1601136544433,1944,-0.0024414062,-1.18219,-0.19390869
1601136544434,1945,-0.10546875,-1.0547485,-0.023254395
1601136544434,1946,0.1315918,-0.9702759,-0.010070801
1601136544434,1947,0.27563477,-0.97320557,-0.13482666
1601136544434,1948,-0.09814453,-0.94903564,0.06732178
1601136544434,1949,-0.09814453,-0.94903564,0.06732178
1601136544434,1950,0.111083984,-0.925354,0.008483887
1601136544434,1951,0.111083984,-0.925354,0.008483887
1601136544434,1952,-0.09814453,-0.94903564,0.06732178
1601136544434,1953,-0.10546875,-1.0547485,-0.023254395
1601136544434,1954,-0.10546875,-1.0547485,-0.023254395
1601136544434,1955,0.10498047,-1.0737915,-0.11407471
1601136544434,1956,0.1315918,-0.9702759,-0.010070801
1601136544434,1957,4.8828125E-4,-1.0484009,-0.21221924
1601136544435,1958,0.10498047,-1.0737915,-0.11407471
1601136544444,1959,4.8828125E-4,-1.0484009,-0.21221924
1601136544445,1960,0.10498047,-1.0737915,-0.11407471
1601136544446,1961,0.1315918,-0.9702759,-0.010070801
1601136544446,1962,4.8828125E-4,-1.0484009,-0.21221924
1601136544446,1963,0.111083984,-0.925354,0.008483887
1601136544446,1964,0.111083984,-0.925354,0.008483887
1601136544446,1965,-0.09814453,-0.94903564,0.06732178
1601136544446,1966,-0.16210938,-1.0718384,-0.39678955
1601136544446,1967,-0.10546875,-1.0547485,-0.023254395
1601136544448,1968,-0.0024414062,-1.18219,-0.19390869
1601136544449,1969,-0.10546875,-1.0547485,-0.023254395
1601136544449,1970,0.1315918,-0.9702759,-0.010070801
1601136544449,1971,-0.09814453,-0.94903564,0.06732178
1601136544449,1972,-0.16210938,-1.0718384,-0.39678955
1601136544449,1973,-0.09814453,-0.94903564,0.06732178
1601136544449,1974,-0.0024414062,-1.18219,-0.19390869
1601136544449,1975,0.28808594,-0.94415283,-0.22735596
1601136544449,1976,0.111083984,-0.925354,0.008483887
1601136544449,1977,0.111083984,-0.925354,0.008483887
1601136544449,1978,0.10595703,-1.0813599,-0.26324463
1601136544449,1979,-0.16210938,-1.0718384,-0.39678955
1601136544449,1980,0.111083984,-0.925354,0.008483887
1601136544450,1981,-0.09814453,-0.94903564,0.06732178
1601136544451,1982,-0.10546875,-1.0547485,-0.023254395
1601136544456,1983,-0.10546875,-1.0547485,-0.023254395
1601136544457,1984,0.24926758,-1.1611938,0.09295654
1601136544457,1985,0.10498047,-1.0737915,-0.11407471
1601136544458,1986,0.28808594,-0.94415283,-0.22735596
1601136544458,1987,4.8828125E-4,-1.0484009,-0.21221924
1601136544458,1988,0.1315918,-0.9702759,-0.010070801
1601136544458,1989,-0.16210938,-1.0718384,-0.39678955
1601136544458,1990,0.10595703,-1.0813599,-0.26324463
1601136544458,1991,0.10498047,-1.0737915,-0.11407471
1601136544459,1992,0.28808594,-0.94415283,-0.22735596
1601136544461,1993,-0.10546875,-1.0547485,-0.023254395
1601136544461,1994,0.111083984,-0.925354,0.008483887
1601136544464,1995,0.10498047,-1.0737915,-0.11407471
1601136544464,1996,-0.09814453,-0.94903564,0.06732178
1601136544464,1997,0.1381836,-0.8809204,-0.015686035
1601136544465,1998,0.24926758,-1.1611938,0.09295654
1601136544465,1999,4.8828125E-4,-1.0484009,-0.21221924
1601136544465,2000,0.2709961,-0.89727783,0.05267334
1601136544465,2001,-0.16210938,-1.0718384,-0.39678955
1601136544466,2002,0.1381836,-0.8809204,-0.015686035
1601136544477,2003,0.28808594,-0.94415283,-0.22735596
1601136544477,2004,4.8828125E-4,-1.0484009,-0.21221924
1601136544477,2005,-0.10546875,-1.0547485,-0.023254395
1601136544477,2006,0.10498047,-1.0737915,-0.11407471
1601136544477,2007,0.10498047,-1.0737915,-0.11407471
1601136544477,2008,0.10498047,-1.0737915,-0.11407471
1601136544477,2009,0.10595703,-1.0813599,-0.26324463
1601136544477,2010,0.29467773,-0.9302368,0.07293701
1601136544477,2011,0.28808594,-0.94415283,-0.22735596
1601136544477,2012,0.2709961,-0.89727783,0.05267334
1601136544477,2013,0.111083984,-0.925354,0.008483887
1601136544478,2014,-0.10546875,-1.0547485,-0.023254395
1601136544479,2015,4.8828125E-4,-1.0484009,-0.21221924
1601136544480,2016,0.24926758,-1.1611938,0.09295654
1601136544485,2017,0.29174805,-0.9727173,0.07513428
1601136544485,2018,0.29467773,-0.9302368,0.07293701
1601136544498,2019,0.10595703,-1.0813599,-0.26324463
1601136544499,2020,0.10498047,-1.0737915,-0.11407471
1601136544499,2021,4.8828125E-4,-1.0484009,-0.21221924
1601136544499,2022,0.24926758,-1.1611938,0.09295654
1601136544501,2023,-0.16210938,-1.0718384,-0.39678955
1601136544501,2024,0.10595703,-1.0813599,-0.26324463
1601136544501,2025,0.1381836,-0.8809204,-0.015686035
1601136544501,2026,-0.16210938,-1.0718384,-0.39678955
1601136544501,2027,0.08666992,-1.1328735,-0.10699463
1601136544502,2028,-0.16210938,-1.0718384,-0.39678955
1601136544502,2029,0.29174805,-0.9727173,0.07513428
1601136544502,2030,-0.3713379,-1.0877075,0.094177246
1601136544502,2031,4.8828125E-4,-1.0484009,-0.21221924
1601136544502,2032,-0.31591797,-1.1257935,-0.089904785
1601136544502,2033,0.28808594,-0.94415283,-0.22735596
1601136544502,2034,0.1381836,-0.8809204,-0.015686035
1601136544502,2035,-0.16210938,-1.0718384,-0.39678955
1601136544502,2036,0.24926758,-1.1611938,0.09295654
1601136544503,2037,0.2709961,-0.89727783,0.05267334
1601136544503,2038,0.28808594,-0.94415283,-0.22735596
1601136544503,2039,0.08666992,-1.1328735,-0.10699463
1601136544503,2040,0.1381836,-0.8809204,-0.015686035
1601136544503,2041,0.28808594,-0.94415283,-0.22735596
1601136544503,2042,-0.14770508,-0.8694458,0.054382324
1601136544504,2043,0.10595703,-1.0813599,-0.26324463
1601136544504,2044,0.10595703,-1.0813599,-0.26324463
1601136544504,2045,0.2709961,-0.89727783,0.05267334
1601136544508,2046,0.29467773,-0.9302368,0.07293701
1601136544508,2047,4.8828125E-4,-1.0484009,-0.21221924
1601136544508,2048,0.10595703,-1.0813599,-0.26324463
1601136544508,2049,-0.3713379,-1.0877075,0.094177246
1601136544508,2050,0.2709961,-0.89727783,0.05267334
1601136544508,2051,0.24926758,-1.1611938,0.09295654
1601136544508,2052,0.24926758,-1.1611938,0.09295654
1601136544508,2053,-0.16210938,-1.0718384,-0.39678955
1601136544508,2054,0.29467773,-0.9302368,0.07293701
1601136544508,2055,-0.31591797,-1.1257935,-0.089904785
1601136544509,2056,0.28808594,-0.94415283,-0.22735596
1601136544515,2057,0.29174805,-0.9727173,0.07513428
1601136544516,2058,0.1381836,-0.8809204,-0.015686035
1601136544516,2059,0.29467773,-0.9302368,0.07293701
1601136544516,2060,-0.14770508,-0.8694458,0.054382324
1601136544516,2061,0.1381836,-0.8809204,-0.015686035
1601136544516,2062,-0.14575195,-0.9920044,-0.049621582
1601136544516,2063,0.2709961,-0.89727783,0.05267334
1601136544517,2064,0.29174805,-0.9727173,0.07513428
1601136544530,2065,0.2709961,-0.89727783,0.05267334
1601136544530,2066,0.08666992,-1.1328735,-0.10699463
1601136544531,2067,0.08666992,-1.1328735,-0.10699463
1601136544531,2068,0.29467773,-0.9302368,0.07293701
1601136544531,2069,-0.14575195,-0.9920044,-0.049621582
1601136544531,2070,0.24926758,-1.1611938,0.09295654
1601136544531,2071,-0.26635742,-0.9656372,-0.06329346
1601136544531,2072,0.29467773,-0.9302368,0.07293701
1601136544531,2073,0.10595703,-1.0813599,-0.26324463
1601136544532,2074,0.29174805,-0.9727173,0.07513428
1601136544532,2075,-0.3713379,-1.0877075,0.094177246
1601136544532,2076,0.24926758,-1.1611938,0.09295654
1601136544532,2077,-0.3713379,-1.0877075,0.094177246
1601136544532,2078,0.29174805,-0.9727173,0.07513428
1601136544532,2079,0.28808594,-0.94415283,-0.22735596
1601136544532,2080,-0.31591797,-1.1257935,-0.089904785
1601136544532,2081,0.08666992,-1.1328735,-0.10699463
1601136544532,2082,0.1381836,-0.8809204,-0.015686035
1601136544532,2083,0.08666992,-1.1328735,-0.10699463
1601136544532,2084,-0.19067383,-1.0784302,-0.031311035
1601136544532,2085,0.10595703,-1.0813599,-0.26324463
1601136544532,2086,-0.31591797,-1.1257935,-0.089904785
1601136544533,2087,0.1381836,-0.8809204,-0.015686035
1601136544533,2088,-0.14770508,-0.8694458,0.054382324
1601136544533,2089,-0.1459961,-1.0664673,-0.035461426
1601136544533,2090,-0.3713379,-1.0877075,0.094177246
1601136544552,2091,-0.3713379,-1.0877075,0.094177246
1601136544553,2092,-0.26635742,-0.9656372,-0.06329346
1601136544553,2093,0.2709961,-0.89727783,0.05267334
1601136544553,2094,-0.31591797,-1.1257935,-0.089904785
1601136544553,2095,0.29467773,-0.9302368,0.07293701
1601136544553,2096,-0.14770508,-0.8694458,0.054382324
1601136544553,2097,0.29174805,-0.9727173,0.07513428
1601136544553,2098,-0.21557617,-1.0576782,0.022888184
1601136544554,2099,-0.31591797,-1.1257935,-0.089904785
1601136544554,2100,-0.14575195,-0.9920044,-0.049621582
1601136544554,2101,0.08666992,-1.1328735,-0.10699463
1601136544554,2102,-0.14770508,-0.8694458,0.054382324
1601136544554,2103,-0.1538086,-0.9956665,-0.02935791
1601136544554,2104,-0.19067383,-1.0784302,-0.031311035
1601136544554,2105,0.115722656,-1.0081177,-0.11383057
1601136544554,2106,0.2709961,-0.89727783,0.05267334
1601136544554,2107,-0.14575195,-0.9920044,-0.049621582
1601136544554,2108,-0.26635742,-0.9656372,-0.06329346
1601136544554,2109,-0.14770508,-0.8694458,0.054382324
1601136544555,2110,0.24926758,-1.1611938,0.09295654
1601136544555,2111,0.29174805,-0.9727173,0.07513428
1601136544555,2112,-0.3713379,-1.0877075,0.094177246
1601136544555,2113,-0.26635742,-0.9656372,-0.06329346
1601136544555,2114,0.1381836,-0.8809204,-0.015686035
1601136544555,2115,0.3059082,-1.1272583,-0.19537354
1601136544555,2116,0.29467773,-0.9302368,0.07293701
1601136544555,2117,-0.1459961,-1.0664673,-0.035461426
1601136544555,2118,-0.14575195,-0.9920044,-0.049621582
1601136544555,2119,0.08666992,-1.1328735,-0.10699463
1601136544555,2120,0.29174805,-0.9727173,0.07513428
1601136544567,2121,-0.31591797,-1.1257935,-0.089904785
1601136544567,2122,-0.19067383,-1.0784302,-0.031311035
1601136544567,2123,-0.19067383,-1.0784302,-0.031311035
1601136544567,2124,0.2709961,-0.89727783,0.05267334
1601136544567,2125,-0.14770508,-0.8694458,0.054382324
1601136544568,2126,0.13549805,-1.1514282,-0.25616455
1601136544568,2127,-0.14575195,-0.9920044,-0.049621582
1601136544568,2128,0.08666992,-1.1328735,-0.10699463
1601136544568,2129,-0.3713379,-1.0877075,0.094177246
1601136544568,2130,-0.26635742,-0.9656372,-0.06329346
1601136544568,2131,0.19042969,-1.0161743,-0.05718994
1601136544568,2132,-0.1459961,-1.0664673,-0.035461426
1601136544568,2133,-0.14575195,-0.9920044,-0.049621582
1601136544568,2134,0.29467773,-0.9302368,0.07293701
1601136544569,2135,0.044677734,-0.89630127,-0.069885254
1601136544569,2136,-0.21557617,-1.0576782,0.022888184
1601136544569,2137,-0.26635742,-0.9656372,-0.06329346
1601136544580,2138,-0.3713379,-1.0877075,0.094177246
1601136544580,2139,-0.19067383,-1.0784302,-0.031311035
1601136544580,2140,-0.31591797,-1.1257935,-0.089904785
1601136544581,2141,-0.1459961,-1.0664673,-0.035461426
1601136544581,2142,-0.1459961,-1.0664673,-0.035461426
1601136544581,2143,-0.14770508,-0.8694458,0.054382324
1601136544581,2144,0.29174805,-0.9727173,0.07513428
1601136544581,2145,-0.21557617,-1.0576782,0.022888184
1601136544581,2146,-0.1538086,-0.9956665,-0.02935791
1601136544581,2147,-0.19067383,-1.0784302,-0.031311035
1601136544582,2148,0.115722656,-1.0081177,-0.11383057
1601136544582,2149,-0.31591797,-1.1257935,-0.089904785
1601136544582,2150,0.3059082,-1.1272583,-0.19537354
1601136544582,2151,-0.21557617,-1.0576782,0.022888184
1601136544582,2152,-0.21557617,-1.0576782,0.022888184
1601136544582,2153,-0.26635742,-0.9656372,-0.06329346
1601136544582,2154,-0.14575195,-0.9920044,-0.049621582
1601136544582,2155,-0.1538086,-0.9956665,-0.02935791
1601136544582,2156,-0.19067383,-1.0784302,-0.031311035
1601136544584,2157,-0.1459961,-1.0664673,-0.035461426
1601136544594,2158,-0.14770508,-0.8694458,0.054382324
1601136544594,2159,0.022949219,-0.86846924,0.051452637
1601136544594,2160,-0.1538086,-0.9956665,-0.02935791
1601136544594,2161,0.08666992,-1.1328735,-0.10699463
1601136544595,2162,0.115722656,-1.0081177,-0.11383057
1601136544595,2163,-0.1538086,-0.9956665,-0.02935791
1601136544595,2164,0.115722656,-1.0081177,-0.11383057
1601136544596,2165,-0.1459961,-1.0664673,-0.035461426
1601136544596,2166,0.3059082,-1.1272583,-0.19537354
1601136544596,2167,0.115722656,-1.0081177,-0.11383057
1601136544596,2168,-0.21557617,-1.0576782,0.022888184
1601136544597,2169,0.3059082,-1.1272583,-0.19537354
1601136544599,2170,-0.3713379,-1.0877075,0.094177246
1601136544603,2171,-0.14575195,-0.9920044,-0.049621582
1601136544609,2172,-0.26635742,-0.9656372,-0.06329346
1601136544609,2173,-0.26635742,-0.9656372,-0.06329346
1601136544609,2174,-0.1538086,-0.9956665,-0.02935791
1601136544609,2175,0.3059082,-1.1272583,-0.19537354
1601136544609,2176,0.13549805,-1.1514282,-0.25616455
1601136544609,2177,0.13549805,-1.1514282,-0.25616455
1601136544609,2178,-0.31591797,-1.1257935,-0.089904785
1601136544610,2179,-0.21557617,-1.0576782,0.022888184
1601136544610,2180,-0.14770508,-0.8694458,0.054382324
1601136544616,2181,-0.19067383,-1.0784302,-0.031311035
1601136544616,2182,-0.19067383,-1.0784302,-0.031311035
1601136544616,2183,0.115722656,-1.0081177,-0.11383057
1601136544617,2184,-0.1459961,-1.0664673,-0.035461426
1601136544618,2185,0.13549805,-1.1514282,-0.25616455
1601136544618,2186,0.13549805,-1.1514282,-0.25616455
1601136544618,2187,0.19042969,-1.0161743,-0.05718994
1601136544618,2188,-0.14575195,-0.9920044,-0.049621582
1601136544618,2189,-0.1538086,-0.9956665,-0.02935791
1601136544618,2190,0.044677734,-0.89630127,-0.069885254
1601136544625,2191,0.19042969,-1.0161743,-0.05718994
1601136544626,2192,0.3059082,-1.1272583,-0.19537354
1601136544626,2193,-0.21557617,-1.0576782,0.022888184
1601136544626,2194,0.19042969,-1.0161743,-0.05718994
1601136544627,2195,-0.26635742,-0.9656372,-0.06329346
1601136544627,2196,0.19042969,-1.0161743,-0.05718994
1601136544627,2197,0.044677734,-0.89630127,-0.069885254
1601136544627,2198,0.115722656,-1.0081177,-0.11383057
1601136544627,2199,0.044677734,-0.89630127,-0.069885254
1601136544627,2200,-0.19067383,-1.0784302,-0.031311035
1601136544627,2201,0.3059082,-1.1272583,-0.19537354
1601136544627,2202,0.044677734,-0.89630127,-0.069885254
1601136544627,2203,-0.1459961,-1.0664673,-0.035461426
1601136544627,2204,-0.1459961,-1.0664673,-0.035461426
1601136544628,2205,0.022949219,-0.86846924,0.051452637
1601136544628,2206,0.022949219,-0.86846924,0.051452637
1601136544628,2207,0.022949219,-0.86846924,0.051452637
1601136544640,2208,0.13549805,-1.1514282,-0.25616455
1601136544640,2209,0.13549805,-1.1514282,-0.25616455
1601136544641,2210,-0.21557617,-1.0576782,0.022888184
1601136544641,2211,-0.21557617,-1.0576782,0.022888184
1601136544642,2212,0.022949219,-0.86846924,0.051452637
1601136544643,2213,-0.1538086,-0.9956665,-0.02935791
1601136544643,2214,0.115722656,-1.0081177,-0.11383057
1601136544643,2215,-0.1538086,-0.9956665,-0.02935791
1601136544643,2216,0.19042969,-1.0161743,-0.05718994
1601136544643,2217,-0.1538086,-0.9956665,-0.02935791
1601136544643,2218,0.115722656,-1.0081177,-0.11383057
1601136544643,2219,0.044677734,-0.89630127,-0.069885254
1601136544643,2220,0.3059082,-1.1272583,-0.19537354
1601136544643,2221,0.022949219,-0.86846924,0.051452637
1601136544644,2222,0.3059082,-1.1272583,-0.19537354
1601136544645,2223,0.115722656,-1.0081177,-0.11383057
1601136544645,2224,0.19042969,-1.0161743,-0.05718994
1601136544647,2225,0.13549805,-1.1514282,-0.25616455
1601136544647,2226,0.3059082,-1.1272583,-0.19537354
1601136544647,2227,0.044677734,-0.89630127,-0.069885254
1601136544647,2228,0.13549805,-1.1514282,-0.25616455
1601136544647,2229,0.022949219,-0.86846924,0.051452637
1601136544647,2230,0.19042969,-1.0161743,-0.05718994
1601136544647,2231,0.19042969,-1.0161743,-0.05718994
1601136544647,2232,0.044677734,-0.89630127,-0.069885254
1601136544652,2233,0.13549805,-1.1514282,-0.25616455
1601136544653,2234,0.022949219,-0.86846924,0.051452637
1601136544653,2235,0.19042969,-1.0161743,-0.05718994
1601136544653,2236,0.044677734,-0.89630127,-0.069885254
1601136544653,2237,0.044677734,-0.89630127,-0.069885254
1601136544654,2238,0.022949219,-0.86846924,0.051452637
1601136544655,2239,0.022949219,-0.86846924,0.051452637
1601136546898,2240,0.11401367,-0.76397705,-0.05645752
1601136546898,2241,0.11401367,-0.76397705,-0.05645752
1601136546898,2242,0.11401367,-0.76397705,-0.05645752
1601136546898,2243,0.11401367,-0.76397705,-0.05645752
1601136546898,2244,0.11401367,-0.76397705,-0.05645752
1601136546898,2245,0.11401367,-0.76397705,-0.05645752
1601136546898,2246,0.088134766,-1.3076782,-0.4048462
1601136546900,2247,0.088134766,-1.3076782,-0.4048462
1601136546912,2248,0.11401367,-0.76397705,-0.05645752
1601136546913,2249,0.088134766,-1.3076782,-0.4048462
1601136546913,2250,0.11401367,-0.76397705,-0.05645752
1601136546913,2251,0.088134766,-1.3076782,-0.4048462
1601136546913,2252,0.088134766,-1.3076782,-0.4048462
1601136546913,2253,0.11401367,-0.76397705,-0.05645752
1601136546913,2254,0.05883789,-1.3450317,-0.03717041
1601136546913,2255,0.05883789,-1.3450317,-0.03717041
1601136546913,2256,0.08081055,-1.0855103,-0.0051879883
1601136546913,2257,0.05883789,-1.3450317,-0.03717041
1601136546913,2258,0.08081055,-1.0855103,-0.0051879883
1601136546914,2259,0.088134766,-1.3076782,-0.4048462
1601136546914,2260,0.05883789,-1.3450317,-0.03717041
1601136546914,2261,0.088134766,-1.3076782,-0.4048462
1601136546914,2262,0.08081055,-1.0855103,-0.0051879883
1601136546914,2263,0.05883789,-1.3450317,-0.03717041
