# Sensor position: Front pocket (trouser)
# Sensor side: Right
# Activity type: Movement
# Activity code: 9
# Subject id: s1735229
timestamp,seq,accel_x,accel_y,accel_z
1601132875019,0,-0.026123047,0.9503784,0.13519287
1601132875019,1,-0.026123047,0.9503784,0.13519287
1601132875019,2,-0.026123047,0.9503784,0.13519287
1601132875019,3,-0.075927734,0.824646,0.15838623
1601132875019,4,0.026611328,0.9335327,0.14837646
1601132875020,5,-0.0703125,0.9347534,0.2694702
1601132875020,6,-0.012939453,0.80389404,0.090026855
1601132875020,7,-0.076660156,0.77508545,0.15887451
1601132875020,8,-0.076660156,0.77508545,0.15887451
1601132875020,9,0.0036621094,1.0158081,0.18719482
1601132875020,10,-0.012939453,0.80389404,0.090026855
1601132875020,11,0.026611328,0.9335327,0.14837646
1601132875020,12,0.026611328,0.9335327,0.14837646
1601132875020,13,0.019042969,0.9503784,0.19036865
1601132875020,14,0.019042969,0.9503784,0.19036865
1601132875020,15,-0.0703125,0.9347534,0.2694702
1601132875020,16,-0.11645508,1.076355,0.23260498
1601132875020,17,-0.076660156,0.77508545,0.15887451
1601132875020,18,-0.012939453,0.80389404,0.090026855
1601132875021,19,-0.13793945,0.9645386,0.1696167
1601132875021,20,-0.11645508,1.076355,0.23260498
1601132875021,21,0.0036621094,1.0158081,0.18719482
1601132875021,22,0.019042969,0.9503784,0.19036865
1601132875021,23,-0.076660156,0.77508545,0.15887451
1601132875021,24,-0.0703125,0.9347534,0.2694702
1601132875021,25,-0.0703125,0.9347534,0.2694702
1601132875021,26,-0.012939453,0.80389404,0.090026855
1601132875021,27,-0.076660156,0.77508545,0.15887451
1601132875021,28,-0.075927734,0.824646,0.15838623
1601132875033,29,0.0036621094,1.0158081,0.18719482
1601132875033,30,-0.075927734,0.824646,0.15838623
1601132875033,31,-0.012939453,0.80389404,0.090026855
1601132875033,32,-0.11645508,1.076355,0.23260498
1601132875033,33,-0.13793945,0.9645386,0.1696167
1601132875033,34,-0.076660156,0.77508545,0.15887451
1601132875034,35,0.0036621094,1.0158081,0.18719482
1601132875034,36,-0.012939453,0.80389404,0.090026855
1601132875034,37,-0.012939453,0.80389404,0.090026855
1601132875034,38,-0.13793945,0.9645386,0.1696167
1601132875034,39,0.0036621094,1.0158081,0.18719482
1601132875034,40,-0.012939453,0.80389404,0.090026855
1601132875035,41,-0.0847168,0.87371826,0.003112793
1601132875035,42,-0.0847168,0.87371826,0.003112793
1601132875035,43,-0.0847168,0.87371826,0.003112793
1601132875035,44,0.0036621094,1.0158081,0.18719482
1601132875036,45,-0.075927734,0.824646,0.15838623
1601132875036,46,-0.14648438,0.9376831,-0.02520752
1601132875036,47,0.0036621094,1.0158081,0.18719482
1601132875036,48,-0.11645508,1.076355,0.23260498
1601132875047,49,-0.11645508,1.076355,0.23260498
1601132875047,50,-0.075927734,0.824646,0.15838623
1601132875047,51,-0.14648438,0.9376831,-0.02520752
1601132875047,52,-0.13793945,0.9645386,0.1696167
1601132875047,53,-0.2631836,0.95062256,-0.06011963
1601132875047,54,-0.11645508,1.076355,0.23260498
1601132875048,55,-0.11645508,1.076355,0.23260498
1601132875048,56,-0.14648438,0.9376831,-0.02520752
1601132875048,57,-0.075927734,0.824646,0.15838623
1601132875048,58,-0.13793945,0.9645386,0.1696167
1601132875048,59,-0.2631836,0.95062256,-0.06011963
1601132875048,60,0.0036621094,1.0158081,0.18719482
1601132875048,61,-0.075927734,0.824646,0.15838623
1601132875049,62,-0.2631836,0.95062256,-0.06011963
1601132875049,63,-0.27612305,0.9838257,-0.017150879
1601132875049,64,-0.11645508,1.076355,0.23260498
1601132875057,65,-0.13793945,0.9645386,0.1696167
1601132875057,66,-0.075927734,0.824646,0.15838623
1601132875057,67,-0.27612305,0.9838257,-0.017150879
1601132875057,68,-0.0847168,0.87371826,0.003112793
1601132875057,69,-0.13793945,0.9645386,0.1696167
1601132875057,70,-0.27612305,0.9838257,-0.017150879
1601132875058,71,-0.11645508,1.076355,0.23260498
1601132875058,72,-0.075927734,0.824646,0.15838623
1601132875058,73,-0.26000977,0.9491577,-0.039611816
1601132875058,74,-0.0847168,0.87371826,0.003112793
1601132875066,75,-0.0847168,0.87371826,0.003112793
1601132875069,76,-0.13793945,0.9645386,0.1696167
1601132875069,77,-0.26000977,0.9491577,-0.039611816
1601132875069,78,-0.14648438,0.9376831,-0.02520752
1601132875071,79,-0.0847168,0.87371826,0.003112793
1601132875071,80,-0.0847168,0.87371826,0.003112793
1601132875071,81,-0.075927734,0.824646,0.15838623
1601132875072,82,-0.13793945,0.9645386,0.1696167
1601132875073,83,-0.14648438,0.9376831,-0.02520752
1601132875073,84,-0.14648438,0.9376831,-0.02520752
1601132875073,85,-0.14648438,0.9376831,-0.02520752
1601132875073,86,-0.2631836,0.95062256,-0.06011963
1601132875073,87,-0.14648438,0.9376831,-0.02520752
1601132875073,88,-0.1706543,0.9293823,-0.08502197
1601132875073,89,-0.27612305,0.9838257,-0.017150879
1601132875073,90,-0.1706543,0.9293823,-0.08502197
1601132875073,91,-0.13793945,0.9645386,0.1696167
1601132875074,92,-0.2631836,0.95062256,-0.06011963
1601132875074,93,-0.0847168,0.87371826,0.003112793
1601132875074,94,-0.0847168,0.87371826,0.003112793
1601132875074,95,-0.14648438,0.9376831,-0.02520752
1601132875075,96,-0.14648438,0.9376831,-0.02520752
1601132875075,97,-0.26000977,0.9491577,-0.039611816
1601132875075,98,-0.2631836,0.95062256,-0.06011963
1601132875075,99,-0.28735352,0.918396,-0.09844971
1601132875088,100,-0.2631836,0.95062256,-0.06011963
1601132875089,101,-0.27612305,0.9838257,-0.017150879
1601132875089,102,-0.2631836,0.95062256,-0.06011963
1601132875089,103,-0.28735352,0.918396,-0.09844971
1601132875089,104,-0.26000977,0.9491577,-0.039611816
1601132875089,105,-0.26000977,0.9491577,-0.039611816
1601132875089,106,-0.1706543,0.9293823,-0.08502197
1601132875089,107,-0.27612305,0.9838257,-0.017150879
1601132875089,108,-0.28735352,0.918396,-0.09844971
1601132875089,109,-0.26342773,0.9179077,-0.06500244
1601132875089,110,-0.26000977,0.9491577,-0.039611816
1601132875089,111,-0.1706543,0.9293823,-0.08502197
1601132875089,112,-0.26342773,0.9179077,-0.06500244
1601132875089,113,-0.24169922,0.9196167,-0.08013916
1601132875089,114,-0.27612305,0.9838257,-0.017150879
1601132875090,115,-0.27612305,0.9838257,-0.017150879
1601132875090,116,-0.2631836,0.95062256,-0.06011963
1601132875090,117,-0.26000977,0.9491577,-0.039611816
1601132875090,118,-0.26342773,0.9179077,-0.06500244
1601132875090,119,-0.2631836,0.95062256,-0.06011963
1601132875090,120,-0.1706543,0.9293823,-0.08502197
1601132875090,121,-0.26000977,0.9491577,-0.039611816
1601132875090,122,-0.24169922,0.9196167,-0.08013916
1601132875090,123,-0.28735352,0.918396,-0.09844971
1601132875090,124,-0.26123047,0.9213257,-0.0947876
1601132875090,125,-0.1706543,0.9293823,-0.08502197
1601132875090,126,-0.1706543,0.9293823,-0.08502197
1601132875091,127,-0.24169922,0.9196167,-0.08013916
1601132875091,128,-0.28735352,0.918396,-0.09844971
1601132875091,129,-0.27612305,0.9838257,-0.017150879
1601132875091,130,-0.28735352,0.918396,-0.09844971
1601132875091,131,-0.1706543,0.9293823,-0.08502197
1601132875091,132,-0.26123047,0.9213257,-0.0947876
1601132875091,133,-0.26342773,0.9179077,-0.06500244
1601132875091,134,-0.27246094,0.93743896,-0.08917236
1601132875093,135,-0.28735352,0.918396,-0.09844971
1601132875094,136,-0.26000977,0.9491577,-0.039611816
1601132875097,137,-0.24169922,0.9196167,-0.08013916
1601132875098,138,-0.1706543,0.9293823,-0.08502197
1601132875098,139,-0.26123047,0.9213257,-0.0947876
1601132875098,140,-0.26342773,0.9179077,-0.06500244
1601132875098,141,-0.27246094,0.93743896,-0.08917236
1601132875098,142,-0.26123047,0.9213257,-0.0947876
1601132875098,143,-0.26342773,0.9179077,-0.06500244
1601132875098,144,-0.26342773,0.9179077,-0.06500244
1601132875098,145,-0.27246094,0.93743896,-0.08917236
1601132875101,146,-0.27612305,0.9838257,-0.017150879
1601132875101,147,-0.28735352,0.918396,-0.09844971
1601132875101,148,-0.24169922,0.9196167,-0.08013916
1601132875101,149,-0.27246094,0.93743896,-0.08917236
1601132875101,150,-0.24169922,0.9196167,-0.08013916
1601132875101,151,-0.28735352,0.918396,-0.09844971
1601132875105,152,-0.26000977,0.9491577,-0.039611816
1601132875105,153,-0.26342773,0.9179077,-0.06500244
1601132875105,154,-0.26123047,0.9213257,-0.0947876
1601132875106,155,-0.24169922,0.9196167,-0.08013916
1601132875106,156,-0.26342773,0.9179077,-0.06500244
1601132875106,157,-0.26123047,0.9213257,-0.0947876
1601132875106,158,-0.1706543,0.9293823,-0.08502197
1601132875106,159,-0.27246094,0.93743896,-0.08917236
1601132875106,160,-0.26123047,0.9213257,-0.0947876
1601132875116,161,-0.24169922,0.9196167,-0.08013916
1601132875116,162,-0.27246094,0.93743896,-0.08917236
1601132875116,163,-0.28735352,0.918396,-0.09844971
1601132875116,164,-0.24169922,0.9196167,-0.08013916
1601132875117,165,-0.26123047,0.9213257,-0.0947876
1601132875117,166,-0.27246094,0.93743896,-0.08917236
1601132875117,167,-0.26123047,0.9213257,-0.0947876
1601132875117,168,-0.26342773,0.9179077,-0.06500244
1601132875118,169,-0.27246094,0.93743896,-0.08917236
1601132875118,170,-0.27246094,0.93743896,-0.08917236
1601132875118,171,-0.24169922,0.9196167,-0.08013916
1601132875121,172,-0.26123047,0.9213257,-0.0947876
1601132875121,173,-0.27246094,0.93743896,-0.08917236
1601132877434,174,-0.25585938,0.9821167,-0.20367432
1601132877434,175,-0.25585938,0.9821167,-0.20367432
1601132877434,176,-0.25585938,0.9821167,-0.20367432
1601132877434,177,-0.25585938,0.9821167,-0.20367432
1601132877434,178,-0.25585938,0.9821167,-0.20367432
1601132877438,179,-0.25585938,0.9821167,-0.20367432
1601132877442,180,-0.11791992,0.94158936,-0.32940674
1601132877442,181,-0.11791992,0.94158936,-0.32940674
1601132877443,182,-0.25585938,0.9821167,-0.20367432
1601132877443,183,-0.25585938,0.9821167,-0.20367432
1601132877443,184,-0.11791992,0.94158936,-0.32940674
1601132877444,185,0.078125,1.0236206,0.027526855
1601132877445,186,-0.25585938,0.9821167,-0.20367432
1601132877445,187,-0.11791992,0.94158936,-0.32940674
1601132877450,188,0.078125,1.0236206,0.027526855
1601132877450,189,-0.11791992,0.94158936,-0.32940674
1601132877450,190,0.078125,1.0236206,0.027526855
1601132877450,191,-0.11791992,0.94158936,-0.32940674
1601132877450,192,-0.011474609,1.1310425,-0.014221191
1601132877451,193,0.078125,1.0236206,0.027526855
1601132877451,194,-0.011474609,1.1310425,-0.014221191
1601132877451,195,-0.11791992,0.94158936,-0.32940674
1601132877463,196,-0.11791992,0.94158936,-0.32940674
1601132877464,197,-0.011474609,1.1310425,-0.014221191
1601132877464,198,-0.25585938,0.9821167,-0.20367432
1601132877464,199,0.078125,1.0236206,0.027526855
1601132877464,200,-0.11791992,0.94158936,-0.32940674
1601132877464,201,0.078125,1.0236206,0.027526855
1601132877464,202,0.078125,1.0236206,0.027526855
1601132877464,203,-0.13574219,0.838562,-0.037902832
1601132877465,204,0.078125,1.0236206,0.027526855
1601132877465,205,-0.011474609,1.1310425,-0.014221191
1601132877465,206,-0.011474609,1.1310425,-0.014221191
1601132877465,207,-0.13574219,0.838562,-0.037902832
1601132877465,208,-0.11791992,0.94158936,-0.32940674
1601132877466,209,-0.011474609,1.1310425,-0.014221191
1601132877466,210,0.078125,1.0236206,0.027526855
1601132877466,211,0.078125,1.0236206,0.027526855
1601132877466,212,-0.13574219,0.838562,-0.037902832
1601132877466,213,-0.011474609,1.1310425,-0.014221191
1601132877466,214,-0.011474609,1.1310425,-0.014221191
1601132877467,215,-0.13574219,0.838562,-0.037902832
1601132877467,216,0.03930664,0.82147217,-0.043029785
1601132877467,217,-0.13574219,0.838562,-0.037902832
1601132877467,218,-0.011474609,1.1310425,-0.014221191
1601132877467,219,-0.011474609,1.1310425,-0.014221191
1601132877468,220,-0.13574219,0.838562,-0.037902832
1601132877479,221,0.03930664,0.82147217,-0.043029785
1601132877479,222,-0.13574219,0.838562,-0.037902832
1601132877479,223,-0.13574219,0.838562,-0.037902832
1601132877479,224,0.11767578,0.8187866,0.002380371
1601132877479,225,-0.13574219,0.838562,-0.037902832
1601132877479,226,0.03930664,0.82147217,-0.043029785
1601132877480,227,0.12475586,0.8251343,-0.027160645
1601132877480,228,0.03930664,0.82147217,-0.043029785
1601132877480,229,0.03930664,0.82147217,-0.043029785
1601132877480,230,0.11767578,0.8187866,0.002380371
1601132877480,231,0.11767578,0.8187866,0.002380371
1601132877480,232,0.03930664,0.82147217,-0.043029785
1601132877480,233,0.11767578,0.8187866,0.002380371
1601132877480,234,0.12475586,0.8251343,-0.027160645
1601132877480,235,0.03930664,0.82147217,-0.043029785
1601132877480,236,0.12475586,0.8251343,-0.027160645
1601132877480,237,-0.03491211,1.1085815,0.17279053
1601132877481,238,-0.03491211,1.1085815,0.17279053
1601132877481,239,-0.03491211,1.1085815,0.17279053
1601132877481,240,0.11767578,0.8187866,0.002380371
1601132877481,241,0.03930664,0.82147217,-0.043029785
1601132877481,242,0.115722656,0.8942261,-0.1194458
1601132877481,243,0.12475586,0.8251343,-0.027160645
1601132877481,244,0.11767578,0.8187866,0.002380371
1601132877481,245,-0.03491211,1.1085815,0.17279053
1601132877482,246,0.115722656,0.8942261,-0.1194458
1601132877482,247,0.12475586,0.8251343,-0.027160645
1601132877482,248,0.115722656,0.8942261,-0.1194458
1601132877484,249,-0.040039062,1.0477905,-0.03375244
1601132877484,250,0.11767578,0.8187866,0.002380371
1601132877489,251,0.115722656,0.8942261,-0.1194458
1601132877489,252,-0.08911133,0.9616089,0.039733887
1601132877490,253,-0.040039062,1.0477905,-0.03375244
1601132877490,254,-0.040039062,1.0477905,-0.03375244
1601132877490,255,-0.03491211,1.1085815,0.17279053
1601132877490,256,0.03930664,0.82147217,-0.043029785
1601132877490,257,-0.040039062,1.0477905,-0.03375244
1601132877490,258,0.11767578,0.8187866,0.002380371
1601132877490,259,0.12475586,0.8251343,-0.027160645
1601132877490,260,0.11767578,0.8187866,0.002380371
1601132877496,261,-0.13574219,0.838562,-0.037902832
1601132877496,262,-0.08911133,0.9616089,0.039733887
1601132877496,263,-0.111083984,0.91619873,0.046569824
1601132877496,264,-0.08911133,0.9616089,0.039733887
1601132877497,265,0.03930664,0.82147217,-0.043029785
1601132877497,266,-0.111083984,0.91619873,0.046569824
1601132877497,267,-0.125,0.9713745,0.13543701
1601132877497,268,0.12475586,0.8251343,-0.027160645
1601132877497,269,0.12475586,0.8251343,-0.027160645
1601132877498,270,0.12475586,0.8251343,-0.027160645
1601132877507,271,-0.08911133,0.9616089,0.039733887
1601132877507,272,0.115722656,0.8942261,-0.1194458
1601132877507,273,-0.125,0.9713745,0.13543701
1601132877507,274,-0.03491211,1.1085815,0.17279053
1601132877507,275,0.11767578,0.8187866,0.002380371
1601132877507,276,-0.22167969,0.90740967,-0.11895752
1601132877508,277,0.115722656,0.8942261,-0.1194458
1601132877508,278,-0.03491211,1.1085815,0.17279053
1601132877508,279,-0.040039062,1.0477905,-0.03375244
1601132877508,280,-0.03491211,1.1085815,0.17279053
1601132877508,281,-0.08911133,0.9616089,0.039733887
1601132877508,282,-0.111083984,0.91619873,0.046569824
1601132877508,283,-0.111083984,0.91619873,0.046569824
1601132877508,284,-0.111083984,0.91619873,0.046569824
1601132877508,285,-0.22167969,0.90740967,-0.11895752
1601132877508,286,0.115722656,0.8942261,-0.1194458
1601132877509,287,0.20092773,0.8822632,-0.066223145
1601132877509,288,0.20092773,0.8822632,-0.066223145
1601132877518,289,-0.03491211,1.1085815,0.17279053
1601132877519,290,-0.040039062,1.0477905,-0.03375244
1601132877519,291,0.115722656,0.8942261,-0.1194458
1601132877519,292,-0.125,0.9713745,0.13543701
1601132877519,293,0.12475586,0.8251343,-0.027160645
1601132877519,294,-0.125,0.9713745,0.13543701
1601132877519,295,0.115722656,0.8942261,-0.1194458
1601132877519,296,-0.22167969,0.90740967,-0.11895752
1601132877520,297,-0.2619629,1.3505249,-0.2366333
1601132877520,298,-0.2619629,1.3505249,-0.2366333
1601132877529,299,-0.125,0.9713745,0.13543701
1601132877530,300,-0.08911133,0.9616089,0.039733887
1601132877530,301,-0.22167969,0.90740967,-0.11895752
1601132877530,302,-0.03491211,1.1085815,0.17279053
1601132877530,303,-0.040039062,1.0477905,-0.03375244
1601132877530,304,-0.22167969,0.90740967,-0.11895752
1601132877530,305,0.20092773,0.8822632,-0.066223145
1601132877530,306,-0.040039062,1.0477905,-0.03375244
1601132877530,307,-0.40405273,1.039978,-0.15533447
1601132877531,308,-0.40405273,1.039978,-0.15533447
1601132877549,309,-0.040039062,1.0477905,-0.03375244
1601132877549,310,0.20092773,0.8822632,-0.066223145
1601132877550,311,0.115722656,0.8942261,-0.1194458
1601132877550,312,-0.08911133,0.9616089,0.039733887
1601132877550,313,0.20092773,0.8822632,-0.066223145
1601132877550,314,-0.111083984,0.91619873,0.046569824
1601132877550,315,-0.111083984,0.91619873,0.046569824
1601132877550,316,-0.2619629,1.3505249,-0.2366333
1601132877550,317,-0.125,0.9713745,0.13543701
1601132877550,318,-0.12036133,0.6444702,0.60272217
1601132877551,319,-0.22167969,0.90740967,-0.11895752
1601132877551,320,-0.08911133,0.9616089,0.039733887
1601132877551,321,-0.2619629,1.3505249,-0.2366333
1601132877551,322,0.20092773,0.8822632,-0.066223145
1601132877551,323,-0.040039062,1.0477905,-0.03375244
1601132877551,324,-0.12036133,0.6444702,0.60272217
1601132877551,325,-0.125,0.9713745,0.13543701
1601132877553,326,-0.08911133,0.9616089,0.039733887
1601132877553,327,-0.40405273,1.039978,-0.15533447
1601132877553,328,-0.2619629,1.3505249,-0.2366333
1601132877553,329,-0.2619629,1.3505249,-0.2366333
1601132877553,330,-0.12036133,0.6444702,0.60272217
1601132877554,331,-0.08911133,0.9616089,0.039733887
1601132877554,332,-0.5402832,0.67596436,0.5993042
1601132877554,333,-0.111083984,0.91619873,0.046569824
1601132877554,334,-0.111083984,0.91619873,0.046569824
1601132877554,335,-0.125,0.9713745,0.13543701
1601132877555,336,-0.22167969,0.90740967,-0.11895752
1601132877555,337,-0.111083984,0.91619873,0.046569824
1601132877555,338,-0.125,0.9713745,0.13543701
1601132877555,339,-0.22167969,0.90740967,-0.11895752
1601132877556,340,-0.40405273,1.039978,-0.15533447
1601132877556,341,-0.5402832,0.67596436,0.5993042
1601132877559,342,-0.5402832,0.67596436,0.5993042
1601132877560,343,-0.40405273,1.039978,-0.15533447
1601132877560,344,-0.125,0.9713745,0.13543701
1601132877560,345,-0.40405273,1.039978,-0.15533447
1601132877560,346,0.19604492,0.84198,0.13690186
1601132877561,347,0.20092773,0.8822632,-0.066223145
1601132877561,348,-0.12036133,0.6444702,0.60272217
1601132877561,349,-0.12036133,0.6444702,0.60272217
1601132877561,350,0.19604492,0.84198,0.13690186
1601132877561,351,-0.12036133,0.6444702,0.60272217
1601132877570,352,-0.5402832,0.67596436,0.5993042
1601132877570,353,-0.22167969,0.90740967,-0.11895752
1601132877570,354,0.19604492,0.84198,0.13690186
1601132877570,355,-0.2619629,1.3505249,-0.2366333
1601132877570,356,-0.5402832,0.67596436,0.5993042
1601132877570,357,-0.22167969,0.90740967,-0.11895752
1601132877570,358,0.34545898,1.3048706,0.387146
1601132877570,359,0.34545898,1.3048706,0.387146
1601132877570,360,0.34545898,1.3048706,0.387146
1601132877570,361,0.20092773,0.8822632,-0.066223145
1601132877570,362,-0.030761719,0.75579834,-0.11920166
1601132877570,363,0.20092773,0.8822632,-0.066223145
1601132877570,364,-0.43701172,0.16156006,-0.40704346
1601132877570,365,-0.40405273,1.039978,-0.15533447
1601132877570,366,0.19604492,0.84198,0.13690186
1601132877571,367,-0.12036133,0.6444702,0.60272217
1601132877571,368,-0.5402832,0.67596436,0.5993042
1601132877572,369,0.19604492,0.84198,0.13690186
1601132877572,370,0.34545898,1.3048706,0.387146
1601132877572,371,-0.2619629,1.3505249,-0.2366333
1601132877572,372,-0.030761719,0.75579834,-0.11920166
1601132877572,373,-0.030761719,0.75579834,-0.11920166
1601132877572,374,-0.40405273,1.039978,-0.15533447
1601132877572,375,0.4519043,1.5358276,-0.05596924
1601132877572,376,-0.12036133,0.6444702,0.60272217
1601132877572,377,-0.5402832,0.67596436,0.5993042
1601132877572,378,-0.030761719,0.75579834,-0.11920166
1601132877572,379,0.20092773,0.8822632,-0.066223145
1601132877577,380,0.19604492,0.84198,0.13690186
1601132877578,381,-0.2619629,1.3505249,-0.2366333
1601132877578,382,-0.43701172,0.16156006,-0.40704346
1601132877578,383,0.34545898,1.3048706,0.387146
1601132877578,384,-0.024658203,1.8346558,-0.519104
1601132877578,385,-0.5402832,0.67596436,0.5993042
1601132877578,386,0.34545898,1.3048706,0.387146
1601132877578,387,0.19604492,0.84198,0.13690186
1601132877578,388,0.19604492,0.84198,0.13690186
1601132877578,389,-0.030761719,0.75579834,-0.11920166
1601132877591,390,-0.43701172,0.16156006,-0.40704346
1601132877591,391,-0.40405273,1.039978,-0.15533447
1601132877591,392,0.4519043,1.5358276,-0.05596924
1601132877591,393,-0.030761719,0.75579834,-0.11920166
1601132877592,394,0.4519043,1.5358276,-0.05596924
1601132877592,395,-0.43701172,0.16156006,-0.40704346
1601132877592,396,-0.43701172,0.16156006,-0.40704346
1601132877592,397,-0.024658203,1.8346558,-0.519104
1601132877592,398,0.4519043,1.5358276,-0.05596924
1601132877592,399,-0.43701172,0.16156006,-0.40704346
1601132877592,400,-0.024658203,1.8346558,-0.519104
1601132877592,401,-0.12036133,0.6444702,0.60272217
1601132877592,402,-0.38476562,0.9406128,-0.13970947
1601132877592,403,-0.024658203,1.8346558,-0.519104
1601132877592,404,-0.2619629,1.3505249,-0.2366333
1601132877592,405,0.34545898,1.3048706,0.387146
1601132877592,406,0.4519043,1.5358276,-0.05596924
1601132877592,407,-0.38476562,0.9406128,-0.13970947
1601132877593,408,-0.030761719,0.75579834,-0.11920166
1601132877593,409,-0.38476562,0.9406128,-0.13970947
1601132877593,410,-0.5402832,0.67596436,0.5993042
1601132877593,411,0.080078125,0.55755615,0.054626465
1601132877593,412,0.080078125,0.55755615,0.054626465
1601132877593,413,0.19604492,0.84198,0.13690186
1601132877593,414,-0.40405273,1.039978,-0.15533447
1601132877593,415,-0.38476562,0.9406128,-0.13970947
1601132877599,416,-0.43701172,0.16156006,-0.40704346
1601132877599,417,0.4519043,1.5358276,-0.05596924
1601132877600,418,0.34545898,1.3048706,0.387146
1601132877600,419,-0.27392578,0.26507568,0.054138184
1601132877600,420,-0.27392578,0.26507568,0.054138184
1601132877600,421,0.34545898,1.3048706,0.387146
1601132877600,422,0.080078125,0.55755615,0.054626465
1601132877600,423,-0.12036133,0.6444702,0.60272217
1601132877600,424,-0.024658203,1.8346558,-0.519104
1601132877601,425,0.080078125,0.55755615,0.054626465
1601132877601,426,-0.5402832,0.67596436,0.5993042
1601132877601,427,0.4519043,1.5358276,-0.05596924
1601132877601,428,-0.024658203,1.8346558,-0.519104
1601132877602,429,-0.12646484,1.0621948,1.2799683
1601132877603,430,-0.27392578,0.26507568,0.054138184
1601132877603,431,-0.38476562,0.9406128,-0.13970947
1601132877609,432,0.19604492,0.84198,0.13690186
1601132877610,433,-0.024658203,1.8346558,-0.519104
1601132877610,434,-0.12646484,1.0621948,1.2799683
1601132877610,435,-0.38476562,0.9406128,-0.13970947
1601132877610,436,-0.030761719,0.75579834,-0.11920166
1601132877610,437,0.080078125,0.55755615,0.054626465
1601132877611,438,-0.27392578,0.26507568,0.054138184
1601132877611,439,-0.43701172,0.16156006,-0.40704346
1601132877611,440,-0.030761719,0.75579834,-0.11920166
1601132877611,441,0.080078125,0.55755615,0.054626465
1601132877619,442,-0.38476562,0.9406128,-0.13970947
1601132877619,443,0.72143555,1.2020874,0.49505615
1601132877619,444,0.34545898,1.3048706,0.387146
1601132877619,445,0.72143555,1.2020874,0.49505615
1601132877619,446,-0.12646484,1.0621948,1.2799683
1601132877619,447,0.15161133,0.5504761,-0.16412354
1601132877619,448,-0.27392578,0.26507568,0.054138184
1601132877619,449,-0.43701172,0.16156006,-0.40704346
1601132877620,450,-0.27392578,0.26507568,0.054138184
1601132877620,451,-0.12646484,1.0621948,1.2799683
1601132877620,452,0.080078125,0.55755615,0.054626465
1601132877620,453,0.4519043,1.5358276,-0.05596924
1601132877620,454,0.72143555,1.2020874,0.49505615
1601132877620,455,0.15161133,0.5504761,-0.16412354
1601132877620,456,0.72143555,1.2020874,0.49505615
1601132877620,457,-0.27392578,0.26507568,0.054138184
1601132877620,458,-0.12646484,1.0621948,1.2799683
1601132877620,459,-0.024658203,1.8346558,-0.519104
1601132877620,460,-0.030761719,0.75579834,-0.11920166
1601132877621,461,-0.38476562,0.9406128,-0.13970947
1601132877621,462,0.4519043,1.5358276,-0.05596924
1601132877630,463,0.15161133,0.5504761,-0.16412354
1601132877630,464,-0.12646484,1.0621948,1.2799683
1601132877631,465,-0.12646484,1.0621948,1.2799683
1601132877634,466,0.15161133,0.5504761,-0.16412354
1601132877635,467,0.72143555,1.2020874,0.49505615
1601132877635,468,0.080078125,0.55755615,0.054626465
1601132877635,469,0.15161133,0.5504761,-0.16412354
1601132877635,470,-0.024658203,1.8346558,-0.519104
1601132877635,471,-0.27392578,0.26507568,0.054138184
1601132877635,472,0.72143555,1.2020874,0.49505615
1601132877635,473,-0.12646484,1.0621948,1.2799683
1601132877635,474,-0.43701172,0.16156006,-0.40704346
1601132877635,475,0.4519043,1.5358276,-0.05596924
1601132877635,476,0.72143555,1.2020874,0.49505615
1601132877636,477,-0.024658203,1.8346558,-0.519104
1601132877636,478,0.15161133,0.5504761,-0.16412354
1601132877636,479,-0.38476562,0.9406128,-0.13970947
1601132877636,480,0.72143555,1.2020874,0.49505615
1601132877636,481,0.15161133,0.5504761,-0.16412354
1601132877636,482,-0.38476562,0.9406128,-0.13970947
1601132877636,483,0.15161133,0.5504761,-0.16412354
1601132877637,484,0.080078125,0.55755615,0.054626465
1601132877637,485,0.080078125,0.55755615,0.054626465
1601132877637,486,-0.27392578,0.26507568,0.054138184
1601132877637,487,-0.27392578,0.26507568,0.054138184
1601132877638,488,-0.12646484,1.0621948,1.2799683
1601132877638,489,-0.12646484,1.0621948,1.2799683
1601132877638,490,0.72143555,1.2020874,0.49505615
1601132877638,491,0.72143555,1.2020874,0.49505615
1601132877638,492,0.15161133,0.5504761,-0.16412354
1601132877638,493,0.15161133,0.5504761,-0.16412354
1601132879957,494,-0.76953125,-0.028137207,-0.31256104
1601132879957,495,-0.76953125,-0.028137207,-0.31256104
1601132879957,496,0.94750977,1.6727905,-0.026672363
1601132879958,497,-0.76953125,-0.028137207,-0.31256104
1601132879958,498,-0.6611328,1.999939,-0.2276001
1601132879958,499,0.94750977,1.6727905,-0.026672363
1601132879958,500,-0.76953125,-0.028137207,-0.31256104
1601132879958,501,-0.76953125,-0.028137207,-0.31256104
1601132879958,502,-0.76953125,-0.028137207,-0.31256104
1601132879958,503,0.94750977,1.6727905,-0.026672363
1601132879958,504,-0.76953125,-0.028137207,-0.31256104
1601132879958,505,0.94750977,1.6727905,-0.026672363
1601132879958,506,-0.76953125,-0.028137207,-0.31256104
1601132879958,507,-0.76953125,-0.028137207,-0.31256104
1601132879958,508,0.94750977,1.6727905,-0.026672363
1601132879959,509,0.19213867,1.1798706,-0.16461182
1601132879959,510,-0.6611328,1.999939,-0.2276001
1601132879959,511,-0.6611328,1.999939,-0.2276001
1601132879959,512,0.14868164,0.5765991,-0.13189697
1601132879959,513,0.19213867,1.1798706,-0.16461182
1601132879959,514,0.94750977,1.6727905,-0.026672363
1601132879959,515,-0.6611328,1.999939,-0.2276001
1601132879959,516,0.94750977,1.6727905,-0.026672363
1601132879959,517,0.94750977,1.6727905,-0.026672363
1601132879959,518,-0.6611328,1.999939,-0.2276001
1601132879960,519,0.94750977,1.6727905,-0.026672363
1601132879962,520,-0.76953125,-0.028137207,-0.31256104
1601132879962,521,-0.6611328,1.999939,-0.2276001
1601132879962,522,0.19213867,1.1798706,-0.16461182
1601132879962,523,-0.44580078,-0.1963501,-0.5088501
1601132879962,524,0.14868164,0.5765991,-0.13189697
1601132879963,525,-0.6611328,1.999939,-0.2276001
1601132879963,526,0.19213867,1.1798706,-0.16461182
1601132879963,527,-0.6611328,1.999939,-0.2276001
1601132879963,528,0.14868164,0.5765991,-0.13189697
1601132879963,529,0.19213867,1.1798706,-0.16461182
1601132879963,530,0.19213867,1.1798706,-0.16461182
1601132879963,531,0.19213867,1.1798706,-0.16461182
1601132879963,532,0.94750977,1.6727905,-0.026672363
1601132879963,533,0.52612305,1.0744019,0.38250732
1601132879963,534,0.19213867,1.1798706,-0.16461182
1601132879963,535,0.14868164,0.5765991,-0.13189697
1601132879969,536,0.14868164,0.5765991,-0.13189697
1601132879969,537,0.14868164,0.5765991,-0.13189697
1601132879969,538,-0.6611328,1.999939,-0.2276001
1601132879969,539,-0.44580078,-0.1963501,-0.5088501
1601132879970,540,-0.44580078,-0.1963501,-0.5088501
1601132879970,541,-0.44580078,-0.1963501,-0.5088501
1601132879970,542,-0.6611328,1.999939,-0.2276001
1601132879970,543,0.14868164,0.5765991,-0.13189697
1601132879970,544,-0.44580078,-0.1963501,-0.5088501
1601132879970,545,-0.44580078,-0.1963501,-0.5088501
1601132879970,546,0.52612305,1.0744019,0.38250732
1601132879974,547,0.52612305,1.0744019,0.38250732
1601132879975,548,0.52612305,1.0744019,0.38250732
1601132879975,549,0.5949707,1.7167358,1.145935
1601132879975,550,0.52612305,1.0744019,0.38250732
1601132879975,551,0.19213867,1.1798706,-0.16461182
1601132879975,552,0.52612305,1.0744019,0.38250732
1601132879975,553,0.5949707,1.7167358,1.145935
1601132879975,554,-0.44580078,-0.1963501,-0.5088501
1601132879975,555,0.14868164,0.5765991,-0.13189697
1601132879975,556,0.52612305,1.0744019,0.38250732
1601132879976,557,0.10498047,0.38519287,0.526062
1601132879976,558,0.140625,0.13323975,0.19573975
1601132879982,559,0.5949707,1.7167358,1.145935
1601132879982,560,0.10498047,0.38519287,0.526062
1601132879982,561,0.19213867,1.1798706,-0.16461182
1601132879982,562,0.14868164,0.5765991,-0.13189697
1601132879982,563,0.140625,0.13323975,0.19573975
1601132879982,564,-0.44580078,-0.1963501,-0.5088501
1601132879982,565,0.5949707,1.7167358,1.145935
1601132879982,566,0.5949707,1.7167358,1.145935
1601132879982,567,0.5949707,1.7167358,1.145935
1601132879982,568,0.7216797,0.28289795,-0.41046143
1601132879983,569,0.10498047,0.38519287,0.526062
1601132879983,570,0.7216797,0.28289795,-0.41046143
1601132879984,571,-0.44580078,-0.1963501,-0.5088501
1601132879985,572,0.52612305,1.0744019,0.38250732
1601132879987,573,0.10498047,0.38519287,0.526062
1601132879987,574,0.10498047,0.38519287,0.526062
1601132879989,575,0.140625,0.13323975,0.19573975
1601132879991,576,0.5949707,1.7167358,1.145935
1601132879991,577,0.14868164,0.5765991,-0.13189697
1601132880005,578,0.10498047,0.38519287,0.526062
1601132880005,579,0.5949707,1.7167358,1.145935
1601132880005,580,0.140625,0.13323975,0.19573975
1601132880005,581,0.140625,0.13323975,0.19573975
1601132880005,582,0.140625,0.13323975,0.19573975
1601132880005,583,0.31811523,1.8378296,0.20233154
1601132880006,584,0.10498047,0.38519287,0.526062
1601132880006,585,0.52612305,1.0744019,0.38250732
1601132880007,586,0.7216797,0.28289795,-0.41046143
1601132880007,587,-0.44580078,-0.1963501,-0.5088501
1601132880008,588,0.31811523,1.8378296,0.20233154
1601132880008,589,0.08325195,1.8270874,0.35003662
1601132880008,590,0.52612305,1.0744019,0.38250732
1601132880008,591,0.7216797,0.28289795,-0.41046143
1601132880008,592,0.7216797,0.28289795,-0.41046143
1601132880008,593,0.140625,0.13323975,0.19573975
1601132880008,594,0.7216797,0.28289795,-0.41046143
1601132880008,595,0.08325195,1.8270874,0.35003662
1601132880008,596,0.5270996,0.9232788,0.23895264
1601132880008,597,0.31811523,1.8378296,0.20233154
1601132880008,598,0.5949707,1.7167358,1.145935
1601132880008,599,0.31811523,1.8378296,0.20233154
1601132880008,600,0.5949707,1.7167358,1.145935
1601132880017,601,0.7216797,0.28289795,-0.41046143
1601132880017,602,0.5270996,0.9232788,0.23895264
1601132880017,603,0.31811523,1.8378296,0.20233154
1601132880017,604,0.10498047,0.38519287,0.526062
1601132880017,605,0.08325195,1.8270874,0.35003662
1601132880017,606,-0.052978516,-0.07574463,-0.31500244
1601132880017,607,0.10498047,0.38519287,0.526062
1601132880017,608,0.5270996,0.9232788,0.23895264
1601132880017,609,0.08325195,1.8270874,0.35003662
1601132880018,610,0.44555664,0.16693115,-0.505188
1601132880018,611,0.10498047,0.38519287,0.526062
1601132880018,612,0.18139648,1.5951538,-0.34405518
1601132880018,613,0.08325195,1.8270874,0.35003662
1601132880018,614,-0.052978516,-0.07574463,-0.31500244
1601132880019,615,0.140625,0.13323975,0.19573975
1601132880019,616,0.31811523,1.8378296,0.20233154
1601132880019,617,0.140625,0.13323975,0.19573975
1601132880019,618,-0.052978516,-0.07574463,-0.31500244
1601132880019,619,0.5270996,0.9232788,0.23895264
1601132880019,620,0.5270996,0.9232788,0.23895264
1601132880019,621,0.31811523,1.8378296,0.20233154
1601132880019,622,0.140625,0.13323975,0.19573975
1601132880019,623,0.7216797,0.28289795,-0.41046143
1601132880019,624,0.7216797,0.28289795,-0.41046143
1601132880021,625,0.08325195,1.8270874,0.35003662
1601132880025,626,-0.052978516,-0.07574463,-0.31500244
1601132880026,627,0.5270996,0.9232788,0.23895264
1601132880026,628,0.7216797,0.28289795,-0.41046143
1601132880026,629,-0.052978516,-0.07574463,-0.31500244
1601132880026,630,0.31811523,1.8378296,0.20233154
1601132880026,631,-0.052978516,-0.07574463,-0.31500244
1601132880026,632,0.44555664,0.16693115,-0.505188
1601132880026,633,0.31811523,1.8378296,0.20233154
1601132880026,634,0.44555664,0.16693115,-0.505188
1601132880026,635,-0.020996094,1.999939,-0.20245361
1601132880032,636,0.08325195,1.8270874,0.35003662
1601132880032,637,0.31811523,1.8378296,0.20233154
1601132880032,638,0.08325195,1.8270874,0.35003662
1601132880032,639,0.44555664,0.16693115,-0.505188
1601132880032,640,0.44555664,0.16693115,-0.505188
1601132880032,641,0.44555664,0.16693115,-0.505188
1601132880032,642,0.18139648,1.5951538,-0.34405518
1601132880032,643,0.18139648,1.5951538,-0.34405518
1601132880032,644,0.08325195,1.8270874,0.35003662
1601132880032,645,0.012451172,1.0338745,0.4328003
1601132880032,646,-0.020996094,1.999939,-0.20245361
1601132880034,647,0.08325195,1.8270874,0.35003662
1601132880069,648,0.5270996,0.9232788,0.23895264
1601132880069,649,0.18139648,1.5951538,-0.34405518
1601132880070,650,0.18139648,1.5951538,-0.34405518
1601132880070,651,0.18139648,1.5951538,-0.34405518
1601132880070,652,-0.020996094,1.999939,-0.20245361
1601132880070,653,0.5270996,0.9232788,0.23895264
1601132880070,654,0.012451172,1.0338745,0.4328003
1601132880070,655,0.5270996,0.9232788,0.23895264
1601132880070,656,0.5270996,0.9232788,0.23895264
1601132880070,657,-0.052978516,-0.07574463,-0.31500244
1601132880070,658,0.44555664,0.16693115,-0.505188
1601132880070,659,-0.020996094,1.999939,-0.20245361
1601132880070,660,-0.020996094,1.999939,-0.20245361
1601132880071,661,0.012451172,1.0338745,0.4328003
1601132880071,662,0.012451172,1.0338745,0.4328003
1601132880071,663,-0.052978516,-0.07574463,-0.31500244
1601132880071,664,0.19799805,0.3324585,0.291687
1601132880071,665,0.19799805,0.3324585,0.291687
1601132880071,666,-0.052978516,-0.07574463,-0.31500244
1601132880071,667,-0.052978516,-0.07574463,-0.31500244
1601132880071,668,-0.020996094,1.999939,-0.20245361
1601132880071,669,0.012451172,1.0338745,0.4328003
1601132880072,670,0.18139648,1.5951538,-0.34405518
1601132880072,671,0.19799805,0.3324585,0.291687
1601132880072,672,0.19799805,0.3324585,0.291687
1601132880072,673,0.19799805,0.3324585,0.291687
1601132880072,674,0.44555664,0.16693115,-0.505188
1601132880072,675,-0.35131836,-0.39215088,-0.25689697
1601132880072,676,-0.35131836,-0.39215088,-0.25689697
1601132880072,677,-0.35131836,-0.39215088,-0.25689697
1601132880072,678,0.26220703,0.75457764,0.1876831
1601132880073,679,0.26220703,0.75457764,0.1876831
1601132880074,680,0.012451172,1.0338745,0.4328003
1601132880074,681,-0.020996094,1.999939,-0.20245361
1601132880074,682,0.2590332,1.999939,0.70892334
1601132880074,683,-0.35131836,-0.39215088,-0.25689697
1601132880075,684,-0.35131836,-0.39215088,-0.25689697
1601132880075,685,0.19799805,0.3324585,0.291687
1601132880075,686,0.26220703,0.75457764,0.1876831
1601132880075,687,0.26220703,0.75457764,0.1876831
1601132880077,688,0.44555664,0.16693115,-0.505188
1601132880077,689,0.44555664,0.16693115,-0.505188
1601132880077,690,0.2590332,1.999939,0.70892334
1601132880077,691,0.012451172,1.0338745,0.4328003
1601132880077,692,0.26220703,0.75457764,0.1876831
1601132880092,693,0.18139648,1.5951538,-0.34405518
1601132880092,694,-0.35131836,-0.39215088,-0.25689697
1601132880092,695,0.2590332,1.999939,0.70892334
1601132880092,696,0.18139648,1.5951538,-0.34405518
1601132880093,697,-0.020996094,1.999939,-0.20245361
1601132880093,698,-0.9897461,1.2572632,-0.25152588
1601132880093,699,0.19799805,0.3324585,0.291687
1601132880093,700,-0.9897461,1.2572632,-0.25152588
1601132880093,701,0.2590332,1.999939,0.70892334
1601132880093,702,0.2590332,1.999939,0.70892334
1601132880094,703,-0.35131836,-0.39215088,-0.25689697
1601132880094,704,0.012451172,1.0338745,0.4328003
1601132880094,705,-0.020996094,1.999939,-0.20245361
1601132880095,706,-0.9897461,1.2572632,-0.25152588
1601132880095,707,0.18139648,1.5951538,-0.34405518
1601132880095,708,0.94799805,0.4550171,-0.16607666
1601132880095,709,0.94799805,0.4550171,-0.16607666
1601132880095,710,-0.9897461,1.2572632,-0.25152588
1601132880103,711,0.26220703,0.75457764,0.1876831
1601132880105,712,0.19799805,0.3324585,0.291687
1601132880105,713,0.94799805,0.4550171,-0.16607666
1601132880105,714,0.012451172,1.0338745,0.4328003
1601132880105,715,-0.020996094,1.999939,-0.20245361
1601132880105,716,-0.9897461,1.2572632,-0.25152588
1601132880105,717,0.19799805,0.3324585,0.291687
1601132880105,718,0.033203125,0.12371826,-0.7605591
1601132880105,719,0.26220703,0.75457764,0.1876831
1601132880112,720,0.94799805,0.4550171,-0.16607666
1601132880112,721,0.2590332,1.999939,0.70892334
1601132880112,722,-0.35131836,-0.39215088,-0.25689697
1601132880118,723,0.94799805,0.4550171,-0.16607666
1601132880118,724,0.033203125,0.12371826,-0.7605591
1601132880118,725,-0.35131836,-0.39215088,-0.25689697
1601132880118,726,0.26220703,0.75457764,0.1876831
1601132880118,727,0.7416992,0.59124756,0.0053100586
1601132880119,728,0.2590332,1.999939,0.70892334
1601132880119,729,0.033203125,0.12371826,-0.7605591
1601132880119,730,0.033203125,0.12371826,-0.7605591
1601132880119,731,0.012451172,1.0338745,0.4328003
1601132880119,732,0.7416992,0.59124756,0.0053100586
1601132880119,733,0.26220703,0.75457764,0.1876831
1601132880119,734,0.2590332,1.999939,0.70892334
1601132880119,735,0.7416992,0.59124756,0.0053100586
1601132880119,736,0.2590332,1.999939,0.70892334
1601132880119,737,-0.9897461,1.2572632,-0.25152588
1601132880120,738,0.7416992,0.59124756,0.0053100586
1601132880120,739,0.08618164,1.999939,0.3788452
1601132880120,740,-0.9897461,1.2572632,-0.25152588
1601132880120,741,0.19799805,0.3324585,0.291687
1601132880120,742,0.94799805,0.4550171,-0.16607666
1601132880120,743,0.08618164,1.999939,0.3788452
1601132880120,744,-0.9897461,1.2572632,-0.25152588
1601132880123,745,0.08618164,1.999939,0.3788452
1601132880123,746,0.94799805,0.4550171,-0.16607666
1601132880123,747,0.08618164,1.999939,0.3788452
1601132880123,748,0.088134766,1.5932007,-0.07281494
1601132880123,749,0.033203125,0.12371826,-0.7605591
1601132880123,750,-0.35131836,-0.39215088,-0.25689697
1601132880123,751,-0.9897461,1.2572632,-0.25152588
1601132880123,752,0.088134766,1.5932007,-0.07281494
1601132880123,753,0.033203125,0.12371826,-0.7605591
1601132880124,754,0.94799805,0.4550171,-0.16607666
1601132880125,755,0.088134766,1.5932007,-0.07281494
1601132880137,756,0.088134766,1.5932007,-0.07281494
1601132880138,757,0.7416992,0.59124756,0.0053100586
1601132880138,758,0.26220703,0.75457764,0.1876831
1601132880138,759,0.08618164,1.999939,0.3788452
1601132880138,760,-0.10522461,0.21917725,0.11810303
1601132880138,761,-0.10522461,0.21917725,0.11810303
1601132880138,762,0.7416992,0.59124756,0.0053100586
1601132880138,763,-0.075927734,-0.13458252,-0.4199829
1601132880138,764,0.033203125,0.12371826,-0.7605591
1601132880138,765,0.94799805,0.4550171,-0.16607666
1601132880138,766,-0.10522461,0.21917725,0.11810303
1601132880138,767,0.088134766,1.5932007,-0.07281494
1601132880138,768,-0.10522461,0.21917725,0.11810303
1601132880138,769,0.033203125,0.12371826,-0.7605591
1601132880139,770,0.08618164,1.999939,0.3788452
1601132880139,771,0.18701172,1.8478394,0.36566162
1601132880139,772,0.7416992,0.59124756,0.0053100586
1601132880139,773,-0.075927734,-0.13458252,-0.4199829
1601132880139,774,0.7416992,0.59124756,0.0053100586
1601132880139,775,0.088134766,1.5932007,-0.07281494
1601132880139,776,0.033203125,0.12371826,-0.7605591
1601132880139,777,-0.10522461,0.21917725,0.11810303
1601132880139,778,0.18701172,1.8478394,0.36566162
1601132880139,779,-0.075927734,-0.13458252,-0.4199829
1601132880139,780,0.2590332,1.999939,0.70892334
1601132880139,781,0.08618164,1.999939,0.3788452
1601132880140,782,-0.075927734,-0.13458252,-0.4199829
1601132880150,783,-0.10522461,0.21917725,0.11810303
1601132880150,784,0.7416992,0.59124756,0.0053100586
1601132880150,785,-0.075927734,-0.13458252,-0.4199829
1601132880150,786,0.18701172,1.8478394,0.36566162
1601132880150,787,-0.9897461,1.2572632,-0.25152588
1601132880150,788,0.08618164,1.999939,0.3788452
1601132880150,789,0.18701172,1.8478394,0.36566162
1601132880151,790,-0.075927734,-0.13458252,-0.4199829
1601132880152,791,0.08618164,1.999939,0.3788452
1601132880152,792,0.18701172,1.8478394,0.36566162
1601132880152,793,0.088134766,1.5932007,-0.07281494
1601132880152,794,0.94799805,0.4550171,-0.16607666
1601132880153,795,0.088134766,1.5932007,-0.07281494
1601132880153,796,0.088134766,1.5932007,-0.07281494
1601132880153,797,0.18701172,1.8478394,0.36566162
1601132880153,798,-0.10522461,0.21917725,0.11810303
1601132880153,799,-0.10522461,0.21917725,0.11810303
1601132880153,800,-0.10522461,0.21917725,0.11810303
1601132880155,801,-0.075927734,-0.13458252,-0.4199829
1601132880155,802,-0.075927734,-0.13458252,-0.4199829
1601132880155,803,0.18701172,1.8478394,0.36566162
1601132880155,804,0.033203125,0.12371826,-0.7605591
1601132880157,805,0.18701172,1.8478394,0.36566162
1601132880157,806,-0.075927734,-0.13458252,-0.4199829
1601132880158,807,0.18701172,1.8478394,0.36566162
1601132880158,808,0.7416992,0.59124756,0.0053100586
1601132880159,809,0.08618164,1.999939,0.3788452
1601132880159,810,0.088134766,1.5932007,-0.07281494
1601132880159,811,-0.10522461,0.21917725,0.11810303
1601132880161,812,-0.075927734,-0.13458252,-0.4199829
1601132880161,813,0.18701172,1.8478394,0.36566162
1601132882518,814,0.71777344,1.1889038,0.010925293
1601132882518,815,0.71777344,1.1889038,0.010925293
1601132882519,816,0.71777344,1.1889038,0.010925293
1601132882528,817,0.31152344,1.69281,0.41204834
1601132882529,818,0.71777344,1.1889038,0.010925293
1601132882529,819,0.71777344,1.1889038,0.010925293
1601132882532,820,0.71777344,1.1889038,0.010925293
1601132882532,821,0.71777344,1.1889038,0.010925293
1601132882532,822,0.31152344,1.69281,0.41204834
1601132882532,823,0.71777344,1.1889038,0.010925293
1601132882532,824,0.31152344,1.69281,0.41204834
1601132882532,825,0.31152344,1.69281,0.41204834
1601132882532,826,0.06542969,-0.3213501,-0.21051025
1601132882544,827,0.31152344,1.69281,0.41204834
1601132882545,828,0.5949707,-0.16241455,-0.17388916
1601132882545,829,0.31152344,1.69281,0.41204834
1601132882545,830,0.06542969,-0.3213501,-0.21051025
1601132882546,831,0.31152344,1.69281,0.41204834
1601132882546,832,0.31152344,1.69281,0.41204834
1601132882546,833,0.06542969,-0.3213501,-0.21051025
1601132882546,834,0.06542969,-0.3213501,-0.21051025
1601132882546,835,0.71777344,1.1889038,0.010925293
1601132882546,836,0.71777344,1.1889038,0.010925293
1601132882559,837,0.54125977,1.736023,0.46673584
1601132882559,838,0.06542969,-0.3213501,-0.21051025
1601132882560,839,0.06542969,-0.3213501,-0.21051025
1601132882560,840,0.5949707,-0.16241455,-0.17388916
1601132882560,841,0.06542969,-0.3213501,-0.21051025
1601132882560,842,0.5949707,-0.16241455,-0.17388916
1601132882560,843,0.06542969,-0.3213501,-0.21051025
1601132882560,844,0.5949707,-0.16241455,-0.17388916
1601132882560,845,0.31152344,1.69281,0.41204834
1601132882560,846,0.31152344,1.69281,0.41204834
1601132882582,847,-0.6308594,1.1359253,0.15130615
1601132882583,848,0.54125977,1.736023,0.46673584
1601132882583,849,0.5949707,-0.16241455,-0.17388916
1601132882583,850,0.5949707,-0.16241455,-0.17388916
1601132882583,851,0.5949707,-0.16241455,-0.17388916
1601132882583,852,0.54125977,1.736023,0.46673584
1601132882583,853,0.54125977,1.736023,0.46673584
1601132882584,854,0.06542969,-0.3213501,-0.21051025
1601132882584,855,0.5949707,-0.16241455,-0.17388916
1601132882584,856,0.06542969,-0.3213501,-0.21051025
1601132882584,857,0.5949707,-0.16241455,-0.17388916
1601132882585,858,0.54125977,1.736023,0.46673584
1601132882585,859,0.7619629,1.6178589,0.2711792
1601132882586,860,0.54125977,1.736023,0.46673584
1601132882586,861,0.54125977,1.736023,0.46673584
1601132882586,862,-0.6308594,1.1359253,0.15130615
1601132882586,863,0.54125977,1.736023,0.46673584
1601132882586,864,-0.6308594,1.1359253,0.15130615
1601132882586,865,-0.6308594,1.1359253,0.15130615
1601132882586,866,0.91064453,0.5336304,-0.11383057
1601132882586,867,-0.6308594,1.1359253,0.15130615
1601132882586,868,0.54125977,1.736023,0.46673584
1601132882587,869,-0.6308594,1.1359253,0.15130615
1601132882587,870,-0.6308594,1.1359253,0.15130615
1601132882587,871,-0.6308594,1.1359253,0.15130615
1601132882587,872,0.7619629,1.6178589,0.2711792
1601132882587,873,0.5949707,-0.16241455,-0.17388916
1601132882587,874,0.7619629,1.6178589,0.2711792
1601132882587,875,0.7619629,1.6178589,0.2711792
1601132882587,876,0.7619629,1.6178589,0.2711792
1601132882587,877,0.91064453,0.5336304,-0.11383057
1601132882587,878,0.7619629,1.6178589,0.2711792
1601132882587,879,0.14331055,-0.28155518,0.3554077
1601132882587,880,0.54125977,1.736023,0.46673584
1601132882587,881,-0.6308594,1.1359253,0.15130615
1601132882587,882,0.91064453,0.5336304,-0.11383057
1601132882588,883,0.91064453,0.5336304,-0.11383057
1601132882588,884,0.14331055,-0.28155518,0.3554077
1601132882588,885,0.7619629,1.6178589,0.2711792
1601132882588,886,0.14331055,-0.28155518,0.3554077
1601132882588,887,0.44604492,0.9916382,-0.05206299
1601132882588,888,0.7619629,1.6178589,0.2711792
1601132882588,889,-0.6308594,1.1359253,0.15130615
1601132882604,890,0.7619629,1.6178589,0.2711792
1601132882604,891,0.14331055,-0.28155518,0.3554077
1601132882604,892,0.91064453,0.5336304,-0.11383057
1601132882605,893,0.91064453,0.5336304,-0.11383057
1601132882605,894,0.6879883,1.7577515,0.60198975
1601132882605,895,0.44604492,0.9916382,-0.05206299
1601132882605,896,0.91064453,0.5336304,-0.11383057
1601132882605,897,0.44604492,0.9916382,-0.05206299
1601132882605,898,0.91064453,0.5336304,-0.11383057
1601132882605,899,0.6879883,1.7577515,0.60198975
1601132882605,900,0.7619629,1.6178589,0.2711792
1601132882605,901,0.3251953,1.2562866,0.46502686
1601132882605,902,0.44604492,0.9916382,-0.05206299
1601132882605,903,0.14331055,-0.28155518,0.3554077
1601132882605,904,0.14331055,-0.28155518,0.3554077
1601132882606,905,0.3251953,1.2562866,0.46502686
1601132882606,906,0.14331055,-0.28155518,0.3554077
1601132882606,907,0.6879883,1.7577515,0.60198975
1601132882606,908,0.44604492,0.9916382,-0.05206299
1601132882606,909,0.14331055,-0.28155518,0.3554077
1601132882606,910,0.91064453,0.5336304,-0.11383057
1601132882606,911,-0.032470703,1.1242065,0.3649292
1601132882608,912,0.6879883,1.7577515,0.60198975
1601132882608,913,0.6879883,1.7577515,0.60198975
1601132882608,914,0.44604492,0.9916382,-0.05206299
1601132882608,915,-0.032470703,1.1242065,0.3649292
1601132882608,916,0.44604492,0.9916382,-0.05206299
1601132882608,917,0.14331055,-0.28155518,0.3554077
1601132882608,918,0.3251953,1.2562866,0.46502686
1601132882608,919,0.91064453,0.5336304,-0.11383057
1601132882608,920,0.24267578,-0.08526611,-0.11480713
1601132882608,921,0.3251953,1.2562866,0.46502686
1601132882608,922,0.44604492,0.9916382,-0.05206299
1601132882608,923,0.48779297,-0.25982666,-0.02960205
1601132882613,924,0.6879883,1.7577515,0.60198975
1601132882613,925,0.3251953,1.2562866,0.46502686
1601132882614,926,0.44604492,0.9916382,-0.05206299
1601132882614,927,-0.032470703,1.1242065,0.3649292
1601132882614,928,0.6879883,1.7577515,0.60198975
1601132882615,929,0.24267578,-0.08526611,-0.11480713
1601132882615,930,0.14331055,-0.28155518,0.3554077
1601132882615,931,0.6879883,1.7577515,0.60198975
1601132882615,932,0.48779297,-0.25982666,-0.02960205
1601132882615,933,0.19799805,1.1808472,0.26239014
1601132882616,934,0.44604492,0.9916382,-0.05206299
1601132882616,935,0.3251953,1.2562866,0.46502686
1601132882616,936,0.6879883,1.7577515,0.60198975
1601132882616,937,0.24267578,-0.08526611,-0.11480713
1601132882616,938,-0.032470703,1.1242065,0.3649292
1601132882616,939,0.3251953,1.2562866,0.46502686
1601132882616,940,0.24267578,-0.08526611,-0.11480713
1601132882616,941,0.3251953,1.2562866,0.46502686
1601132882616,942,0.6879883,1.7577515,0.60198975
1601132882616,943,0.3251953,1.2562866,0.46502686
1601132882616,944,-0.032470703,1.1242065,0.3649292
1601132882618,945,0.19799805,1.1808472,0.26239014
1601132882623,946,0.48779297,-0.25982666,-0.02960205
1601132882624,947,-0.032470703,1.1242065,0.3649292
1601132882624,948,-0.032470703,1.1242065,0.3649292
1601132882624,949,-0.032470703,1.1242065,0.3649292
1601132882624,950,1.0600586,1.999939,0.8102417
1601132882624,951,0.48779297,-0.25982666,-0.02960205
1601132882624,952,0.24267578,-0.08526611,-0.11480713
1601132882625,953,0.091308594,0.87127686,0.045837402
1601132882625,954,0.3251953,1.2562866,0.46502686
1601132882625,955,0.48779297,-0.25982666,-0.02960205
1601132882625,956,1.0600586,1.999939,0.8102417
1601132882625,957,-0.032470703,1.1242065,0.3649292
1601132882625,958,0.24267578,-0.08526611,-0.11480713
1601132882625,959,0.24267578,-0.08526611,-0.11480713
1601132882625,960,0.24267578,-0.08526611,-0.11480713
1601132882625,961,0.24267578,-0.08526611,-0.11480713
1601132882626,962,-0.032470703,1.1242065,0.3649292
1601132882626,963,-0.38671875,-0.25909424,-0.19366455
1601132882631,964,0.091308594,0.87127686,0.045837402
1601132882631,965,0.19799805,1.1808472,0.26239014
1601132882631,966,0.19799805,1.1808472,0.26239014
1601132882631,967,0.15039062,0.022888184,0.0060424805
1601132882632,968,1.0600586,1.999939,0.8102417
1601132882632,969,0.48779297,-0.25982666,-0.02960205
1601132882632,970,0.48779297,-0.25982666,-0.02960205
1601132882632,971,0.24267578,-0.08526611,-0.11480713
1601132882632,972,0.19799805,1.1808472,0.26239014
1601132882632,973,0.19799805,1.1808472,0.26239014
1601132882647,974,1.0600586,1.999939,0.8102417
1601132882647,975,1.0600586,1.999939,0.8102417
1601132882648,976,0.48779297,-0.25982666,-0.02960205
1601132882648,977,0.48779297,-0.25982666,-0.02960205
1601132882648,978,0.091308594,0.87127686,0.045837402
1601132882648,979,0.19799805,1.1808472,0.26239014
1601132882648,980,-0.38671875,-0.25909424,-0.19366455
1601132882648,981,0.48779297,-0.25982666,-0.02960205
1601132882648,982,0.19799805,1.1808472,0.26239014
1601132882648,983,-0.38671875,-0.25909424,-0.19366455
1601132882648,984,0.8835449,1.93573,-0.27618408
1601132882649,985,0.091308594,0.87127686,0.045837402
1601132882649,986,0.19799805,1.1808472,0.26239014
1601132882649,987,0.091308594,0.87127686,0.045837402
1601132882649,988,1.0600586,1.999939,0.8102417
1601132882649,989,1.0600586,1.999939,0.8102417
1601132882649,990,-0.38671875,-0.25909424,-0.19366455
1601132882649,991,1.0600586,1.999939,0.8102417
1601132882649,992,0.091308594,0.87127686,0.045837402
1601132882649,993,0.15039062,0.022888184,0.0060424805
1601132882650,994,-0.6262207,1.999939,-0.48492432
1601132882650,995,1.0600586,1.999939,0.8102417
1601132882650,996,0.15039062,0.022888184,0.0060424805
1601132882650,997,0.19799805,1.1808472,0.26239014
1601132882650,998,-0.38671875,-0.25909424,-0.19366455
1601132882650,999,0.091308594,0.87127686,0.045837402
1601132882650,1000,0.15039062,0.022888184,0.0060424805
1601132882651,1001,0.091308594,0.87127686,0.045837402
1601132882651,1002,0.15039062,0.022888184,0.0060424805
1601132882651,1003,0.8835449,1.93573,-0.27618408
1601132882652,1004,-0.06518555,0.8629761,0.22235107
1601132882652,1005,-0.38671875,-0.25909424,-0.19366455
1601132882652,1006,0.8835449,1.93573,-0.27618408
1601132882652,1007,-0.6262207,1.999939,-0.48492432
1601132882652,1008,0.15039062,0.022888184,0.0060424805
1601132882652,1009,0.8835449,1.93573,-0.27618408
1601132882652,1010,-0.06518555,0.8629761,0.22235107
1601132882653,1011,0.8835449,1.93573,-0.27618408
1601132882653,1012,-0.38671875,-0.25909424,-0.19366455
1601132882653,1013,0.048583984,0.1605835,0.27508545
1601132882653,1014,0.048583984,0.1605835,0.27508545
1601132882653,1015,0.091308594,0.87127686,0.045837402
1601132882658,1016,-0.6262207,1.999939,-0.48492432
1601132882658,1017,-0.38671875,-0.25909424,-0.19366455
1601132882658,1018,-0.6262207,1.999939,-0.48492432
1601132882658,1019,-0.6262207,1.999939,-0.48492432
1601132882659,1020,0.3449707,-0.21661377,-0.108947754
1601132882659,1021,-0.06518555,0.8629761,0.22235107
1601132882659,1022,1.0600586,1.999939,0.8102417
1601132882659,1023,-0.06518555,0.8629761,0.22235107
1601132882659,1024,0.8835449,1.93573,-0.27618408
1601132882659,1025,-0.38671875,-0.25909424,-0.19366455
1601132882660,1026,-0.06518555,0.8629761,0.22235107
1601132882660,1027,0.15039062,0.022888184,0.0060424805
1601132882667,1028,0.3449707,-0.21661377,-0.108947754
1601132882667,1029,0.15039062,0.022888184,0.0060424805
1601132882667,1030,0.091308594,0.87127686,0.045837402
1601132882667,1031,0.048583984,0.1605835,0.27508545
1601132882667,1032,0.048583984,0.1605835,0.27508545
1601132882667,1033,0.048583984,0.1605835,0.27508545
1601132882667,1034,0.15039062,0.022888184,0.0060424805
1601132882667,1035,-0.6262207,1.999939,-0.48492432
1601132882668,1036,0.3449707,-0.21661377,-0.108947754
1601132882668,1037,0.8835449,1.93573,-0.27618408
1601132882673,1038,0.8835449,1.93573,-0.27618408
1601132882673,1039,-0.016845703,1.999939,0.51434326
1601132882674,1040,0.3449707,-0.21661377,-0.108947754
1601132882674,1041,-0.38671875,-0.25909424,-0.19366455
1601132882674,1042,0.3449707,-0.21661377,-0.108947754
1601132882674,1043,-0.016845703,1.999939,0.51434326
1601132882674,1044,0.8835449,1.93573,-0.27618408
1601132882674,1045,-0.020019531,1.572937,0.30804443
1601132882675,1046,-0.016845703,1.999939,0.51434326
1601132882675,1047,-0.6262207,1.999939,-0.48492432
1601132882675,1048,-0.06518555,0.8629761,0.22235107
1601132882684,1049,0.15039062,0.022888184,0.0060424805
1601132882684,1050,-0.020019531,1.572937,0.30804443
1601132882684,1051,-0.016845703,1.999939,0.51434326
1601132882685,1052,-0.6262207,1.999939,-0.48492432
1601132882685,1053,-0.016845703,1.999939,0.51434326
1601132882685,1054,-0.40112305,0.97454834,0.14129639
1601132882685,1055,-0.6262207,1.999939,-0.48492432
1601132882685,1056,-0.06518555,0.8629761,0.22235107
1601132882685,1057,-0.020019531,1.572937,0.30804443
1601132882685,1058,-0.06518555,0.8629761,0.22235107
1601132882685,1059,0.048583984,0.1605835,0.27508545
1601132882685,1060,0.8835449,1.93573,-0.27618408
1601132882685,1061,-0.40112305,0.97454834,0.14129639
1601132882686,1062,-0.020019531,1.572937,0.30804443
1601132882686,1063,0.048583984,0.1605835,0.27508545
1601132882687,1064,-0.020019531,1.572937,0.30804443
1601132882687,1065,0.009277344,0.30560303,0.3991089
1601132882687,1066,-0.06518555,0.8629761,0.22235107
1601132882687,1067,-0.40112305,0.97454834,0.14129639
1601132882687,1068,-0.16455078,0.23699951,-0.039611816
1601132882687,1069,0.3449707,-0.21661377,-0.108947754
1601132882688,1070,-0.6262207,1.999939,-0.48492432
1601132882698,1071,0.3449707,-0.21661377,-0.108947754
1601132882698,1072,-0.40112305,0.97454834,0.14129639
1601132882698,1073,0.009277344,0.30560303,0.3991089
1601132882698,1074,-0.40112305,0.97454834,0.14129639
1601132882698,1075,0.048583984,0.1605835,0.27508545
1601132882698,1076,0.19458008,1.6173706,-0.3892212
1601132882698,1077,0.048583984,0.1605835,0.27508545
1601132882699,1078,-0.016845703,1.999939,0.51434326
1601132882699,1079,0.009277344,0.30560303,0.3991089
1601132882699,1080,-0.06518555,0.8629761,0.22235107
1601132882699,1081,0.3449707,-0.21661377,-0.108947754
1601132882699,1082,-0.16455078,0.23699951,-0.039611816
1601132882699,1083,0.009277344,0.30560303,0.3991089
1601132882699,1084,0.048583984,0.1605835,0.27508545
1601132882700,1085,0.009277344,0.30560303,0.3991089
1601132882700,1086,0.3449707,-0.21661377,-0.108947754
1601132882700,1087,-0.020019531,1.572937,0.30804443
1601132882700,1088,-0.16455078,0.23699951,-0.039611816
1601132882700,1089,-0.016845703,1.999939,0.51434326
1601132882700,1090,-0.40112305,0.97454834,0.14129639
1601132882707,1091,-0.016845703,1.999939,0.51434326
1601132882707,1092,-0.16455078,0.23699951,-0.039611816
1601132882707,1093,0.3449707,-0.21661377,-0.108947754
1601132882708,1094,0.088134766,1.7611694,-0.6206665
1601132882708,1095,0.19458008,1.6173706,-0.3892212
1601132882708,1096,0.19458008,1.6173706,-0.3892212
1601132882708,1097,0.19458008,1.6173706,-0.3892212
1601132882708,1098,0.088134766,1.7611694,-0.6206665
1601132882708,1099,0.009277344,0.30560303,0.3991089
1601132882708,1100,-0.020019531,1.572937,0.30804443
1601132882708,1101,-0.016845703,1.999939,0.51434326
1601132882708,1102,-0.16455078,0.23699951,-0.039611816
1601132882709,1103,-0.020019531,1.572937,0.30804443
1601132882709,1104,-0.020019531,1.572937,0.30804443
1601132882709,1105,0.088134766,1.7611694,-0.6206665
1601132882711,1106,-0.40112305,0.97454834,0.14129639
1601132882716,1107,-0.016845703,1.999939,0.51434326
1601132882717,1108,0.19458008,1.6173706,-0.3892212
1601132882717,1109,0.009277344,0.30560303,0.3991089
1601132882717,1110,-0.40112305,0.97454834,0.14129639
1601132882717,1111,0.088134766,1.7611694,-0.6206665
1601132882717,1112,0.009277344,0.30560303,0.3991089
1601132882721,1113,-0.40112305,0.97454834,0.14129639
1601132882721,1114,-0.020019531,1.572937,0.30804443
1601132882722,1115,0.088134766,1.7611694,-0.6206665
1601132882722,1116,-0.16455078,0.23699951,-0.039611816
1601132882722,1117,-0.16455078,0.23699951,-0.039611816
1601132882722,1118,-0.16455078,0.23699951,-0.039611816
1601132882727,1119,0.009277344,0.30560303,0.3991089
1601132882732,1120,-0.40112305,0.97454834,0.14129639
1601132882733,1121,0.19458008,1.6173706,-0.3892212
1601132882733,1122,0.19458008,1.6173706,-0.3892212
1601132882733,1123,0.19458008,1.6173706,-0.3892212
1601132882733,1124,0.009277344,0.30560303,0.3991089
1601132882733,1125,-0.16455078,0.23699951,-0.039611816
1601132882733,1126,0.088134766,1.7611694,-0.6206665
1601132882733,1127,0.19458008,1.6173706,-0.3892212
1601132882733,1128,0.088134766,1.7611694,-0.6206665
1601132882734,1129,-0.16455078,0.23699951,-0.039611816
1601132882734,1130,0.088134766,1.7611694,-0.6206665
1601132882734,1131,0.088134766,1.7611694,-0.6206665
1601132882735,1132,0.19458008,1.6173706,-0.3892212
1601132882735,1133,0.088134766,1.7611694,-0.6206665
1601132885017,1134,0.07104492,0.7650757,-0.18609619
1601132885018,1135,0.07104492,0.7650757,-0.18609619
1601132885018,1136,0.07104492,0.7650757,-0.18609619
1601132885020,1137,0.07104492,0.7650757,-0.18609619
1601132885035,1138,0.001953125,0.37225342,-0.1675415
1601132885035,1139,0.07104492,0.7650757,-0.18609619
1601132885035,1140,0.001953125,0.37225342,-0.1675415
1601132885036,1141,0.07104492,0.7650757,-0.18609619
1601132885036,1142,0.001953125,0.37225342,-0.1675415
1601132885036,1143,0.001953125,0.37225342,-0.1675415
1601132885036,1144,0.001953125,0.37225342,-0.1675415
1601132885036,1145,0.001953125,0.37225342,-0.1675415
1601132885036,1146,0.044921875,0.2999878,-0.05279541
1601132885036,1147,0.044921875,0.2999878,-0.05279541
1601132885036,1148,0.07104492,0.7650757,-0.18609619
1601132885036,1149,0.07104492,0.7650757,-0.18609619
1601132885036,1150,0.044921875,0.2999878,-0.05279541
1601132885036,1151,-0.20996094,1.7929077,0.7904663
1601132885036,1152,0.07104492,0.7650757,-0.18609619
1601132885036,1153,0.001953125,0.37225342,-0.1675415
1601132885036,1154,0.044921875,0.2999878,-0.05279541
1601132885037,1155,0.044921875,0.2999878,-0.05279541
1601132885037,1156,-0.20996094,1.7929077,0.7904663
1601132885037,1157,0.044921875,0.2999878,-0.05279541
1601132885037,1158,0.07104492,0.7650757,-0.18609619
1601132885037,1159,0.001953125,0.37225342,-0.1675415
1601132885055,1160,0.001953125,0.37225342,-0.1675415
1601132885056,1161,0.044921875,0.2999878,-0.05279541
1601132885056,1162,0.19482422,1.2142944,0.24383545
1601132885056,1163,-0.20996094,1.7929077,0.7904663
1601132885056,1164,-0.28979492,0.22088623,-0.13800049
1601132885056,1165,0.19482422,1.2142944,0.24383545
1601132885056,1166,0.19482422,1.2142944,0.24383545
1601132885056,1167,-0.20996094,1.7929077,0.7904663
1601132885056,1168,0.001953125,0.37225342,-0.1675415
1601132885056,1169,0.19482422,1.2142944,0.24383545
1601132885057,1170,0.044921875,0.2999878,-0.05279541
1601132885057,1171,-0.20996094,1.7929077,0.7904663
1601132885057,1172,0.044921875,0.2999878,-0.05279541
1601132885057,1173,-0.20996094,1.7929077,0.7904663
1601132885057,1174,0.3227539,0.24505615,-0.13897705
1601132885057,1175,-0.20996094,1.7929077,0.7904663
1601132885057,1176,-0.20996094,1.7929077,0.7904663
1601132885057,1177,0.27294922,1.7250366,0.46673584
1601132885058,1178,0.19482422,1.2142944,0.24383545
1601132885058,1179,-0.28979492,0.22088623,-0.13800049
1601132885058,1180,0.044921875,0.2999878,-0.05279541
1601132885058,1181,-0.20996094,1.7929077,0.7904663
1601132885058,1182,-0.20996094,1.7929077,0.7904663
1601132885058,1183,-0.28979492,0.22088623,-0.13800049
1601132885058,1184,-0.28979492,0.22088623,-0.13800049
1601132885058,1185,0.19482422,1.2142944,0.24383545
1601132885061,1186,-0.60913086,1.8290405,-0.86920166
1601132885071,1187,-0.28979492,0.22088623,-0.13800049
1601132885071,1188,0.3227539,0.24505615,-0.13897705
1601132885072,1189,0.19482422,1.2142944,0.24383545
1601132885072,1190,0.19482422,1.2142944,0.24383545
1601132885072,1191,0.19482422,1.2142944,0.24383545
1601132885072,1192,0.3227539,0.24505615,-0.13897705
1601132885072,1193,-0.28979492,0.22088623,-0.13800049
1601132885072,1194,0.3227539,0.24505615,-0.13897705
1601132885072,1195,0.19482422,1.2142944,0.24383545
1601132885072,1196,0.13574219,0.8678589,0.15960693
1601132885073,1197,0.27294922,1.7250366,0.46673584
1601132885088,1198,-0.28979492,0.22088623,-0.13800049
1601132885088,1199,0.27294922,1.7250366,0.46673584
1601132885089,1200,-0.28979492,0.22088623,-0.13800049
1601132885089,1201,-0.60913086,1.8290405,-0.86920166
1601132885089,1202,0.3227539,0.24505615,-0.13897705
1601132885089,1203,-0.60913086,1.8290405,-0.86920166
1601132885089,1204,-0.28979492,0.22088623,-0.13800049
1601132885089,1205,-0.28979492,0.22088623,-0.13800049
1601132885089,1206,0.13574219,0.8678589,0.15960693
1601132885089,1207,0.27294922,1.7250366,0.46673584
1601132885089,1208,-0.4597168,0.30340576,0.15130615
1601132885090,1209,0.3227539,0.24505615,-0.13897705
1601132885090,1210,-0.60913086,1.8290405,-0.86920166
1601132885090,1211,-0.4597168,0.30340576,0.15130615
1601132885090,1212,0.27294922,1.7250366,0.46673584
1601132885090,1213,0.07788086,0.17230225,0.17132568
1601132885090,1214,0.3227539,0.24505615,-0.13897705
1601132885090,1215,0.3227539,0.24505615,-0.13897705
1601132885090,1216,-0.60913086,1.8290405,-0.86920166
1601132885091,1217,0.3227539,0.24505615,-0.13897705
1601132885091,1218,0.13574219,0.8678589,0.15960693
1601132885091,1219,0.3227539,0.24505615,-0.13897705
1601132885091,1220,-0.4597168,0.30340576,0.15130615
1601132885091,1221,0.27294922,1.7250366,0.46673584
1601132885091,1222,-0.08300781,1.4269409,0.66204834
1601132885091,1223,0.07788086,0.17230225,0.17132568
1601132885092,1224,0.27294922,1.7250366,0.46673584
1601132885092,1225,0.27294922,1.7250366,0.46673584
1601132885092,1226,-0.60913086,1.8290405,-0.86920166
1601132885093,1227,-0.60913086,1.8290405,-0.86920166
1601132885093,1228,0.27294922,1.7250366,0.46673584
1601132885110,1229,0.27294922,1.7250366,0.46673584
1601132885110,1230,0.21850586,1.5021362,0.54681396
1601132885110,1231,-0.08300781,1.4269409,0.66204834
1601132885111,1232,0.07788086,0.17230225,0.17132568
1601132885113,1233,-0.08154297,0.9347534,0.13275146
1601132885113,1234,-0.60913086,1.8290405,-0.86920166
1601132885113,1235,-0.2944336,0.15106201,-0.02520752
1601132885113,1236,-0.08300781,1.4269409,0.66204834
1601132885113,1237,0.13574219,0.8678589,0.15960693
1601132885113,1238,0.21850586,1.5021362,0.54681396
1601132885113,1239,-0.60913086,1.8290405,-0.86920166
1601132885113,1240,-0.08154297,0.9347534,0.13275146
1601132885113,1241,0.13574219,0.8678589,0.15960693
1601132885113,1242,0.13574219,0.8678589,0.15960693
1601132885113,1243,0.21850586,1.5021362,0.54681396
1601132885114,1244,-0.2944336,0.15106201,-0.02520752
1601132885114,1245,-0.4597168,0.30340576,0.15130615
1601132885114,1246,0.13574219,0.8678589,0.15960693
1601132885114,1247,-0.60913086,1.8290405,-0.86920166
1601132885114,1248,-0.08154297,0.9347534,0.13275146
1601132885114,1249,0.07788086,0.17230225,0.17132568
1601132885114,1250,0.13574219,0.8678589,0.15960693
1601132885115,1251,0.13574219,0.8678589,0.15960693
1601132885115,1252,0.08520508,0.18597412,-0.28692627
1601132885115,1253,-0.08300781,1.4269409,0.66204834
1601132885115,1254,0.85058594,1.8742065,-0.35894775
1601132885115,1255,-0.4597168,0.30340576,0.15130615
1601132885115,1256,0.5415039,1.2807007,-0.3477173
1601132885115,1257,0.08520508,0.18597412,-0.28692627
1601132885115,1258,-0.2944336,0.15106201,-0.02520752
1601132885115,1259,-0.4597168,0.30340576,0.15130615
1601132885116,1260,0.85058594,1.8742065,-0.35894775
1601132885116,1261,0.07788086,0.17230225,0.17132568
1601132885116,1262,-0.4597168,0.30340576,0.15130615
1601132885116,1263,-0.4597168,0.30340576,0.15130615
1601132885116,1264,0.07788086,0.17230225,0.17132568
1601132885116,1265,-0.24145508,0.6618042,0.38641357
1601132885116,1266,0.07788086,0.17230225,0.17132568
1601132885116,1267,0.13574219,0.8678589,0.15960693
1601132885116,1268,-0.4597168,0.30340576,0.15130615
1601132885116,1269,0.5415039,1.2807007,-0.3477173
1601132885117,1270,-0.08300781,1.4269409,0.66204834
1601132885117,1271,0.21850586,1.5021362,0.54681396
1601132885117,1272,0.08520508,0.18597412,-0.28692627
1601132885117,1273,0.07788086,0.17230225,0.17132568
1601132885117,1274,-0.08300781,1.4269409,0.66204834
1601132885118,1275,-0.08300781,1.4269409,0.66204834
1601132885122,1276,0.07788086,0.17230225,0.17132568
1601132885123,1277,-0.4597168,0.30340576,0.15130615
1601132885123,1278,-0.08154297,0.9347534,0.13275146
1601132885123,1279,-0.08300781,1.4269409,0.66204834
1601132885123,1280,0.21850586,1.5021362,0.54681396
1601132885123,1281,-0.2944336,0.15106201,-0.02520752
1601132885123,1282,0.08520508,0.18597412,-0.28692627
1601132885123,1283,-0.08300781,1.4269409,0.66204834
1601132885124,1284,0.21850586,1.5021362,0.54681396
1601132885124,1285,-0.24145508,0.6618042,0.38641357
1601132885125,1286,0.07788086,0.17230225,0.17132568
1601132885126,1287,0.21850586,1.5021362,0.54681396
1601132885126,1288,0.21850586,1.5021362,0.54681396
1601132885138,1289,-0.08154297,0.9347534,0.13275146
1601132885138,1290,0.21850586,1.5021362,0.54681396
1601132885138,1291,-0.08154297,0.9347534,0.13275146
1601132885138,1292,-0.08154297,0.9347534,0.13275146
1601132885138,1293,-0.08154297,0.9347534,0.13275146
1601132885138,1294,-0.2944336,0.15106201,-0.02520752
1601132885139,1295,-0.08300781,1.4269409,0.66204834
1601132885139,1296,-0.2944336,0.15106201,-0.02520752
1601132885139,1297,0.08520508,0.18597412,-0.28692627
1601132885139,1298,-0.08154297,0.9347534,0.13275146
1601132885139,1299,-0.18945312,1.307312,0.10296631
1601132885139,1300,0.08520508,0.18597412,-0.28692627
1601132885139,1301,0.85058594,1.8742065,-0.35894775
1601132885140,1302,-0.2944336,0.15106201,-0.02520752
1601132885140,1303,-0.11279297,1.0700073,-0.06890869
1601132885140,1304,0.85058594,1.8742065,-0.35894775
1601132885140,1305,-0.2944336,0.15106201,-0.02520752
1601132885140,1306,-0.18945312,1.307312,0.10296631
1601132885140,1307,-0.61987305,0.84246826,-0.024719238
1601132885140,1308,0.85058594,1.8742065,-0.35894775
1601132885140,1309,0.85058594,1.8742065,-0.35894775
1601132885140,1310,0.21850586,1.5021362,0.54681396
1601132885140,1311,0.08520508,0.18597412,-0.28692627
1601132885141,1312,0.08520508,0.18597412,-0.28692627
1601132885141,1313,0.5415039,1.2807007,-0.3477173
1601132885141,1314,0.5415039,1.2807007,-0.3477173
1601132885141,1315,-0.11279297,1.0700073,-0.06890869
1601132885141,1316,-0.2944336,0.15106201,-0.02520752
1601132885141,1317,-0.02368164,0.1618042,0.4862671
1601132885144,1318,-0.08154297,0.9347534,0.13275146
1601132885144,1319,0.85058594,1.8742065,-0.35894775
1601132885145,1320,0.85058594,1.8742065,-0.35894775
1601132885145,1321,-0.24145508,0.6618042,0.38641357
1601132885146,1322,-0.2944336,0.15106201,-0.02520752
1601132885146,1323,0.5415039,1.2807007,-0.3477173
1601132885146,1324,0.5415039,1.2807007,-0.3477173
1601132885146,1325,0.08520508,0.18597412,-0.28692627
1601132885146,1326,0.08520508,0.18597412,-0.28692627
1601132885146,1327,-0.5275879,1.0634155,-0.062072754
1601132885149,1328,0.5415039,1.2807007,-0.3477173
1601132885149,1329,-0.18945312,1.307312,0.10296631
1601132885149,1330,-0.24145508,0.6618042,0.38641357
1601132885150,1331,-0.61987305,0.84246826,-0.024719238
1601132885150,1332,-0.11279297,1.0700073,-0.06890869
1601132885150,1333,-0.24145508,0.6618042,0.38641357
1601132885150,1334,-0.61987305,0.84246826,-0.024719238
1601132885150,1335,-0.24145508,0.6618042,0.38641357
1601132885150,1336,0.85058594,1.8742065,-0.35894775
1601132885150,1337,-0.02368164,0.1618042,0.4862671
1601132885158,1338,-0.24145508,0.6618042,0.38641357
1601132885158,1339,0.5415039,1.2807007,-0.3477173
1601132885158,1340,-0.18945312,1.307312,0.10296631
1601132885159,1341,0.85058594,1.8742065,-0.35894775
1601132885159,1342,-0.18945312,1.307312,0.10296631
1601132885159,1343,-0.02368164,0.1618042,0.4862671
1601132885159,1344,-0.55249023,1.3319702,0.12762451
1601132885159,1345,-0.5275879,1.0634155,-0.062072754
1601132885159,1346,0.5415039,1.2807007,-0.3477173
1601132885159,1347,-0.5275879,1.0634155,-0.062072754
1601132885159,1348,-0.55249023,1.3319702,0.12762451
1601132885160,1349,-0.24145508,0.6618042,0.38641357
1601132885160,1350,-0.55249023,1.3319702,0.12762451
1601132885160,1351,-0.39892578,1.1420288,-0.15802002
1601132885160,1352,0.5415039,1.2807007,-0.3477173
1601132885160,1353,-0.11279297,1.0700073,-0.06890869
1601132885160,1354,-0.11279297,1.0700073,-0.06890869
1601132885160,1355,-0.39892578,1.1420288,-0.15802002
1601132885161,1356,-0.18945312,1.307312,0.10296631
1601132885166,1357,-0.18945312,1.307312,0.10296631
1601132885166,1358,-0.24145508,0.6618042,0.38641357
1601132885166,1359,0.11743164,0.71673584,0.2772827
1601132885166,1360,-0.18945312,1.307312,0.10296631
1601132885167,1361,-0.61987305,0.84246826,-0.024719238
1601132885167,1362,-0.017822266,0.58709717,0.2243042
1601132885167,1363,-0.24145508,0.6618042,0.38641357
1601132885167,1364,-0.61987305,0.84246826,-0.024719238
1601132885168,1365,-0.39892578,1.1420288,-0.15802002
1601132885168,1366,-0.11279297,1.0700073,-0.06890869
1601132885168,1367,-0.18945312,1.307312,0.10296631
1601132885168,1368,-0.02368164,0.1618042,0.4862671
1601132885175,1369,-0.11279297,1.0700073,-0.06890869
1601132885175,1370,-0.02368164,0.1618042,0.4862671
1601132885175,1371,-0.65966797,1.2057495,-0.16461182
1601132885175,1372,0.11743164,0.71673584,0.2772827
1601132885175,1373,-0.11279297,1.0700073,-0.06890869
1601132885175,1374,0.11743164,0.71673584,0.2772827
1601132885176,1375,-0.61987305,0.84246826,-0.024719238
1601132885176,1376,-0.11279297,1.0700073,-0.06890869
1601132885176,1377,-0.18945312,1.307312,0.10296631
1601132885176,1378,-0.5275879,1.0634155,-0.062072754
1601132885176,1379,-0.61987305,0.84246826,-0.024719238
1601132885176,1380,-0.11279297,1.0700073,-0.06890869
1601132885176,1381,-0.02368164,0.1618042,0.4862671
1601132885176,1382,0.31323242,1.3991089,0.17889404
1601132885176,1383,-0.017822266,0.58709717,0.2243042
1601132885177,1384,-0.5275879,1.0634155,-0.062072754
1601132885177,1385,-0.017822266,0.58709717,0.2243042
1601132885177,1386,-0.02368164,0.1618042,0.4862671
1601132885177,1387,-0.65966797,1.2057495,-0.16461182
1601132885177,1388,-0.55249023,1.3319702,0.12762451
1601132885178,1389,-0.61987305,0.84246826,-0.024719238
1601132885179,1390,-0.61987305,0.84246826,-0.024719238
1601132885186,1391,-0.55249023,1.3319702,0.12762451
1601132885188,1392,-0.5275879,1.0634155,-0.062072754
1601132885188,1393,-0.29858398,0.55096436,0.08050537
1601132885188,1394,-0.65966797,1.2057495,-0.16461182
1601132885188,1395,0.31323242,1.3991089,0.17889404
1601132885188,1396,-0.39892578,1.1420288,-0.15802002
1601132885189,1397,0.31323242,1.3991089,0.17889404
1601132885189,1398,0.11743164,0.71673584,0.2772827
1601132885189,1399,-0.61987305,0.84246826,-0.024719238
1601132885189,1400,-0.02368164,0.1618042,0.4862671
1601132885192,1401,-0.55249023,1.3319702,0.12762451
1601132885192,1402,-0.39892578,1.1420288,-0.15802002
1601132885192,1403,-0.29858398,0.55096436,0.08050537
1601132885192,1404,-0.5275879,1.0634155,-0.062072754
1601132885192,1405,-0.29858398,0.55096436,0.08050537
1601132885192,1406,-0.02368164,0.1618042,0.4862671
1601132885192,1407,-0.017822266,0.58709717,0.2243042
1601132885192,1408,-0.5275879,1.0634155,-0.062072754
1601132885192,1409,-0.02368164,0.1618042,0.4862671
1601132885196,1410,-0.39892578,1.1420288,-0.15802002
1601132885196,1411,-0.5275879,1.0634155,-0.062072754
1601132885196,1412,-0.65966797,1.2057495,-0.16461182
1601132885196,1413,-0.55249023,1.3319702,0.12762451
1601132885196,1414,0.11743164,0.71673584,0.2772827
1601132885197,1415,0.31323242,1.3991089,0.17889404
1601132885197,1416,-0.55249023,1.3319702,0.12762451
1601132885197,1417,-0.017822266,0.58709717,0.2243042
1601132885210,1418,-0.29858398,0.55096436,0.08050537
1601132885210,1419,-0.39892578,1.1420288,-0.15802002
1601132885210,1420,-0.55249023,1.3319702,0.12762451
1601132885210,1421,-0.5275879,1.0634155,-0.062072754
1601132885210,1422,-0.39892578,1.1420288,-0.15802002
1601132885210,1423,-0.39892578,1.1420288,-0.15802002
1601132885211,1424,0.11743164,0.71673584,0.2772827
1601132885211,1425,-0.017822266,0.58709717,0.2243042
1601132885211,1426,0.11743164,0.71673584,0.2772827
1601132885211,1427,-0.65966797,1.2057495,-0.16461182
1601132885211,1428,0.31323242,1.3991089,0.17889404
1601132885211,1429,0.11743164,0.71673584,0.2772827
1601132885211,1430,-0.29858398,0.55096436,0.08050537
1601132885212,1431,-0.55249023,1.3319702,0.12762451
1601132885212,1432,-0.017822266,0.58709717,0.2243042
1601132885212,1433,0.11743164,0.71673584,0.2772827
1601132885212,1434,-0.017822266,0.58709717,0.2243042
1601132885212,1435,-0.65966797,1.2057495,-0.16461182
1601132885212,1436,-0.65966797,1.2057495,-0.16461182
1601132885212,1437,-0.39892578,1.1420288,-0.15802002
1601132885213,1438,-0.017822266,0.58709717,0.2243042
1601132885213,1439,0.11743164,0.71673584,0.2772827
1601132885213,1440,-0.65966797,1.2057495,-0.16461182
1601132885213,1441,0.31323242,1.3991089,0.17889404
1601132885214,1442,0.31323242,1.3991089,0.17889404
1601132885214,1443,-0.017822266,0.58709717,0.2243042
1601132885214,1444,-0.65966797,1.2057495,-0.16461182
1601132885217,1445,0.31323242,1.3991089,0.17889404
1601132885217,1446,-0.29858398,0.55096436,0.08050537
1601132885217,1447,0.31323242,1.3991089,0.17889404
1601132885217,1448,-0.29858398,0.55096436,0.08050537
1601132885218,1449,-0.65966797,1.2057495,-0.16461182
1601132885218,1450,-0.29858398,0.55096436,0.08050537
1601132885218,1451,-0.29858398,0.55096436,0.08050537
1601132885218,1452,0.31323242,1.3991089,0.17889404
1601132885220,1453,-0.29858398,0.55096436,0.08050537
1601132887950,1454,-0.053955078,0.4557495,0.14935303
1601132887950,1455,-0.053955078,0.4557495,0.14935303
1601132887957,1456,-0.053955078,0.4557495,0.14935303
1601132887957,1457,-0.053955078,0.4557495,0.14935303
1601132887959,1458,0.18017578,1.6537476,-0.19732666
1601132887959,1459,-0.053955078,0.4557495,0.14935303
1601132887959,1460,0.18017578,1.6537476,-0.19732666
1601132887959,1461,-0.053955078,0.4557495,0.14935303
1601132887959,1462,-0.053955078,0.4557495,0.14935303
1601132887962,1463,0.18017578,1.6537476,-0.19732666
1601132887962,1464,-0.053955078,0.4557495,0.14935303
1601132887963,1465,0.059570312,1.3988647,0.012878418
1601132887964,1466,0.059570312,1.3988647,0.012878418
1601132887964,1467,0.5563965,0.61102295,0.044128418
1601132887964,1468,0.18017578,1.6537476,-0.19732666
1601132887964,1469,0.18017578,1.6537476,-0.19732666
1601132887964,1470,0.059570312,1.3988647,0.012878418
1601132887966,1471,0.18017578,1.6537476,-0.19732666
1601132887967,1472,0.18017578,1.6537476,-0.19732666
1601132887967,1473,0.26220703,0.4874878,0.14007568
1601132887973,1474,0.5563965,0.61102295,0.044128418
1601132887974,1475,0.18017578,1.6537476,-0.19732666
1601132887974,1476,-0.053955078,0.4557495,0.14935303
1601132887974,1477,0.5563965,0.61102295,0.044128418
1601132887974,1478,0.40844727,1.1400757,0.3534546
1601132887974,1479,0.059570312,1.3988647,0.012878418
1601132887974,1480,0.059570312,1.3988647,0.012878418
1601132887974,1481,0.059570312,1.3988647,0.012878418
1601132887974,1482,-0.053955078,0.4557495,0.14935303
1601132887974,1483,0.5563965,0.61102295,0.044128418
1601132887976,1484,0.059570312,1.3988647,0.012878418
1601132887977,1485,-0.09301758,1.3746948,0.35028076
1601132887978,1486,0.26220703,0.4874878,0.14007568
1601132887979,1487,0.18017578,1.6537476,-0.19732666
1601132887986,1488,0.26220703,0.4874878,0.14007568
1601132887987,1489,0.18017578,1.6537476,-0.19732666
1601132887987,1490,0.40844727,1.1400757,0.3534546
1601132887987,1491,0.26220703,0.4874878,0.14007568
1601132887987,1492,0.5563965,0.61102295,0.044128418
1601132887987,1493,0.5563965,0.61102295,0.044128418
1601132887987,1494,-0.013183594,0.5704956,0.05731201
1601132887987,1495,0.5563965,0.61102295,0.044128418
1601132887987,1496,0.3955078,0.094177246,-0.12799072
1601132887987,1497,0.059570312,1.3988647,0.012878418
1601132887987,1498,0.059570312,1.3988647,0.012878418
1601132887988,1499,0.07739258,1.6954956,0.2526245
1601132887988,1500,0.059570312,1.3988647,0.012878418
1601132887988,1501,-0.09301758,1.3746948,0.35028076
1601132887988,1502,-0.25830078,1.3566284,-0.003967285
1601132887988,1503,0.26220703,0.4874878,0.14007568
1601132887988,1504,0.26220703,0.4874878,0.14007568
1601132887988,1505,-0.4975586,0.99017334,0.09881592
1601132887988,1506,0.26220703,0.4874878,0.14007568
1601132887992,1507,0.5563965,0.61102295,0.044128418
1601132887992,1508,0.5563965,0.61102295,0.044128418
1601132887992,1509,0.5563965,0.61102295,0.044128418
1601132887992,1510,0.40844727,1.1400757,0.3534546
1601132887992,1511,-0.013183594,0.5704956,0.05731201
1601132887992,1512,0.26220703,0.4874878,0.14007568
1601132887992,1513,0.40844727,1.1400757,0.3534546
1601132887992,1514,-0.08081055,0.6364136,0.17962646
1601132887993,1515,0.40844727,1.1400757,0.3534546
1601132887993,1516,0.40844727,1.1400757,0.3534546
1601132887994,1517,0.26220703,0.4874878,0.14007568
1601132887996,1518,0.40844727,1.1400757,0.3534546
1601132888002,1519,-0.09301758,1.3746948,0.35028076
1601132888004,1520,0.40844727,1.1400757,0.3534546
1601132888005,1521,0.26220703,0.4874878,0.14007568
1601132888005,1522,-0.09301758,1.3746948,0.35028076
1601132888005,1523,-0.4777832,0.8134155,0.4381714
1601132888005,1524,0.40844727,1.1400757,0.3534546
1601132888005,1525,-0.09301758,1.3746948,0.35028076
1601132888005,1526,-0.09301758,1.3746948,0.35028076
1601132888005,1527,-0.09301758,1.3746948,0.35028076
1601132888006,1528,0.40844727,1.1400757,0.3534546
1601132888006,1529,-0.013183594,0.5704956,0.05731201
1601132888006,1530,0.3955078,0.094177246,-0.12799072
1601132888006,1531,-0.09301758,1.3746948,0.35028076
1601132888007,1532,-0.09301758,1.3746948,0.35028076
1601132888007,1533,-0.36938477,1.0543823,-0.14898682
1601132888009,1534,-0.013183594,0.5704956,0.05731201
1601132888009,1535,0.3955078,0.094177246,-0.12799072
1601132888013,1536,0.07739258,1.6954956,0.2526245
1601132888013,1537,-0.017578125,1.0065308,-0.2835083
1601132888013,1538,-0.013183594,0.5704956,0.05731201
1601132888013,1539,-0.013183594,0.5704956,0.05731201
1601132888013,1540,-0.45629883,0.8619995,0.46990967
1601132888013,1541,0.3955078,0.094177246,-0.12799072
1601132888014,1542,-0.013183594,0.5704956,0.05731201
1601132888015,1543,0.3955078,0.094177246,-0.12799072
1601132888016,1544,0.3955078,0.094177246,-0.12799072
1601132888016,1545,0.07739258,1.6954956,0.2526245
1601132888016,1546,0.07739258,1.6954956,0.2526245
1601132888016,1547,-0.013183594,0.5704956,0.05731201
1601132888016,1548,-0.25830078,1.3566284,-0.003967285
1601132888016,1549,-0.107177734,0.75457764,0.20697021
1601132888024,1550,0.3955078,0.094177246,-0.12799072
1601132888025,1551,-0.09301758,1.3746948,0.35028076
1601132888025,1552,0.07739258,1.6954956,0.2526245
1601132888025,1553,-0.013183594,0.5704956,0.05731201
1601132888025,1554,-0.25830078,1.3566284,-0.003967285
1601132888025,1555,-0.25830078,1.3566284,-0.003967285
1601132888025,1556,0.3955078,0.094177246,-0.12799072
1601132888025,1557,-0.013183594,0.5704956,0.05731201
1601132888025,1558,-0.4975586,0.99017334,0.09881592
1601132888025,1559,-0.59277344,1.0946655,-0.10821533
1601132888025,1560,-0.25830078,1.3566284,-0.003967285
1601132888025,1561,0.07739258,1.6954956,0.2526245
1601132888025,1562,0.07739258,1.6954956,0.2526245
1601132888033,1563,-0.4975586,0.99017334,0.09881592
1601132888033,1564,-0.4975586,0.99017334,0.09881592
1601132888034,1565,-0.08081055,0.6364136,0.17962646
1601132888034,1566,-0.08081055,0.6364136,0.17962646
1601132888034,1567,0.3955078,0.094177246,-0.12799072
1601132888034,1568,-0.4777832,0.8134155,0.4381714
1601132888034,1569,-0.119628906,1.2174683,0.21722412
1601132888034,1570,0.3955078,0.094177246,-0.12799072
1601132888035,1571,-0.25830078,1.3566284,-0.003967285
1601132888035,1572,0.23535156,1.3244019,0.4491577
1601132888035,1573,0.07739258,1.6954956,0.2526245
1601132888035,1574,-0.41333008,0.23846436,-0.051330566
1601132888035,1575,-0.25830078,1.3566284,-0.003967285
1601132888035,1576,0.07739258,1.6954956,0.2526245
1601132888036,1577,-0.08081055,0.6364136,0.17962646
1601132888036,1578,-0.4975586,0.99017334,0.09881592
1601132888036,1579,0.02368164,0.88983154,-0.32891846
1601132888036,1580,-0.25830078,1.3566284,-0.003967285
1601132888036,1581,-0.4777832,0.8134155,0.4381714
1601132888036,1582,-0.4975586,0.99017334,0.09881592
1601132888036,1583,-0.4777832,0.8134155,0.4381714
1601132888037,1584,-0.08081055,0.6364136,0.17962646
1601132888037,1585,-0.36938477,1.0543823,-0.14898682
1601132888058,1586,0.857666,1.5563354,-0.070373535
1601132888058,1587,-0.08081055,0.6364136,0.17962646
1601132888058,1588,-0.4975586,0.99017334,0.09881592
1601132888058,1589,-0.36938477,1.0543823,-0.14898682
1601132888058,1590,0.5488281,1.2311401,0.21429443
1601132888058,1591,-0.36938477,1.0543823,-0.14898682
1601132888058,1592,-0.25830078,1.3566284,-0.003967285
1601132888058,1593,-0.4975586,0.99017334,0.09881592
1601132888058,1594,-0.017578125,1.0065308,-0.2835083
1601132888058,1595,-0.4777832,0.8134155,0.4381714
1601132888059,1596,-0.45629883,0.8619995,0.46990967
1601132888059,1597,-0.4777832,0.8134155,0.4381714
1601132888059,1598,0.07739258,1.6954956,0.2526245
1601132888059,1599,-0.08081055,0.6364136,0.17962646
1601132888059,1600,0.36547852,0.63494873,-0.13360596
1601132888059,1601,-0.08081055,0.6364136,0.17962646
1601132888059,1602,-0.4777832,0.8134155,0.4381714
1601132888059,1603,-0.017578125,1.0065308,-0.2835083
1601132888059,1604,-0.4975586,0.99017334,0.09881592
1601132888059,1605,-0.36938477,1.0543823,-0.14898682
1601132888059,1606,-0.36938477,1.0543823,-0.14898682
1601132888059,1607,-0.36938477,1.0543823,-0.14898682
1601132888059,1608,-0.107177734,0.75457764,0.20697021
1601132888059,1609,-0.017578125,1.0065308,-0.2835083
1601132888059,1610,0.16577148,0.6141968,0.03729248
1601132888059,1611,-0.25830078,1.3566284,-0.003967285
1601132888060,1612,-0.59277344,1.0946655,-0.10821533
1601132888060,1613,-0.4777832,0.8134155,0.4381714
1601132888060,1614,-0.45629883,0.8619995,0.46990967
1601132888060,1615,-0.119628906,1.2174683,0.21722412
1601132888060,1616,-0.017578125,1.0065308,-0.2835083
1601132888060,1617,-0.017578125,1.0065308,-0.2835083
1601132888060,1618,-0.017578125,1.0065308,-0.2835083
1601132888060,1619,-0.45629883,0.8619995,0.46990967
1601132888061,1620,-0.4975586,0.99017334,0.09881592
1601132888061,1621,-0.08081055,0.6364136,0.17962646
1601132888074,1622,-0.107177734,0.75457764,0.20697021
1601132888074,1623,-0.45629883,0.8619995,0.46990967
1601132888074,1624,0.23535156,1.3244019,0.4491577
1601132888075,1625,-0.107177734,0.75457764,0.20697021
1601132888075,1626,0.14160156,1.1622925,0.13153076
1601132888075,1627,-0.107177734,0.75457764,0.20697021
1601132888075,1628,-0.41333008,0.23846436,-0.051330566
1601132888075,1629,-0.45629883,0.8619995,0.46990967
1601132888075,1630,-0.45629883,0.8619995,0.46990967
1601132888075,1631,-0.107177734,0.75457764,0.20697021
1601132888075,1632,-0.59277344,1.0946655,-0.10821533
1601132888076,1633,-0.59277344,1.0946655,-0.10821533
1601132888076,1634,-0.4777832,0.8134155,0.4381714
1601132888076,1635,-0.59277344,1.0946655,-0.10821533
1601132888076,1636,-0.36938477,1.0543823,-0.14898682
1601132888076,1637,0.13500977,0.75408936,-0.12042236
1601132888076,1638,-0.59277344,1.0946655,-0.10821533
1601132888077,1639,-0.36938477,1.0543823,-0.14898682
1601132888077,1640,-0.017578125,1.0065308,-0.2835083
1601132888093,1641,-0.08081055,0.6364136,0.17962646
1601132888093,1642,-0.119628906,1.2174683,0.21722412
1601132888093,1643,-0.119628906,1.2174683,0.21722412
1601132888093,1644,-0.119628906,1.2174683,0.21722412
1601132888093,1645,0.02368164,0.88983154,-0.32891846
1601132888096,1646,0.14477539,1.2208862,0.26361084
1601132888096,1647,-0.119628906,1.2174683,0.21722412
1601132888096,1648,0.857666,1.5563354,-0.070373535
1601132888096,1649,-0.107177734,0.75457764,0.20697021
1601132888096,1650,-0.45629883,0.8619995,0.46990967
1601132888096,1651,-0.017578125,1.0065308,-0.2835083
1601132888096,1652,0.5488281,1.2311401,0.21429443
1601132888096,1653,-0.45629883,0.8619995,0.46990967
1601132888096,1654,0.23535156,1.3244019,0.4491577
1601132888096,1655,0.36547852,0.63494873,-0.13360596
1601132888097,1656,0.23535156,1.3244019,0.4491577
1601132888097,1657,-0.4777832,0.8134155,0.4381714
1601132888097,1658,0.16577148,0.6141968,0.03729248
1601132888099,1659,0.23535156,1.3244019,0.4491577
1601132888099,1660,0.23535156,1.3244019,0.4491577
1601132888100,1661,-0.107177734,0.75457764,0.20697021
1601132888100,1662,-0.23510742,1.3712769,0.3756714
1601132888100,1663,-0.59277344,1.0946655,-0.10821533
1601132888100,1664,-0.107177734,0.75457764,0.20697021
1601132888100,1665,-0.41333008,0.23846436,-0.051330566
1601132888100,1666,-0.41333008,0.23846436,-0.051330566
1601132888100,1667,-0.36938477,1.0543823,-0.14898682
1601132888113,1668,0.14160156,1.1622925,0.13153076
1601132888113,1669,-0.41333008,0.23846436,-0.051330566
1601132888113,1670,-0.41333008,0.23846436,-0.051330566
1601132888114,1671,0.02368164,0.88983154,-0.32891846
1601132888114,1672,-0.59277344,1.0946655,-0.10821533
1601132888114,1673,-0.59277344,1.0946655,-0.10821533
1601132888114,1674,-0.29589844,1.0165405,0.061706543
1601132888114,1675,-0.119628906,1.2174683,0.21722412
1601132888120,1676,0.02368164,0.88983154,-0.32891846
1601132888120,1677,-0.017578125,1.0065308,-0.2835083
1601132888123,1678,0.02368164,0.88983154,-0.32891846
1601132888123,1679,0.857666,1.5563354,-0.070373535
1601132888123,1680,0.02368164,0.88983154,-0.32891846
1601132888123,1681,-0.119628906,1.2174683,0.21722412
1601132888123,1682,0.5488281,1.2311401,0.21429443
1601132888123,1683,-0.119628906,1.2174683,0.21722412
1601132888123,1684,0.13500977,0.75408936,-0.12042236
1601132888123,1685,0.23535156,1.3244019,0.4491577
1601132888123,1686,0.14477539,1.2208862,0.26361084
1601132888123,1687,-0.45629883,0.8619995,0.46990967
1601132888124,1688,0.857666,1.5563354,-0.070373535
1601132888130,1689,0.5488281,1.2311401,0.21429443
1601132888130,1690,0.36547852,0.63494873,-0.13360596
1601132888130,1691,0.23535156,1.3244019,0.4491577
1601132888130,1692,0.36547852,0.63494873,-0.13360596
1601132888130,1693,0.23535156,1.3244019,0.4491577
1601132888130,1694,0.16577148,0.6141968,0.03729248
1601132888130,1695,-0.23510742,1.3712769,0.3756714
1601132888130,1696,-0.41333008,0.23846436,-0.051330566
1601132888130,1697,-0.41333008,0.23846436,-0.051330566
1601132888130,1698,-0.29589844,1.0165405,0.061706543
1601132888130,1699,0.16577148,0.6141968,0.03729248
1601132888130,1700,0.857666,1.5563354,-0.070373535
1601132888130,1701,0.02368164,0.88983154,-0.32891846
1601132888130,1702,0.14160156,1.1622925,0.13153076
1601132888131,1703,0.02368164,0.88983154,-0.32891846
1601132888131,1704,-0.107177734,0.75457764,0.20697021
1601132888131,1705,0.857666,1.5563354,-0.070373535
1601132888136,1706,0.5488281,1.2311401,0.21429443
1601132888136,1707,0.14160156,1.1622925,0.13153076
1601132888136,1708,0.857666,1.5563354,-0.070373535
1601132888136,1709,0.13500977,0.75408936,-0.12042236
1601132888136,1710,0.5488281,1.2311401,0.21429443
1601132888136,1711,-0.59277344,1.0946655,-0.10821533
1601132888136,1712,0.36547852,0.63494873,-0.13360596
1601132888136,1713,0.5488281,1.2311401,0.21429443
1601132888136,1714,0.16577148,0.6141968,0.03729248
1601132888137,1715,0.13500977,0.75408936,-0.12042236
1601132888137,1716,0.857666,1.5563354,-0.070373535
1601132888143,1717,-0.119628906,1.2174683,0.21722412
1601132888143,1718,0.36547852,0.63494873,-0.13360596
1601132888143,1719,0.36547852,0.63494873,-0.13360596
1601132888143,1720,0.16577148,0.6141968,0.03729248
1601132888143,1721,0.14160156,1.1622925,0.13153076
1601132888143,1722,0.14477539,1.2208862,0.26361084
1601132888143,1723,0.5488281,1.2311401,0.21429443
1601132888143,1724,0.14477539,1.2208862,0.26361084
1601132888143,1725,0.16577148,0.6141968,0.03729248
1601132888143,1726,-0.23510742,1.3712769,0.3756714
1601132888144,1727,0.23535156,1.3244019,0.4491577
1601132888144,1728,-0.41333008,0.23846436,-0.051330566
1601132888144,1729,-0.41333008,0.23846436,-0.051330566
1601132888144,1730,0.13500977,0.75408936,-0.12042236
1601132888144,1731,0.02368164,0.88983154,-0.32891846
1601132888150,1732,0.14160156,1.1622925,0.13153076
1601132888151,1733,-0.23510742,1.3712769,0.3756714
1601132888151,1734,-0.29589844,1.0165405,0.061706543
1601132888151,1735,0.02368164,0.88983154,-0.32891846
1601132888151,1736,-0.29589844,1.0165405,0.061706543
1601132888151,1737,0.36547852,0.63494873,-0.13360596
1601132888151,1738,0.857666,1.5563354,-0.070373535
1601132888151,1739,0.13500977,0.75408936,-0.12042236
1601132888153,1740,0.857666,1.5563354,-0.070373535
1601132888153,1741,0.14477539,1.2208862,0.26361084
1601132888157,1742,0.16577148,0.6141968,0.03729248
1601132888157,1743,-0.23510742,1.3712769,0.3756714
1601132888157,1744,0.14477539,1.2208862,0.26361084
1601132888157,1745,0.14160156,1.1622925,0.13153076
1601132888157,1746,-0.29589844,1.0165405,0.061706543
1601132888157,1747,-0.23510742,1.3712769,0.3756714
1601132888157,1748,0.5488281,1.2311401,0.21429443
1601132888157,1749,0.13500977,0.75408936,-0.12042236
1601132888161,1750,-0.29589844,1.0165405,0.061706543
1601132888162,1751,0.14160156,1.1622925,0.13153076
1601132888162,1752,0.36547852,0.63494873,-0.13360596
1601132888162,1753,0.5488281,1.2311401,0.21429443
1601132888162,1754,0.14477539,1.2208862,0.26361084
1601132888164,1755,0.13500977,0.75408936,-0.12042236
1601132888164,1756,0.36547852,0.63494873,-0.13360596
1601132888164,1757,0.16577148,0.6141968,0.03729248
1601132888164,1758,-0.23510742,1.3712769,0.3756714
1601132888167,1759,0.16577148,0.6141968,0.03729248
1601132888168,1760,0.14160156,1.1622925,0.13153076
1601132888168,1761,0.14477539,1.2208862,0.26361084
1601132888168,1762,-0.29589844,1.0165405,0.061706543
1601132888168,1763,0.13500977,0.75408936,-0.12042236
1601132888169,1764,0.14160156,1.1622925,0.13153076
1601132888169,1765,-0.23510742,1.3712769,0.3756714
1601132888169,1766,0.14477539,1.2208862,0.26361084
1601132888171,1767,0.13500977,0.75408936,-0.12042236
1601132888171,1768,-0.29589844,1.0165405,0.061706543
1601132888171,1769,-0.23510742,1.3712769,0.3756714
1601132888173,1770,0.14477539,1.2208862,0.26361084
1601132888173,1771,-0.29589844,1.0165405,0.061706543
1601132888173,1772,-0.23510742,1.3712769,0.3756714
1601132888175,1773,-0.29589844,1.0165405,0.061706543
1601132890115,1774,0.030273438,0.7514038,0.082214355
1601132890123,1775,0.030273438,0.7514038,0.082214355
1601132890124,1776,0.030273438,0.7514038,0.082214355
1601132890124,1777,0.030273438,0.7514038,0.082214355
1601132890124,1778,0.030273438,0.7514038,0.082214355
1601132890125,1779,-0.3725586,0.8217163,0.340271
1601132890125,1780,0.030273438,0.7514038,0.082214355
1601132890125,1781,-0.3725586,0.8217163,0.340271
1601132890125,1782,0.030273438,0.7514038,0.082214355
1601132890125,1783,-0.3725586,0.8217163,0.340271
1601132890126,1784,-0.64086914,0.7597046,0.19891357
1601132890126,1785,-0.64086914,0.7597046,0.19891357
1601132890126,1786,0.030273438,0.7514038,0.082214355
1601132890137,1787,0.030273438,0.7514038,0.082214355
1601132890137,1788,-0.3725586,0.8217163,0.340271
1601132890137,1789,-0.3725586,0.8217163,0.340271
1601132890137,1790,-0.3725586,0.8217163,0.340271
1601132890137,1791,-0.3725586,0.8217163,0.340271
1601132890137,1792,-0.06591797,1.1588745,-0.06060791
1601132890137,1793,0.030273438,0.7514038,0.082214355
1601132890137,1794,-0.06591797,1.1588745,-0.06060791
1601132890137,1795,-0.3725586,0.8217163,0.340271
1601132890137,1796,-0.3725586,0.8217163,0.340271
1601132890138,1797,-0.64086914,0.7597046,0.19891357
1601132890138,1798,-0.3725586,0.8217163,0.340271
1601132890138,1799,-0.64086914,0.7597046,0.19891357
1601132890138,1800,-0.64086914,0.7597046,0.19891357
1601132890138,1801,-0.64086914,0.7597046,0.19891357
1601132890138,1802,-0.06591797,1.1588745,-0.06060791
1601132890138,1803,-0.64086914,0.7597046,0.19891357
1601132890138,1804,-0.06591797,1.1588745,-0.06060791
1601132890138,1805,-0.06591797,1.1588745,-0.06060791
1601132890138,1806,-0.06591797,1.1588745,-0.06060791
1601132890138,1807,-0.64086914,0.7597046,0.19891357
1601132890139,1808,-0.06591797,1.1588745,-0.06060791
1601132890139,1809,-0.21875,0.98309326,0.08001709
1601132890139,1810,-0.21875,0.98309326,0.08001709
1601132890145,1811,-0.21875,0.98309326,0.08001709
1601132890145,1812,-0.21875,0.98309326,0.08001709
1601132890145,1813,-0.21875,0.98309326,0.08001709
1601132890145,1814,-0.06591797,1.1588745,-0.06060791
1601132890145,1815,-0.64086914,0.7597046,0.19891357
1601132890145,1816,-0.21875,0.98309326,0.08001709
1601132890145,1817,-0.13720703,0.67181396,0.2880249
1601132890146,1818,-0.64086914,0.7597046,0.19891357
1601132890146,1819,-0.13720703,0.67181396,0.2880249
1601132890146,1820,-0.21655273,1.0692749,-0.07965088
1601132890146,1821,-0.06591797,1.1588745,-0.06060791
1601132890146,1822,-0.13720703,0.67181396,0.2880249
1601132890147,1823,-0.13720703,0.67181396,0.2880249
1601132890147,1824,-0.06591797,1.1588745,-0.06060791
1601132890148,1825,-0.21875,0.98309326,0.08001709
1601132890152,1826,-0.21655273,1.0692749,-0.07965088
1601132890152,1827,-0.3762207,1.0304565,-0.061584473
1601132890153,1828,-0.21875,0.98309326,0.08001709
1601132890153,1829,-0.3762207,1.0304565,-0.061584473
1601132890153,1830,-0.21875,0.98309326,0.08001709
1601132890153,1831,-0.24682617,0.791687,0.09637451
1601132890153,1832,-0.13720703,0.67181396,0.2880249
1601132890153,1833,-0.21875,0.98309326,0.08001709
1601132890153,1834,-0.13720703,0.67181396,0.2880249
1601132890153,1835,-0.13720703,0.67181396,0.2880249
1601132890153,1836,-0.0031738281,0.92401123,0.050231934
1601132890161,1837,-0.24682617,0.791687,0.09637451
1601132890162,1838,-0.13720703,0.67181396,0.2880249
1601132890162,1839,-0.21655273,1.0692749,-0.07965088
1601132890162,1840,-0.13720703,0.67181396,0.2880249
1601132890162,1841,-0.21655273,1.0692749,-0.07965088
1601132890162,1842,-0.21655273,1.0692749,-0.07965088
1601132890162,1843,-0.13720703,0.67181396,0.2880249
1601132890162,1844,-0.21655273,1.0692749,-0.07965088
1601132890163,1845,-0.21655273,1.0692749,-0.07965088
1601132890163,1846,0.26489258,1.0031128,-0.054992676
1601132890163,1847,-0.21655273,1.0692749,-0.07965088
1601132890163,1848,-0.3762207,1.0304565,-0.061584473
1601132890163,1849,-0.21655273,1.0692749,-0.07965088
1601132890163,1850,-0.3762207,1.0304565,-0.061584473
1601132890163,1851,-0.3762207,1.0304565,-0.061584473
1601132890163,1852,-0.21655273,1.0692749,-0.07965088
1601132890163,1853,-0.3762207,1.0304565,-0.061584473
1601132890167,1854,-0.3762207,1.0304565,-0.061584473
1601132890167,1855,-0.0031738281,0.92401123,0.050231934
1601132890168,1856,0.24584961,1.16156,0.09588623
1601132890168,1857,-0.3762207,1.0304565,-0.061584473
1601132890168,1858,-0.3762207,1.0304565,-0.061584473
1601132890168,1859,-0.24682617,0.791687,0.09637451
1601132890168,1860,-0.24682617,0.791687,0.09637451
1601132890168,1861,-0.24682617,0.791687,0.09637451
1601132890168,1862,-0.3762207,1.0304565,-0.061584473
1601132890168,1863,-0.24682617,0.791687,0.09637451
1601132890169,1864,-0.24682617,0.791687,0.09637451
1601132890170,1865,0.26489258,1.0031128,-0.054992676
1601132890170,1866,-0.24682617,0.791687,0.09637451
1601132890182,1867,0.41870117,0.79559326,0.262146
1601132890182,1868,-0.0031738281,0.92401123,0.050231934
1601132890182,1869,-0.0031738281,0.92401123,0.050231934
1601132890182,1870,-0.24682617,0.791687,0.09637451
1601132890182,1871,-0.0031738281,0.92401123,0.050231934
1601132890182,1872,0.26489258,1.0031128,-0.054992676
1601132890182,1873,-0.0031738281,0.92401123,0.050231934
1601132890182,1874,-0.0031738281,0.92401123,0.050231934
1601132890182,1875,-0.0031738281,0.92401123,0.050231934
1601132890182,1876,-0.0031738281,0.92401123,0.050231934
1601132890184,1877,0.24584961,1.16156,0.09588623
1601132890184,1878,0.26489258,1.0031128,-0.054992676
1601132890184,1879,0.26489258,1.0031128,-0.054992676
1601132890185,1880,0.41870117,0.79559326,0.262146
1601132890186,1881,0.24584961,1.16156,0.09588623
1601132890186,1882,0.03173828,0.6871948,0.054138184
1601132890186,1883,0.5810547,1.2182007,0.07220459
1601132890187,1884,0.41870117,0.79559326,0.262146
1601132890187,1885,0.03173828,0.6871948,0.054138184
1601132890187,1886,0.26489258,1.0031128,-0.054992676
1601132890187,1887,0.03173828,0.6871948,0.054138184
1601132890187,1888,0.26489258,1.0031128,-0.054992676
1601132890187,1889,0.26489258,1.0031128,-0.054992676
1601132890187,1890,0.24584961,1.16156,0.09588623
1601132890187,1891,0.24584961,1.16156,0.09588623
1601132890187,1892,0.26489258,1.0031128,-0.054992676
1601132890187,1893,0.3972168,1.057312,0.17767334
1601132890187,1894,0.24584961,1.16156,0.09588623
1601132890187,1895,-0.24682617,0.791687,0.09637451
1601132890187,1896,-0.42919922,0.5187378,0.47113037
1601132890187,1897,-0.0031738281,0.92401123,0.050231934
1601132890187,1898,0.24584961,1.16156,0.09588623
1601132890188,1899,0.26489258,1.0031128,-0.054992676
1601132890188,1900,0.24584961,1.16156,0.09588623
1601132890188,1901,0.41870117,0.79559326,0.262146
1601132890188,1902,0.41870117,0.79559326,0.262146
1601132890196,1903,0.41870117,0.79559326,0.262146
1601132890199,1904,0.5810547,1.2182007,0.07220459
1601132890200,1905,0.5810547,1.2182007,0.07220459
1601132890200,1906,0.03173828,0.6871948,0.054138184
1601132890200,1907,0.24584961,1.16156,0.09588623
1601132890200,1908,0.24584961,1.16156,0.09588623
1601132890200,1909,0.41870117,0.79559326,0.262146
1601132890200,1910,0.41870117,0.79559326,0.262146
1601132890200,1911,0.03173828,0.6871948,0.054138184
1601132890200,1912,0.03173828,0.6871948,0.054138184
1601132890200,1913,0.03173828,0.6871948,0.054138184
1601132890204,1914,0.16381836,0.42718506,-0.48931885
1601132890205,1915,0.3972168,1.057312,0.17767334
1601132890205,1916,0.3972168,1.057312,0.17767334
1601132890205,1917,0.5810547,1.2182007,0.07220459
1601132890205,1918,0.41870117,0.79559326,0.262146
1601132890205,1919,0.41870117,0.79559326,0.262146
1601132890205,1920,0.9116211,1.4874878,-0.08087158
1601132890205,1921,0.3972168,1.057312,0.17767334
1601132890205,1922,0.5810547,1.2182007,0.07220459
1601132890205,1923,0.5810547,1.2182007,0.07220459
1601132890205,1924,-0.42919922,0.5187378,0.47113037
1601132890205,1925,0.03173828,0.6871948,0.054138184
1601132890206,1926,-0.42919922,0.5187378,0.47113037
1601132890206,1927,-0.42919922,0.5187378,0.47113037
1601132890206,1928,0.07739258,0.8900757,-0.23223877
1601132890206,1929,0.5810547,1.2182007,0.07220459
1601132890206,1930,0.03173828,0.6871948,0.054138184
1601132890206,1931,0.16381836,0.42718506,-0.48931885
1601132890206,1932,0.3972168,1.057312,0.17767334
1601132890206,1933,0.3972168,1.057312,0.17767334
1601132890206,1934,0.03173828,0.6871948,0.054138184
1601132890206,1935,-0.27197266,0.78045654,0.028503418
1601132890212,1936,0.3972168,1.057312,0.17767334
1601132890212,1937,0.16381836,0.42718506,-0.48931885
1601132890213,1938,-0.42919922,0.5187378,0.47113037
1601132890213,1939,-0.42919922,0.5187378,0.47113037
1601132890213,1940,0.9116211,1.4874878,-0.08087158
1601132890213,1941,0.16381836,0.42718506,-0.48931885
1601132890213,1942,0.5810547,1.2182007,0.07220459
1601132890213,1943,-0.42919922,0.5187378,0.47113037
1601132890213,1944,0.9116211,1.4874878,-0.08087158
1601132890213,1945,0.5810547,1.2182007,0.07220459
1601132890213,1946,0.07739258,0.8900757,-0.23223877
1601132890214,1947,0.3972168,1.057312,0.17767334
1601132890214,1948,0.07739258,0.8900757,-0.23223877
1601132890215,1949,0.3972168,1.057312,0.17767334
1601132890215,1950,0.5810547,1.2182007,0.07220459
1601132890215,1951,-0.42919922,0.5187378,0.47113037
1601132890215,1952,0.16381836,0.42718506,-0.48931885
1601132890216,1953,0.16381836,0.42718506,-0.48931885
1601132890216,1954,-0.42919922,0.5187378,0.47113037
1601132890216,1955,0.9116211,1.4874878,-0.08087158
1601132890216,1956,-0.27197266,0.78045654,0.028503418
1601132890216,1957,0.16381836,0.42718506,-0.48931885
1601132890216,1958,-0.27197266,0.78045654,0.028503418
1601132890216,1959,0.9116211,1.4874878,-0.08087158
1601132890216,1960,0.9116211,1.4874878,-0.08087158
1601132890216,1961,0.3972168,1.057312,0.17767334
1601132890217,1962,-0.18041992,1.3148804,0.4389038
1601132890217,1963,-0.42919922,0.5187378,0.47113037
1601132890217,1964,-0.18041992,1.3148804,0.4389038
1601132890217,1965,0.16381836,0.42718506,-0.48931885
1601132890217,1966,-0.18041992,1.3148804,0.4389038
1601132890218,1967,0.07739258,0.8900757,-0.23223877
1601132890218,1968,0.9116211,1.4874878,-0.08087158
1601132890222,1969,0.07739258,0.8900757,-0.23223877
1601132890222,1970,-0.21484375,0.9118042,-0.33795166
1601132890222,1971,0.16381836,0.42718506,-0.48931885
1601132890222,1972,0.16381836,0.42718506,-0.48931885
1601132890222,1973,0.07739258,0.8900757,-0.23223877
1601132890222,1974,0.04663086,0.86761475,0.11224365
1601132890222,1975,-0.21484375,0.9118042,-0.33795166
1601132890222,1976,0.9116211,1.4874878,-0.08087158
1601132890223,1977,-0.16796875,0.71551514,-0.16729736
1601132890223,1978,0.04663086,0.86761475,0.11224365
1601132890227,1979,0.9116211,1.4874878,-0.08087158
1601132890227,1980,0.9116211,1.4874878,-0.08087158
1601132890227,1981,-0.27197266,0.78045654,0.028503418
1601132890228,1982,0.07739258,0.8900757,-0.23223877
1601132890228,1983,-0.27197266,0.78045654,0.028503418
1601132890228,1984,-0.21484375,0.9118042,-0.33795166
1601132890228,1985,0.07739258,0.8900757,-0.23223877
1601132890228,1986,0.07739258,0.8900757,-0.23223877
1601132890228,1987,-0.13330078,1.0604858,-0.22857666
1601132890228,1988,0.04663086,0.86761475,0.11224365
1601132890229,1989,-0.18041992,1.3148804,0.4389038
1601132890229,1990,-0.27197266,0.78045654,0.028503418
1601132890249,1991,0.07739258,0.8900757,-0.23223877
1601132890249,1992,-0.18041992,1.3148804,0.4389038
1601132890249,1993,-0.16796875,0.71551514,-0.16729736
1601132890249,1994,-0.27197266,0.78045654,0.028503418
1601132890250,1995,-0.27197266,0.78045654,0.028503418
1601132890250,1996,-0.21484375,0.9118042,-0.33795166
1601132890250,1997,-0.25952148,1.1027222,0.023620605
1601132890250,1998,0.04663086,0.86761475,0.11224365
1601132890250,1999,-0.18041992,1.3148804,0.4389038
1601132890250,2000,-0.21484375,0.9118042,-0.33795166
1601132890250,2001,-0.16796875,0.71551514,-0.16729736
1601132890250,2002,-0.27197266,0.78045654,0.028503418
1601132890250,2003,-0.16796875,0.71551514,-0.16729736
1601132890250,2004,-0.13330078,1.0604858,-0.22857666
1601132890250,2005,-0.18041992,1.3148804,0.4389038
1601132890251,2006,-0.115722656,0.9059448,-0.004699707
1601132890251,2007,-0.21484375,0.9118042,-0.33795166
1601132890251,2008,-0.21484375,0.9118042,-0.33795166
1601132890251,2009,-0.18041992,1.3148804,0.4389038
1601132890251,2010,-0.18041992,1.3148804,0.4389038
1601132890251,2011,0.04663086,0.86761475,0.11224365
1601132890251,2012,-0.13330078,1.0604858,-0.22857666
1601132890251,2013,-0.27197266,0.78045654,0.028503418
1601132890251,2014,-0.13330078,1.0604858,-0.22857666
1601132890251,2015,-0.16796875,0.71551514,-0.16729736
1601132890251,2016,-0.25952148,1.1027222,0.023620605
1601132890251,2017,-0.13330078,1.0604858,-0.22857666
1601132890251,2018,0.04663086,0.86761475,0.11224365
1601132890251,2019,0.04663086,0.86761475,0.11224365
1601132890252,2020,-0.16796875,0.71551514,-0.16729736
1601132890252,2021,-0.21484375,0.9118042,-0.33795166
1601132890252,2022,-0.13330078,1.0604858,-0.22857666
1601132890252,2023,-0.16796875,0.71551514,-0.16729736
1601132890252,2024,-0.25952148,1.1027222,0.023620605
1601132890252,2025,-0.18041992,1.3148804,0.4389038
1601132890252,2026,-0.13330078,1.0604858,-0.22857666
1601132890252,2027,-0.115722656,0.9059448,-0.004699707
1601132890253,2028,-0.115722656,0.9059448,-0.004699707
1601132890253,2029,-0.21484375,0.9118042,-0.33795166
1601132890253,2030,-0.0078125,0.8703003,-0.112854004
1601132890253,2031,0.04663086,0.86761475,0.11224365
1601132890253,2032,-0.25952148,1.1027222,0.023620605
1601132890253,2033,-0.25952148,1.1027222,0.023620605
1601132890253,2034,-0.0078125,0.8703003,-0.112854004
1601132890253,2035,-0.21484375,0.9118042,-0.33795166
1601132890254,2036,-0.25952148,1.1027222,0.023620605
1601132890254,2037,-0.25952148,1.1027222,0.023620605
1601132890254,2038,-0.0078125,0.8703003,-0.112854004
1601132890254,2039,0.04663086,0.86761475,0.11224365
1601132890254,2040,-0.4934082,0.8119507,0.018981934
1601132890254,2041,-0.4934082,0.8119507,0.018981934
1601132890261,2042,-0.32910156,1.2750854,-0.2131958
1601132890262,2043,0.04663086,0.86761475,0.11224365
1601132890262,2044,-0.4934082,0.8119507,0.018981934
1601132890262,2045,-0.115722656,0.9059448,-0.004699707
1601132890262,2046,-0.115722656,0.9059448,-0.004699707
1601132890262,2047,-0.115722656,0.9059448,-0.004699707
1601132890262,2048,-0.32910156,1.2750854,-0.2131958
1601132890262,2049,-0.16796875,0.71551514,-0.16729736
1601132890262,2050,-0.16796875,0.71551514,-0.16729736
1601132890262,2051,-0.115722656,0.9059448,-0.004699707
1601132890263,2052,-0.0078125,0.8703003,-0.112854004
1601132890271,2053,-0.4934082,0.8119507,0.018981934
1601132890271,2054,-0.0078125,0.8703003,-0.112854004
1601132890271,2055,-0.32910156,1.2750854,-0.2131958
1601132890271,2056,0.26782227,1.1520386,0.07196045
1601132890271,2057,-0.0078125,0.8703003,-0.112854004
1601132890271,2058,-0.4934082,0.8119507,0.018981934
1601132890271,2059,0.26782227,1.1520386,0.07196045
1601132890272,2060,-0.32910156,1.2750854,-0.2131958
1601132890272,2061,-0.13330078,1.0604858,-0.22857666
1601132890272,2062,0.26782227,1.1520386,0.07196045
1601132890272,2063,-0.0078125,0.8703003,-0.112854004
1601132890272,2064,-0.25952148,1.1027222,0.023620605
1601132890273,2065,-0.32910156,1.2750854,-0.2131958
1601132890273,2066,-0.115722656,0.9059448,-0.004699707
1601132890273,2067,-0.4934082,0.8119507,0.018981934
1601132890273,2068,-0.0078125,0.8703003,-0.112854004
1601132890273,2069,0.26782227,1.1520386,0.07196045
1601132890273,2070,0.26782227,1.1520386,0.07196045
1601132890274,2071,-0.16796875,0.71551514,-0.16729736
1601132890274,2072,-0.32910156,1.2750854,-0.2131958
1601132890281,2073,-0.4934082,0.8119507,0.018981934
1601132890281,2074,-0.4934082,0.8119507,0.018981934
1601132890281,2075,-0.13330078,1.0604858,-0.22857666
1601132890281,2076,-0.13330078,1.0604858,-0.22857666
1601132890281,2077,0.26782227,1.1520386,0.07196045
1601132890281,2078,-0.25952148,1.1027222,0.023620605
1601132890281,2079,-0.32910156,1.2750854,-0.2131958
1601132890282,2080,-0.32910156,1.2750854,-0.2131958
1601132890282,2081,0.26782227,1.1520386,0.07196045
1601132890283,2082,-0.115722656,0.9059448,-0.004699707
1601132890283,2083,0.26782227,1.1520386,0.07196045
1601132890285,2084,-0.0078125,0.8703003,-0.112854004
1601132890285,2085,-0.25952148,1.1027222,0.023620605
1601132890287,2086,-0.4934082,0.8119507,0.018981934
1601132890287,2087,-0.115722656,0.9059448,-0.004699707
1601132890287,2088,-0.32910156,1.2750854,-0.2131958
1601132890288,2089,-0.0078125,0.8703003,-0.112854004
1601132890288,2090,0.26782227,1.1520386,0.07196045
1601132890288,2091,-0.4934082,0.8119507,0.018981934
1601132890290,2092,-0.32910156,1.2750854,-0.2131958
1601132890291,2093,0.26782227,1.1520386,0.07196045
1601132892617,2094,-0.0014648438,0.8512573,0.15667725
1601132892619,2095,-0.0014648438,0.8512573,0.15667725
1601132892619,2096,-0.0014648438,0.8512573,0.15667725
1601132892619,2097,-0.0014648438,0.8512573,0.15667725
1601132892620,2098,-0.0014648438,0.8512573,0.15667725
1601132892620,2099,-0.0014648438,0.8512573,0.15667725
1601132892620,2100,-0.0014648438,0.8512573,0.15667725
1601132892620,2101,0.2578125,0.8649292,0.28778076
1601132892620,2102,0.2578125,0.8649292,0.28778076
1601132892620,2103,-0.0014648438,0.8512573,0.15667725
1601132892620,2104,-0.0014648438,0.8512573,0.15667725
1601132892620,2105,0.2578125,0.8649292,0.28778076
1601132892630,2106,0.2578125,0.8649292,0.28778076
1601132892632,2107,-0.0014648438,0.8512573,0.15667725
1601132892632,2108,0.2578125,0.8649292,0.28778076
1601132892632,2109,0.2578125,0.8649292,0.28778076
1601132892632,2110,-0.07128906,0.37493896,0.29266357
1601132892632,2111,0.2578125,0.8649292,0.28778076
1601132892632,2112,0.2578125,0.8649292,0.28778076
1601132892632,2113,-0.07128906,0.37493896,0.29266357
1601132892632,2114,-0.07128906,0.37493896,0.29266357
1601132892632,2115,-0.07128906,0.37493896,0.29266357
1601132892633,2116,-0.07128906,0.37493896,0.29266357
1601132892634,2117,-0.07128906,0.37493896,0.29266357
1601132892634,2118,0.2578125,0.8649292,0.28778076
1601132892634,2119,-0.07128906,0.37493896,0.29266357
1601132892634,2120,-0.07128906,0.37493896,0.29266357
1601132892634,2121,-0.07128906,0.37493896,0.29266357
1601132892634,2122,-0.2915039,0.48553467,0.4640503
1601132892634,2123,-0.2915039,0.48553467,0.4640503
1601132892634,2124,-0.2915039,0.48553467,0.4640503
1601132892635,2125,-0.2915039,0.48553467,0.4640503
1601132892635,2126,-0.2915039,0.48553467,0.4640503
1601132892635,2127,-0.2915039,0.48553467,0.4640503
1601132892635,2128,-0.76342773,1.3815308,0.369812
1601132892635,2129,-0.2915039,0.48553467,0.4640503
1601132892635,2130,1.1413574,1.2450562,0.4442749
1601132892637,2131,-0.76342773,1.3815308,0.369812
1601132892637,2132,-0.76342773,1.3815308,0.369812
1601132892637,2133,-0.2915039,0.48553467,0.4640503
1601132892637,2134,1.1413574,1.2450562,0.4442749
1601132892637,2135,-0.76342773,1.3815308,0.369812
1601132892637,2136,-0.2019043,0.9039917,0.322937
1601132892637,2137,-0.2915039,0.48553467,0.4640503
1601132892638,2138,0.2578125,0.8649292,0.28778076
1601132892638,2139,-0.096191406,0.57684326,0.40985107
1601132892638,2140,1.1413574,1.2450562,0.4442749
1601132892638,2141,-0.2019043,0.9039917,0.322937
1601132892638,2142,-0.2019043,0.9039917,0.322937
1601132892638,2143,-0.76342773,1.3815308,0.369812
1601132892638,2144,-0.76342773,1.3815308,0.369812
1601132892638,2145,-0.76342773,1.3815308,0.369812
1601132892638,2146,-0.07128906,0.37493896,0.29266357
1601132892638,2147,-0.76342773,1.3815308,0.369812
1601132892638,2148,-0.76342773,1.3815308,0.369812
1601132892638,2149,1.1413574,1.2450562,0.4442749
1601132892638,2150,-0.096191406,0.57684326,0.40985107
1601132892638,2151,1.1413574,1.2450562,0.4442749
1601132892638,2152,-0.096191406,0.57684326,0.40985107
1601132892641,2153,0.4855957,1.0424194,0.1071167
1601132892641,2154,1.1413574,1.2450562,0.4442749
1601132892641,2155,-0.2915039,0.48553467,0.4640503
1601132892641,2156,1.1413574,1.2450562,0.4442749
1601132892641,2157,1.1413574,1.2450562,0.4442749
1601132892641,2158,0.4855957,1.0424194,0.1071167
1601132892642,2159,1.1413574,1.2450562,0.4442749
1601132892642,2160,-0.2019043,0.9039917,0.322937
1601132892642,2161,0.5275879,0.8007202,0.08392334
1601132892642,2162,-0.2019043,0.9039917,0.322937
1601132892642,2163,-0.2019043,0.9039917,0.322937
1601132892643,2164,0.5275879,0.8007202,0.08392334
1601132892644,2165,-0.1459961,0.52337646,-0.2053833
1601132892644,2166,-0.2019043,0.9039917,0.322937
1601132892645,2167,-0.76342773,1.3815308,0.369812
1601132892646,2168,-0.096191406,0.57684326,0.40985107
1601132892646,2169,-0.2019043,0.9039917,0.322937
1601132892646,2170,0.4855957,1.0424194,0.1071167
1601132892646,2171,-0.096191406,0.57684326,0.40985107
1601132892646,2172,-0.096191406,0.57684326,0.40985107
1601132892647,2173,0.4855957,1.0424194,0.1071167
1601132892647,2174,-0.1459961,0.52337646,-0.2053833
1601132892647,2175,0.5275879,0.8007202,0.08392334
1601132892647,2176,-0.096191406,0.57684326,0.40985107
1601132892647,2177,1.1413574,1.2450562,0.4442749
1601132892648,2178,0.5275879,0.8007202,0.08392334
1601132892660,2179,0.4855957,1.0424194,0.1071167
1601132892660,2180,0.4855957,1.0424194,0.1071167
1601132892661,2181,0.053466797,1.41156,-0.06500244
1601132892661,2182,-0.1459961,0.52337646,-0.2053833
1601132892661,2183,-0.096191406,0.57684326,0.40985107
1601132892661,2184,0.4855957,1.0424194,0.1071167
1601132892661,2185,-0.2019043,0.9039917,0.322937
1601132892661,2186,0.053466797,1.41156,-0.06500244
1601132892661,2187,-0.1459961,0.52337646,-0.2053833
1601132892661,2188,-0.096191406,0.57684326,0.40985107
1601132892661,2189,0.5275879,0.8007202,0.08392334
1601132892661,2190,0.053466797,1.41156,-0.06500244
1601132892661,2191,-0.2019043,0.9039917,0.322937
1601132892661,2192,-0.1459961,0.52337646,-0.2053833
1601132892661,2193,0.4855957,1.0424194,0.1071167
1601132892662,2194,-0.022460938,1.3449097,0.5717163
1601132892662,2195,0.5275879,0.8007202,0.08392334
1601132892662,2196,0.5275879,0.8007202,0.08392334
1601132892662,2197,-0.3605957,0.84417725,-0.12872314
1601132892662,2198,0.5275879,0.8007202,0.08392334
1601132892662,2199,-0.1459961,0.52337646,-0.2053833
1601132892662,2200,-0.022460938,1.3449097,0.5717163
1601132892662,2201,-0.096191406,0.57684326,0.40985107
1601132892662,2202,-0.1459961,0.52337646,-0.2053833
1601132892662,2203,0.4855957,1.0424194,0.1071167
1601132892662,2204,-0.022460938,1.3449097,0.5717163
1601132892662,2205,-0.3605957,0.84417725,-0.12872314
1601132892662,2206,0.016601562,0.97821045,0.0211792
1601132892662,2207,0.4855957,1.0424194,0.1071167
1601132892663,2208,0.053466797,1.41156,-0.06500244
1601132892663,2209,0.5275879,0.8007202,0.08392334
1601132892663,2210,-0.1459961,0.52337646,-0.2053833
1601132892663,2211,0.053466797,1.41156,-0.06500244
1601132892663,2212,0.053466797,1.41156,-0.06500244
1601132892663,2213,0.5275879,0.8007202,0.08392334
1601132892663,2214,0.053466797,1.41156,-0.06500244
1601132892663,2215,-0.3605957,0.84417725,-0.12872314
1601132892663,2216,0.016601562,0.97821045,0.0211792
1601132892663,2217,-0.3635254,0.82977295,-0.18121338
1601132892663,2218,-0.1459961,0.52337646,-0.2053833
1601132892663,2219,0.053466797,1.41156,-0.06500244
1601132892663,2220,-0.022460938,1.3449097,0.5717163
1601132892664,2221,-0.022460938,1.3449097,0.5717163
1601132892664,2222,-0.3635254,0.82977295,-0.18121338
1601132892664,2223,-0.3605957,0.84417725,-0.12872314
1601132892667,2224,-0.022460938,1.3449097,0.5717163
1601132892667,2225,0.016601562,0.97821045,0.0211792
1601132892667,2226,-0.022460938,1.3449097,0.5717163
1601132892667,2227,-0.3605957,0.84417725,-0.12872314
1601132892667,2228,-0.1459961,0.52337646,-0.2053833
1601132892667,2229,-0.2685547,0.95599365,-0.12652588
1601132892667,2230,0.016601562,0.97821045,0.0211792
1601132892667,2231,-0.41845703,0.868103,-0.30108643
1601132892668,2232,-0.022460938,1.3449097,0.5717163
1601132892668,2233,0.053466797,1.41156,-0.06500244
1601132892668,2234,-0.2685547,0.95599365,-0.12652588
1601132892669,2235,-0.3605957,0.84417725,-0.12872314
1601132892669,2236,0.053466797,1.41156,-0.06500244
1601132892672,2237,-0.3605957,0.84417725,-0.12872314
1601132892673,2238,-0.3635254,0.82977295,-0.18121338
1601132892673,2239,-0.20947266,1.017273,0.07318115
1601132892673,2240,-0.022460938,1.3449097,0.5717163
1601132892673,2241,-0.3605957,0.84417725,-0.12872314
1601132892673,2242,-0.3635254,0.82977295,-0.18121338
1601132892673,2243,-0.41845703,0.868103,-0.30108643
1601132892673,2244,-0.3605957,0.84417725,-0.12872314
1601132892673,2245,-0.2685547,0.95599365,-0.12652588
1601132892673,2246,-0.022460938,1.3449097,0.5717163
1601132892674,2247,0.016601562,0.97821045,0.0211792
1601132892685,2248,-0.08105469,0.9725952,0.036315918
1601132892685,2249,0.016601562,0.97821045,0.0211792
1601132892685,2250,0.016601562,0.97821045,0.0211792
1601132892685,2251,0.016601562,0.97821045,0.0211792
1601132892685,2252,-0.3635254,0.82977295,-0.18121338
1601132892685,2253,-0.41845703,0.868103,-0.30108643
1601132892685,2254,0.016601562,0.97821045,0.0211792
1601132892685,2255,-0.2763672,0.8444214,-0.040100098
1601132892686,2256,-0.2685547,0.95599365,-0.12652588
1601132892686,2257,-0.8544922,0.97991943,0.0446167
1601132892687,2258,-0.3635254,0.82977295,-0.18121338
1601132892687,2259,-0.1899414,1.0934448,-0.2029419
1601132892687,2260,-0.3635254,0.82977295,-0.18121338
1601132892687,2261,0.41796875,1.1532593,0.1552124
1601132892687,2262,-0.20947266,1.017273,0.07318115
1601132892687,2263,-0.41845703,0.868103,-0.30108643
1601132892687,2264,-0.20947266,1.017273,0.07318115
1601132892687,2265,-0.3635254,0.82977295,-0.18121338
1601132892688,2266,-0.3635254,0.82977295,-0.18121338
1601132892688,2267,-0.2685547,0.95599365,-0.12652588
1601132892688,2268,-0.2685547,0.95599365,-0.12652588
1601132892688,2269,-0.3605957,0.84417725,-0.12872314
1601132892688,2270,-0.08105469,0.9725952,0.036315918
1601132892689,2271,0.099609375,0.6166382,0.0368042
1601132892695,2272,-0.2685547,0.95599365,-0.12652588
1601132892695,2273,-0.41845703,0.868103,-0.30108643
1601132892695,2274,-0.41845703,0.868103,-0.30108643
1601132892695,2275,-0.08105469,0.9725952,0.036315918
1601132892695,2276,0.016601562,0.97821045,0.0211792
1601132892695,2277,-0.2763672,0.8444214,-0.040100098
1601132892696,2278,-0.2685547,0.95599365,-0.12652588
1601132892696,2279,-0.2763672,0.8444214,-0.040100098
1601132892696,2280,-0.41845703,0.868103,-0.30108643
1601132892696,2281,0.0107421875,0.4779663,-0.13482666
1601132892700,2282,-0.41845703,0.868103,-0.30108643
1601132892700,2283,-0.20947266,1.017273,0.07318115
1601132892700,2284,-0.20947266,1.017273,0.07318115
1601132892700,2285,-0.20947266,1.017273,0.07318115
1601132892700,2286,-0.08105469,0.9725952,0.036315918
1601132892700,2287,-0.8544922,0.97991943,0.0446167
1601132892701,2288,-0.2685547,0.95599365,-0.12652588
1601132892702,2289,-0.20947266,1.017273,0.07318115
1601132892702,2290,-0.8544922,0.97991943,0.0446167
1601132892702,2291,0.08862305,1.322937,0.53289795
1601132892702,2292,-0.20947266,1.017273,0.07318115
1601132892702,2293,-0.08105469,0.9725952,0.036315918
1601132892702,2294,-0.08105469,0.9725952,0.036315918
1601132892702,2295,-0.08105469,0.9725952,0.036315918
1601132892703,2296,-0.41845703,0.868103,-0.30108643
1601132892712,2297,-0.08105469,0.9725952,0.036315918
1601132892712,2298,0.44750977,0.9266968,0.1671753
1601132892712,2299,-0.3635254,0.82977295,-0.18121338
1601132892712,2300,-0.2763672,0.8444214,-0.040100098
1601132892712,2301,-0.20947266,1.017273,0.07318115
1601132892712,2302,-0.1899414,1.0934448,-0.2029419
1601132892712,2303,-0.2763672,0.8444214,-0.040100098
1601132892712,2304,-0.2763672,0.8444214,-0.040100098
1601132892713,2305,0.41796875,1.1532593,0.1552124
1601132892713,2306,-0.8544922,0.97991943,0.0446167
1601132892713,2307,-0.2763672,0.8444214,-0.040100098
1601132892713,2308,-0.1899414,1.0934448,-0.2029419
1601132892713,2309,-0.31518555,0.8305054,0.31610107
1601132892713,2310,-0.8544922,0.97991943,0.0446167
1601132892713,2311,-0.2763672,0.8444214,-0.040100098
1601132892713,2312,-0.08105469,0.9725952,0.036315918
1601132892713,2313,-0.1899414,1.0934448,-0.2029419
1601132892713,2314,-0.088378906,1.1486206,-0.395813
1601132892713,2315,-0.8544922,0.97991943,0.0446167
1601132892714,2316,-0.2763672,0.8444214,-0.040100098
1601132892714,2317,-0.2685547,0.95599365,-0.12652588
1601132892714,2318,-0.8544922,0.97991943,0.0446167
1601132892714,2319,0.41796875,1.1532593,0.1552124
1601132892714,2320,-0.1899414,1.0934448,-0.2029419
1601132892715,2321,0.099609375,0.6166382,0.0368042
1601132892715,2322,-0.41845703,0.868103,-0.30108643
