# Sensor position: Wrist
# Sensor side: Right
# Activity type: Movement
# Activity code: 9
# Subject id: s1735229
timestamp,seq,accel_x,accel_y,accel_z
1601133807582,0,-0.9758301,-0.3945923,0.17962646
1601133807584,1,-0.9758301,-0.3945923,0.17962646
1601133807587,2,-1.0112305,-0.39434814,0.19622803
1601133807587,3,-0.9758301,-0.3945923,0.17962646
1601133807588,4,-0.9758301,-0.3945923,0.17962646
1601133807589,5,-0.9758301,-0.3945923,0.17962646
1601133807601,6,-1.0112305,-0.39434814,0.19622803
1601133807601,7,-0.9758301,-0.3945923,0.17962646
1601133807602,8,-0.9758301,-0.3945923,0.17962646
1601133807602,9,-1.0112305,-0.39434814,0.19622803
1601133807602,10,-0.9758301,-0.3945923,0.17962646
1601133807603,11,-0.9758301,-0.3945923,0.17962646
1601133807603,12,-0.9404297,-0.35723877,0.184021
1601133807603,13,-0.9758301,-0.3945923,0.17962646
1601133807603,14,-1.0112305,-0.39434814,0.19622803
1601133807603,15,-0.9404297,-0.35723877,0.184021
1601133807603,16,-1.0112305,-0.39434814,0.19622803
1601133807603,17,-0.9404297,-0.35723877,0.184021
1601133807606,18,-1.0112305,-0.39434814,0.19622803
1601133807606,19,-0.9421387,-0.36871338,0.17303467
1601133807606,20,-1.0112305,-0.39434814,0.19622803
1601133807606,21,-1.0112305,-0.39434814,0.19622803
1601133807606,22,-0.9421387,-0.36871338,0.17303467
1601133807607,23,-0.9421387,-0.36871338,0.17303467
1601133807630,24,-0.9404297,-0.35723877,0.184021
1601133807630,25,-1.0112305,-0.39434814,0.19622803
1601133807630,26,-0.9404297,-0.35723877,0.184021
1601133807634,27,-0.9404297,-0.35723877,0.184021
1601133807634,28,-0.9404297,-0.35723877,0.184021
1601133807634,29,-0.9421387,-0.36871338,0.17303467
1601133807635,30,-0.96435547,-0.36138916,0.17401123
1601133807635,31,-0.9404297,-0.35723877,0.184021
1601133807635,32,-0.96435547,-0.36138916,0.17401123
1601133807635,33,-0.96435547,-0.36920166,0.17132568
1601133807635,34,-0.9421387,-0.36871338,0.17303467
1601133807635,35,-1.0112305,-0.39434814,0.19622803
1601133807635,36,-0.96435547,-0.36138916,0.17401123
1601133807636,37,-0.9421387,-0.36871338,0.17303467
1601133807636,38,-0.9404297,-0.35723877,0.184021
1601133807636,39,-0.96435547,-0.36138916,0.17401123
1601133807636,40,-0.9404297,-0.35723877,0.184021
1601133807636,41,-0.9421387,-0.36871338,0.17303467
1601133807636,42,-0.96435547,-0.36138916,0.17401123
1601133807636,43,-0.96362305,-0.35894775,0.17523193
1601133807636,44,-0.96435547,-0.36920166,0.17132568
1601133807636,45,-0.96435547,-0.36138916,0.17401123
1601133807636,46,-0.96484375,-0.362854,0.18450928
1601133807637,47,-0.9421387,-0.36871338,0.17303467
1601133807637,48,-0.96435547,-0.36920166,0.17132568
1601133807637,49,-0.9421387,-0.36871338,0.17303467
1601133807637,50,-0.96362305,-0.35894775,0.17523193
1601133807637,51,-0.96435547,-0.36920166,0.17132568
1601133807638,52,-0.96435547,-0.36920166,0.17132568
1601133807639,53,-0.96362305,-0.35894775,0.17523193
1601133807639,54,-0.96435547,-0.36138916,0.17401123
1601133807639,55,-0.96484375,-0.362854,0.18450928
1601133807639,56,-0.96362305,-0.35894775,0.17523193
1601133807639,57,-0.9421387,-0.36871338,0.17303467
1601133807639,58,-0.9589844,-0.3496704,0.18499756
1601133807640,59,-0.96435547,-0.36920166,0.17132568
1601133807640,60,-0.96484375,-0.362854,0.18450928
1601133807640,61,-0.96484375,-0.362854,0.18450928
1601133807640,62,-0.96435547,-0.36138916,0.17401123
1601133807645,63,-0.9589844,-0.3496704,0.18499756
1601133807645,64,-0.96435547,-0.36138916,0.17401123
1601133807645,65,-0.97021484,-0.3562622,0.18206787
1601133807645,66,-0.96435547,-0.36920166,0.17132568
1601133807646,67,-0.97021484,-0.3562622,0.18206787
1601133807646,68,-0.96362305,-0.35894775,0.17523193
1601133807646,69,-0.96435547,-0.36138916,0.17401123
1601133807646,70,-0.9724121,-0.36187744,0.17425537
1601133807646,71,-0.96435547,-0.36920166,0.17132568
1601133807646,72,-0.96435547,-0.36920166,0.17132568
1601133807646,73,-0.96118164,-0.36383057,0.16888428
1601133807646,74,-0.96362305,-0.35894775,0.17523193
1601133807646,75,-0.96435547,-0.36920166,0.17132568
1601133807646,76,-0.9724121,-0.36187744,0.17425537
1601133807647,77,-0.96362305,-0.35894775,0.17523193
1601133807647,78,-0.96362305,-0.35894775,0.17523193
1601133807647,79,-0.96484375,-0.362854,0.18450928
1601133807647,80,-0.96484375,-0.362854,0.18450928
1601133807647,81,-0.9589844,-0.3496704,0.18499756
1601133807647,82,-0.96484375,-0.362854,0.18450928
1601133807647,83,-0.9589844,-0.3496704,0.18499756
1601133807647,84,-0.9589844,-0.3496704,0.18499756
1601133807647,85,-0.96118164,-0.36383057,0.16888428
1601133807648,86,-0.97021484,-0.3562622,0.18206787
1601133807648,87,-0.96362305,-0.35894775,0.17523193
1601133807648,88,-0.96655273,-0.37628174,0.16912842
1601133807648,89,-0.96484375,-0.362854,0.18450928
1601133807648,90,-0.97021484,-0.3562622,0.18206787
1601133807648,91,-0.96118164,-0.38238525,0.17303467
1601133807648,92,-0.9724121,-0.36187744,0.17425537
1601133807651,93,-0.9589844,-0.3496704,0.18499756
1601133807651,94,-0.96655273,-0.37628174,0.16912842
1601133807651,95,-0.9589844,-0.3496704,0.18499756
1601133807651,96,-0.97021484,-0.3562622,0.18206787
1601133807651,97,-0.97021484,-0.3562622,0.18206787
1601133807651,98,-0.9724121,-0.36187744,0.17425537
1601133807651,99,-0.96435547,-0.3706665,0.17572021
1601133807652,100,-0.96484375,-0.362854,0.18450928
1601133807652,101,-0.96118164,-0.36383057,0.16888428
1601133807652,102,-0.97021484,-0.3562622,0.18206787
1601133807652,103,-0.9724121,-0.36187744,0.17425537
1601133807665,104,-0.96118164,-0.36383057,0.16888428
1601133807665,105,-0.96118164,-0.36383057,0.16888428
1601133807666,106,-0.96655273,-0.37628174,0.16912842
1601133807666,107,-0.9589844,-0.3496704,0.18499756
1601133807666,108,-0.96484375,-0.37091064,0.17572021
1601133807668,109,-0.97021484,-0.3562622,0.18206787
1601133807668,110,-0.96655273,-0.37628174,0.16912842
1601133807668,111,-0.95336914,-0.36724854,0.16131592
1601133807668,112,-0.9724121,-0.36187744,0.17425537
1601133807668,113,-0.96362305,-0.35894775,0.17523193
1601133807668,114,-0.96118164,-0.38238525,0.17303467
1601133807668,115,-0.9724121,-0.36187744,0.17425537
1601133807668,116,-0.96118164,-0.38238525,0.17303467
1601133807668,117,-0.96484375,-0.362854,0.18450928
1601133807668,118,-0.96435547,-0.3706665,0.17572021
1601133807668,119,-0.96655273,-0.37628174,0.16912842
1601133807668,120,-0.96118164,-0.38238525,0.17303467
1601133807669,121,-0.92749023,-0.36798096,0.1408081
1601133807669,122,-0.96118164,-0.38238525,0.17303467
1601133807669,123,-0.9724121,-0.36187744,0.17425537
1601133807669,124,-0.9589844,-0.3496704,0.18499756
1601133807669,125,-0.97680664,-0.3892212,0.15814209
1601133807670,126,-0.96484375,-0.37091064,0.17572021
1601133807670,127,-0.9589844,-0.3496704,0.18499756
1601133807670,128,-0.96118164,-0.36383057,0.16888428
1601133807670,129,-0.96435547,-0.3706665,0.17572021
1601133807670,130,-0.96435547,-0.3706665,0.17572021
1601133807670,131,-0.96435547,-0.3706665,0.17572021
1601133807670,132,-0.96118164,-0.36383057,0.16888428
1601133807670,133,-0.96484375,-0.37091064,0.17572021
1601133807676,134,-0.96655273,-0.37628174,0.16912842
1601133807677,135,-0.96655273,-0.37628174,0.16912842
1601133807677,136,-0.97021484,-0.3562622,0.18206787
1601133807677,137,-0.96118164,-0.36383057,0.16888428
1601133807677,138,-0.96484375,-0.37091064,0.17572021
1601133807677,139,-0.96484375,-0.37091064,0.17572021
1601133807677,140,-0.97021484,-0.3562622,0.18206787
1601133807677,141,-0.96655273,-0.37628174,0.16912842
1601133807678,142,-0.95336914,-0.36724854,0.16131592
1601133807679,143,-0.9667969,-0.3652954,0.18133545
1601133807679,144,-0.96118164,-0.38238525,0.17303467
1601133807679,145,-0.96118164,-0.38238525,0.17303467
1601133807679,146,-0.92749023,-0.36798096,0.1408081
1601133807679,147,-0.95336914,-0.36724854,0.16131592
1601133807679,148,-0.95336914,-0.36724854,0.16131592
1601133807679,149,-0.95336914,-0.36724854,0.16131592
1601133807679,150,-0.9724121,-0.36187744,0.17425537
1601133807679,151,-0.9724121,-0.36187744,0.17425537
1601133807679,152,-0.92749023,-0.36798096,0.1408081
1601133807679,153,-0.96118164,-0.38238525,0.17303467
1601133807680,154,-0.96435547,-0.3706665,0.17572021
1601133807680,155,-0.96118164,-0.36383057,0.16888428
1601133807680,156,-0.97680664,-0.3892212,0.15814209
1601133807680,157,-0.92749023,-0.36798096,0.1408081
1601133807680,158,-0.92749023,-0.36798096,0.1408081
1601133807680,159,-0.97680664,-0.3892212,0.15814209
1601133807680,160,-0.96118164,-0.36383057,0.16888428
1601133807681,161,-0.98046875,-0.37384033,0.17401123
1601133807683,162,-0.96655273,-0.37628174,0.16912842
1601133807688,163,-0.96118164,-0.38238525,0.17303467
1601133807688,164,-0.97680664,-0.3892212,0.15814209
1601133807688,165,-0.9667969,-0.3652954,0.18133545
1601133807688,166,-0.96484375,-0.37091064,0.17572021
1601133807688,167,-0.98046875,-0.37384033,0.17401123
1601133807688,168,-0.9667969,-0.3652954,0.18133545
1601133807688,169,-0.96655273,-0.37628174,0.16912842
1601133807688,170,-1.0063477,-0.38189697,0.16766357
1601133807688,171,-0.95336914,-0.36724854,0.16131592
1601133807688,172,-0.97680664,-0.3892212,0.15814209
1601133807692,173,-0.96435547,-0.3706665,0.17572021
1601133807692,174,-0.96435547,-0.3706665,0.17572021
1601133807692,175,-0.96435547,-0.3706665,0.17572021
1601133807692,176,-0.96484375,-0.37091064,0.17572021
1601133807692,177,-1.0063477,-0.38189697,0.16766357
1601133807692,178,-0.98046875,-0.37384033,0.17401123
1601133807692,179,-1.057373,-0.3711548,0.18157959
1601133807693,180,-1.057373,-0.3711548,0.18157959
1601133807693,181,-0.92749023,-0.36798096,0.1408081
1601133807693,182,-0.96484375,-0.37091064,0.17572021
1601133807696,183,-0.96484375,-0.37091064,0.17572021
1601133807696,184,-0.9667969,-0.3652954,0.18133545
1601133807696,185,-1.0063477,-0.38189697,0.16766357
1601133807696,186,-0.96118164,-0.38238525,0.17303467
1601133807696,187,-0.95336914,-0.36724854,0.16131592
1601133807696,188,-0.9667969,-0.3652954,0.18133545
1601133807696,189,-0.95874023,-0.3477173,0.17303467
1601133807696,190,-0.95874023,-0.3477173,0.17303467
1601133807696,191,-0.98046875,-0.37384033,0.17401123
1601133807696,192,-0.97680664,-0.3892212,0.15814209
1601133807705,193,-0.98046875,-0.37384033,0.17401123
1601133807708,194,-0.95336914,-0.36724854,0.16131592
1601133807708,195,-0.92749023,-0.36798096,0.1408081
1601133807708,196,-1.057373,-0.3711548,0.18157959
1601133807708,197,-0.95336914,-0.36724854,0.16131592
1601133807708,198,-0.92749023,-0.36798096,0.1408081
1601133807708,199,-0.96435547,-0.3706665,0.17572021
1601133807708,200,-0.89404297,-0.36114502,0.14471436
1601133807709,201,-0.92749023,-0.36798096,0.1408081
1601133807709,202,-0.9667969,-0.3652954,0.18133545
1601133807709,203,-1.0063477,-0.38189697,0.16766357
1601133807709,204,-1.0063477,-0.38189697,0.16766357
1601133807709,205,-0.98046875,-0.37384033,0.17401123
1601133807709,206,-0.97680664,-0.3892212,0.15814209
1601133807710,207,-1.057373,-0.3711548,0.18157959
1601133807710,208,-0.96484375,-0.37091064,0.17572021
1601133807710,209,-0.89404297,-0.36114502,0.14471436
1601133807710,210,-0.95874023,-0.3477173,0.17303467
1601133807710,211,-0.97680664,-0.3892212,0.15814209
1601133807710,212,-0.97680664,-0.3892212,0.15814209
1601133807710,213,-1.057373,-0.3711548,0.18157959
1601133807710,214,-0.91137695,-0.40216064,0.13397217
1601133807710,215,-0.9667969,-0.3652954,0.18133545
1601133807710,216,-0.95874023,-0.3477173,0.17303467
1601133807710,217,-0.95874023,-0.3477173,0.17303467
1601133807710,218,-1.0004883,-0.30914307,0.18426514
1601133807710,219,-0.9667969,-0.3652954,0.18133545
1601133807710,220,-0.9667969,-0.3652954,0.18133545
1601133807711,221,-0.91137695,-0.40216064,0.13397217
1601133807711,222,-0.89404297,-0.36114502,0.14471436
1601133807714,223,-0.98046875,-0.37384033,0.17401123
1601133807714,224,-0.95336914,-0.36724854,0.16131592
1601133807714,225,-1.0063477,-0.38189697,0.16766357
1601133807714,226,-1.0063477,-0.38189697,0.16766357
1601133807714,227,-0.89404297,-0.36114502,0.14471436
1601133807714,228,-0.98046875,-0.37384033,0.17401123
1601133807714,229,-0.89404297,-0.36114502,0.14471436
1601133807714,230,-0.98046875,-0.37384033,0.17401123
1601133807714,231,-1.0063477,-0.38189697,0.16766357
1601133807714,232,-0.93725586,-0.34991455,0.22454834
1601133807715,233,-0.92749023,-0.36798096,0.1408081
1601133807715,234,-1.057373,-0.3711548,0.18157959
1601133807715,235,-0.8432617,-0.44610596,0.27679443
1601133807715,236,-0.91137695,-0.40216064,0.13397217
1601133807715,237,-1.064209,-0.5540161,0.23724365
1601133807716,238,-0.91137695,-0.40216064,0.13397217
1601133807720,239,-1.0063477,-0.38189697,0.16766357
1601133807720,240,-1.057373,-0.3711548,0.18157959
1601133807720,241,-0.97680664,-0.3892212,0.15814209
1601133807720,242,-0.95874023,-0.3477173,0.17303467
1601133807720,243,-1.057373,-0.3711548,0.18157959
1601133807721,244,-0.91137695,-0.40216064,0.13397217
1601133807721,245,-1.1506348,-0.5366821,0.2711792
1601133807721,246,-0.95874023,-0.3477173,0.17303467
1601133807721,247,-1.0004883,-0.30914307,0.18426514
1601133807721,248,-1.0004883,-0.30914307,0.18426514
1601133807721,249,-0.95874023,-0.3477173,0.17303467
1601133807721,250,-1.057373,-0.3711548,0.18157959
1601133807722,251,-1.0004883,-0.30914307,0.18426514
1601133807722,252,-0.95874023,-0.3477173,0.17303467
1601133807723,253,-0.89404297,-0.36114502,0.14471436
1601133807723,254,-0.93725586,-0.34991455,0.22454834
1601133807724,255,-0.9667969,-0.3652954,0.18133545
1601133807725,256,-0.89404297,-0.36114502,0.14471436
1601133807725,257,-1.0004883,-0.30914307,0.18426514
1601133807735,258,-0.93725586,-0.34991455,0.22454834
1601133807735,259,-0.93725586,-0.34991455,0.22454834
1601133807735,260,-0.89404297,-0.36114502,0.14471436
1601133807735,261,-0.91137695,-0.40216064,0.13397217
1601133807735,262,-0.8432617,-0.44610596,0.27679443
1601133807735,263,-0.8432617,-0.44610596,0.27679443
1601133807735,264,-0.98046875,-0.37384033,0.17401123
1601133807735,265,-0.91137695,-0.40216064,0.13397217
1601133807735,266,-1.064209,-0.5540161,0.23724365
1601133807735,267,-0.93725586,-0.34991455,0.22454834
1601133807735,268,-1.1506348,-0.5366821,0.2711792
1601133807735,269,-1.0004883,-0.30914307,0.18426514
1601133807735,270,-0.8432617,-0.44610596,0.27679443
1601133807735,271,-0.89404297,-0.36114502,0.14471436
1601133807735,272,-0.8432617,-0.44610596,0.27679443
1601133807736,273,-1.064209,-0.5540161,0.23724365
1601133807736,274,-0.91137695,-0.40216064,0.13397217
1601133807736,275,-0.9145508,-0.5154419,0.25482178
1601133807736,276,-1.0063477,-0.38189697,0.16766357
1601133807737,277,-0.93725586,-0.34991455,0.22454834
1601133807737,278,-1.064209,-0.5540161,0.23724365
1601133807737,279,-1.064209,-0.5540161,0.23724365
1601133807737,280,-1.0004883,-0.30914307,0.18426514
1601133807737,281,-1.057373,-0.3711548,0.18157959
1601133807737,282,-0.9145508,-0.5154419,0.25482178
1601133807737,283,-0.93725586,-0.34991455,0.22454834
1601133807737,284,-0.95874023,-0.3477173,0.17303467
1601133807740,285,-0.91137695,-0.40216064,0.13397217
1601133807740,286,-1.1506348,-0.5366821,0.2711792
1601133807740,287,-1.1506348,-0.5366821,0.2711792
1601133807750,288,-1.1506348,-0.5366821,0.2711792
1601133807750,289,-1.0004883,-0.30914307,0.18426514
1601133807750,290,-0.8432617,-0.44610596,0.27679443
1601133807750,291,-0.89404297,-0.36114502,0.14471436
1601133807750,292,-0.8432617,-0.44610596,0.27679443
1601133807751,293,-0.9145508,-0.5154419,0.25482178
1601133807751,294,-0.9145508,-0.5154419,0.25482178
1601133807751,295,-1.064209,-0.5540161,0.23724365
1601133807751,296,-0.9145508,-0.5154419,0.25482178
1601133807751,297,-1.0004883,-0.30914307,0.18426514
1601133807751,298,-0.93725586,-0.34991455,0.22454834
1601133807751,299,-1.064209,-0.5540161,0.23724365
1601133807751,300,-1.1506348,-0.5366821,0.2711792
1601133807752,301,-0.8432617,-0.44610596,0.27679443
1601133807752,302,-0.93725586,-0.34991455,0.22454834
1601133807752,303,-0.91137695,-0.40216064,0.13397217
1601133807752,304,-0.8432617,-0.44610596,0.27679443
1601133807754,305,-0.9145508,-0.5154419,0.25482178
1601133807754,306,-1.1506348,-0.5366821,0.2711792
1601133807754,307,-1.064209,-0.5540161,0.23724365
1601133807754,308,-1.0004883,-0.30914307,0.18426514
1601133807756,309,-1.064209,-0.5540161,0.23724365
1601133807756,310,-0.9145508,-0.5154419,0.25482178
1601133807756,311,-1.1506348,-0.5366821,0.2711792
1601133807756,312,-1.1506348,-0.5366821,0.2711792
1601133807760,313,-0.9145508,-0.5154419,0.25482178
1601133807760,314,-0.93725586,-0.34991455,0.22454834
1601133807760,315,-0.9145508,-0.5154419,0.25482178
1601133807760,316,-0.8432617,-0.44610596,0.27679443
1601133807761,317,-1.064209,-0.5540161,0.23724365
1601133807762,318,-1.1506348,-0.5366821,0.2711792
1601133807762,319,-0.9145508,-0.5154419,0.25482178
1601133810090,320,-0.89697266,-0.50494385,0.093688965
1601133810090,321,-0.89697266,-0.50494385,0.093688965
1601133810090,322,-0.89697266,-0.50494385,0.093688965
1601133810090,323,-1.0749512,-0.25982666,0.050231934
1601133810091,324,-0.89697266,-0.50494385,0.093688965
1601133810091,325,-1.4003906,-0.23834229,-0.046203613
1601133810091,326,-1.0749512,-0.25982666,0.050231934
1601133810091,327,-1.0749512,-0.25982666,0.050231934
1601133810091,328,-0.89697266,-0.50494385,0.093688965
1601133810091,329,-1.4003906,-0.23834229,-0.046203613
1601133810091,330,-0.89697266,-0.50494385,0.093688965
1601133810091,331,-1.3439941,-0.45025635,0.11004639
1601133810091,332,-0.89697266,-0.50494385,0.093688965
1601133810092,333,-0.89697266,-0.50494385,0.093688965
1601133810096,334,-0.89697266,-0.50494385,0.093688965
1601133810097,335,-0.89697266,-0.50494385,0.093688965
1601133810097,336,-1.4003906,-0.23834229,-0.046203613
1601133810098,337,-1.0749512,-0.25982666,0.050231934
1601133810098,338,-1.0749512,-0.25982666,0.050231934
1601133810099,339,-1.3439941,-0.45025635,0.11004639
1601133810099,340,-1.065918,-0.4343872,0.043151855
1601133810099,341,-1.0749512,-0.25982666,0.050231934
1601133810099,342,-1.0749512,-0.25982666,0.050231934
1601133810107,343,-1.4003906,-0.23834229,-0.046203613
1601133810107,344,-1.0749512,-0.25982666,0.050231934
1601133810107,345,-1.3439941,-0.45025635,0.11004639
1601133810107,346,-1.3439941,-0.45025635,0.11004639
1601133810107,347,-1.4003906,-0.23834229,-0.046203613
1601133810107,348,-1.065918,-0.4343872,0.043151855
1601133810107,349,-1.0749512,-0.25982666,0.050231934
1601133810108,350,-1.4003906,-0.23834229,-0.046203613
1601133810108,351,-1.0749512,-0.25982666,0.050231934
1601133810108,352,-1.4003906,-0.23834229,-0.046203613
1601133810108,353,-1.4003906,-0.23834229,-0.046203613
1601133810108,354,-1.065918,-0.4343872,0.043151855
1601133810108,355,-1.4003906,-0.23834229,-0.046203613
1601133810108,356,-1.3439941,-0.45025635,0.11004639
1601133810108,357,-1.065918,-0.4343872,0.043151855
1601133810108,358,-1.0429688,-0.19366455,0.23675537
1601133810108,359,-1.0429688,-0.19366455,0.23675537
1601133810108,360,-1.0429688,-0.19366455,0.23675537
1601133810117,361,-1.3439941,-0.45025635,0.11004639
1601133810117,362,-1.3439941,-0.45025635,0.11004639
1601133810118,363,-1.065918,-0.4343872,0.043151855
1601133810118,364,-1.3439941,-0.45025635,0.11004639
1601133810118,365,-1.3439941,-0.45025635,0.11004639
1601133810118,366,-1.0429688,-0.19366455,0.23675537
1601133810118,367,-1.065918,-0.4343872,0.043151855
1601133810118,368,-1.0314941,0.27313232,0.32147217
1601133810118,369,-1.065918,-0.4343872,0.043151855
1601133810118,370,-1.4003906,-0.23834229,-0.046203613
1601133810118,371,-1.0429688,-0.19366455,0.23675537
1601133810119,372,-1.0429688,-0.19366455,0.23675537
1601133810119,373,-1.065918,-0.4343872,0.043151855
1601133810119,374,-1.0314941,0.27313232,0.32147217
1601133810119,375,-1.0314941,0.27313232,0.32147217
1601133810119,376,-1.065918,-0.4343872,0.043151855
1601133810119,377,-1.0429688,-0.19366455,0.23675537
1601133810119,378,-1.0515137,-0.051818848,0.08734131
1601133810119,379,-1.0515137,-0.051818848,0.08734131
1601133810120,380,-1.3439941,-0.45025635,0.11004639
1601133810120,381,-1.0429688,-0.19366455,0.23675537
1601133810120,382,-1.0429688,-0.19366455,0.23675537
1601133810120,383,-1.0314941,0.27313232,0.32147217
1601133810120,384,-1.8271484,-0.6428833,0.030700684
1601133810121,385,-1.0314941,0.27313232,0.32147217
1601133810121,386,-1.0515137,-0.051818848,0.08734131
1601133810121,387,-2.0,-0.9155884,-0.57940674
1601133810131,388,-1.8271484,-0.6428833,0.030700684
1601133810131,389,-1.0314941,0.27313232,0.32147217
1601133810131,390,-1.065918,-0.4343872,0.043151855
1601133810131,391,-1.0515137,-0.051818848,0.08734131
1601133810131,392,-1.0515137,-0.051818848,0.08734131
1601133810131,393,-1.0314941,0.27313232,0.32147217
1601133810131,394,-1.0314941,0.27313232,0.32147217
1601133810131,395,-1.8271484,-0.6428833,0.030700684
1601133810132,396,-1.3793945,-1.4280396,-0.09283447
1601133810132,397,-1.8271484,-0.6428833,0.030700684
1601133810132,398,-1.0515137,-0.051818848,0.08734131
1601133810132,399,-1.3710938,-0.74005127,-0.35601807
1601133810132,400,-2.0,-0.9155884,-0.57940674
1601133810132,401,-1.0314941,0.27313232,0.32147217
1601133810132,402,-0.7089844,-0.3953247,-0.04547119
1601133810132,403,-1.3793945,-1.4280396,-0.09283447
1601133810132,404,-0.46362305,-0.7683716,0.026306152
1601133810132,405,-1.8271484,-0.6428833,0.030700684
1601133810132,406,-2.0,-0.9155884,-0.57940674
1601133810132,407,-2.0,-0.9155884,-0.57940674
1601133810132,408,-1.0429688,-0.19366455,0.23675537
1601133810133,409,-2.0,-0.9155884,-0.57940674
1601133810133,410,-1.0515137,-0.051818848,0.08734131
1601133810133,411,-1.0515137,-0.051818848,0.08734131
1601133810133,412,-1.3793945,-1.4280396,-0.09283447
1601133810134,413,-1.3793945,-1.4280396,-0.09283447
1601133810134,414,-1.3710938,-0.74005127,-0.35601807
1601133810134,415,-1.3710938,-0.74005127,-0.35601807
1601133810134,416,-1.0515137,-0.051818848,0.08734131
1601133810135,417,-1.3793945,-1.4280396,-0.09283447
1601133810135,418,-1.8271484,-0.6428833,0.030700684
1601133810135,419,-0.7089844,-0.3953247,-0.04547119
1601133810135,420,-1.0314941,0.27313232,0.32147217
1601133810135,421,-2.0,-0.9155884,-0.57940674
1601133810135,422,-1.8271484,-0.6428833,0.030700684
1601133810135,423,-1.3710938,-0.74005127,-0.35601807
1601133810135,424,-1.8271484,-0.6428833,0.030700684
1601133810136,425,-0.7089844,-0.3953247,-0.04547119
1601133810136,426,-0.8183594,-1.4329224,0.24334717
1601133810136,427,-1.8271484,-0.6428833,0.030700684
1601133810136,428,-2.0,-0.9155884,-0.57940674
1601133810136,429,-1.0515137,-0.051818848,0.08734131
1601133810136,430,-1.3710938,-0.74005127,-0.35601807
1601133810136,431,-0.7089844,-0.3953247,-0.04547119
1601133810136,432,-1.3852539,-1.406311,0.92474365
1601133810137,433,-1.3793945,-1.4280396,-0.09283447
1601133810137,434,-0.46362305,-0.7683716,0.026306152
1601133810137,435,-1.3710938,-0.74005127,-0.35601807
1601133810138,436,-0.7089844,-0.3953247,-0.04547119
1601133810146,437,-0.46362305,-0.7683716,0.026306152
1601133810147,438,-0.46362305,-0.7683716,0.026306152
1601133810147,439,-0.7089844,-0.3953247,-0.04547119
1601133810147,440,-2.0,-1.0874634,-0.37579346
1601133810147,441,-2.0,-0.9155884,-0.57940674
1601133810147,442,-0.8183594,-1.4329224,0.24334717
1601133810147,443,-1.3793945,-1.4280396,-0.09283447
1601133810147,444,-1.3793945,-1.4280396,-0.09283447
1601133810147,445,-2.0,-0.9155884,-0.57940674
1601133810147,446,-1.8271484,-0.6428833,0.030700684
1601133810147,447,-0.8183594,-1.4329224,0.24334717
1601133810148,448,-1.3793945,-1.4280396,-0.09283447
1601133810148,449,-0.8183594,-1.4329224,0.24334717
1601133810148,450,-1.3852539,-1.406311,0.92474365
1601133810148,451,-1.3852539,-1.406311,0.92474365
1601133810148,452,-1.3710938,-0.74005127,-0.35601807
1601133810148,453,-0.46362305,-0.7683716,0.026306152
1601133810148,454,-0.46362305,-0.7683716,0.026306152
1601133810148,455,-1.3710938,-0.74005127,-0.35601807
1601133810148,456,-1.2214355,0.23162842,-0.021057129
1601133810148,457,-2.0,-0.9155884,-0.57940674
1601133810149,458,-1.3710938,-0.74005127,-0.35601807
1601133810149,459,-0.75683594,-0.31671143,0.21478271
1601133810162,460,-1.3852539,-1.406311,0.92474365
1601133810162,461,-2.0,-1.0874634,-0.37579346
1601133810164,462,-0.7089844,-0.3953247,-0.04547119
1601133810164,463,-0.8183594,-1.4329224,0.24334717
1601133810164,464,-0.46362305,-0.7683716,0.026306152
1601133810165,465,-0.7089844,-0.3953247,-0.04547119
1601133810165,466,-1.3852539,-1.406311,0.92474365
1601133810165,467,-2.0,-1.0874634,-0.37579346
1601133810165,468,-0.46362305,-0.7683716,0.026306152
1601133810165,469,-2.0,-1.0525513,0.20794678
1601133810165,470,-2.0,-1.0874634,-0.37579346
1601133810165,471,-0.8183594,-1.4329224,0.24334717
1601133810165,472,-1.2214355,0.23162842,-0.021057129
1601133810165,473,-0.8183594,-1.4329224,0.24334717
1601133810165,474,-0.8183594,-1.4329224,0.24334717
1601133810165,475,-1.4174805,-0.0960083,-0.19830322
1601133810165,476,-1.3852539,-1.406311,0.92474365
1601133810165,477,-0.48999023,-0.7720337,-0.11846924
1601133810165,478,-1.3852539,-1.406311,0.92474365
1601133810165,479,-2.0,-1.0874634,-0.37579346
1601133810165,480,-1.3852539,-1.406311,0.92474365
1601133810165,481,-1.3793945,-1.4280396,-0.09283447
1601133810166,482,-0.7089844,-0.3953247,-0.04547119
1601133810166,483,-0.75683594,-0.31671143,0.21478271
1601133810166,484,-2.0,-1.0874634,-0.37579346
1601133810166,485,-0.91015625,-0.8110962,-0.37091064
1601133810166,486,-1.2214355,0.23162842,-0.021057129
1601133810167,487,-2.0,-1.0874634,-0.37579346
1601133810167,488,-1.2214355,0.23162842,-0.021057129
1601133810167,489,-2.0,-1.0525513,0.20794678
1601133810167,490,-1.2214355,0.23162842,-0.021057129
1601133810168,491,-0.46362305,-0.7683716,0.026306152
1601133810168,492,-0.75683594,-0.31671143,0.21478271
1601133810168,493,-0.74316406,0.089782715,0.06512451
1601133810168,494,-1.3710938,-0.74005127,-0.35601807
1601133810168,495,-0.7089844,-0.3953247,-0.04547119
1601133810181,496,-1.2214355,0.23162842,-0.021057129
1601133810181,497,-1.4174805,-0.0960083,-0.19830322
1601133810181,498,-0.75683594,-0.31671143,0.21478271
1601133810181,499,-1.2214355,0.23162842,-0.021057129
1601133810181,500,-2.0,-1.0525513,0.20794678
1601133810181,501,-2.0,-1.0874634,-0.37579346
1601133810181,502,-0.8183594,-1.4329224,0.24334717
1601133810181,503,-0.75683594,-0.31671143,0.21478271
1601133810181,504,-0.77124023,-0.045959473,0.22161865
1601133810181,505,-1.2214355,0.23162842,-0.021057129
1601133810181,506,-0.46362305,-0.7683716,0.026306152
1601133810181,507,-0.75683594,-0.31671143,0.21478271
1601133810181,508,-0.48999023,-0.7720337,-0.11846924
1601133810182,509,-2.0,-1.0525513,0.20794678
1601133810182,510,-0.75683594,-0.31671143,0.21478271
1601133810182,511,-1.4174805,-0.0960083,-0.19830322
1601133810182,512,-2.0,-1.0525513,0.20794678
1601133810182,513,-1.3852539,-1.406311,0.92474365
1601133810182,514,-0.8461914,-0.9373169,0.13812256
1601133810183,515,-0.75683594,-0.31671143,0.21478271
1601133810183,516,-2.0,-1.0525513,0.20794678
1601133810183,517,-0.8183594,-1.4329224,0.24334717
1601133810183,518,-1.4174805,-0.0960083,-0.19830322
1601133810183,519,-1.4174805,-0.0960083,-0.19830322
1601133810184,520,-0.91015625,-0.8110962,-0.37091064
1601133810184,521,-0.48999023,-0.7720337,-0.11846924
1601133810184,522,-1.3852539,-1.406311,0.92474365
1601133810184,523,-0.48999023,-0.7720337,-0.11846924
1601133810184,524,-2.0,-1.0874634,-0.37579346
1601133810184,525,-0.91015625,-0.8110962,-0.37091064
1601133810184,526,-2.0,-1.0525513,0.20794678
1601133810184,527,-0.74316406,0.089782715,0.06512451
1601133810184,528,-0.91015625,-0.8110962,-0.37091064
1601133810184,529,-1.4174805,-0.0960083,-0.19830322
1601133810202,530,-0.74316406,0.089782715,0.06512451
1601133810202,531,-2.0,-1.0874634,-0.37579346
1601133810203,532,-0.77246094,-0.54156494,0.30999756
1601133810203,533,-1.2214355,0.23162842,-0.021057129
1601133810203,534,-1.2214355,0.23162842,-0.021057129
1601133810203,535,-2.0,-1.0525513,0.20794678
1601133810203,536,-1.6630859,-0.3027954,0.26678467
1601133810203,537,-0.75683594,-0.31671143,0.21478271
1601133810203,538,-1.4174805,-0.0960083,-0.19830322
1601133810203,539,-0.48999023,-0.7720337,-0.11846924
1601133810203,540,-0.77124023,-0.045959473,0.22161865
1601133810203,541,-2.0,-1.451477,-0.51690674
1601133810203,542,-0.48999023,-0.7720337,-0.11846924
1601133810203,543,-0.74316406,0.089782715,0.06512451
1601133810204,544,-0.8461914,-0.9373169,0.13812256
1601133810204,545,-0.91015625,-0.8110962,-0.37091064
1601133810204,546,-0.77246094,-0.54156494,0.30999756
1601133810204,547,-0.77124023,-0.045959473,0.22161865
1601133810204,548,-0.48999023,-0.7720337,-0.11846924
1601133810204,549,-1.4174805,-0.0960083,-0.19830322
1601133810204,550,-0.8461914,-0.9373169,0.13812256
1601133810204,551,-0.75683594,-0.31671143,0.21478271
1601133810204,552,-0.48999023,-0.7720337,-0.11846924
1601133810204,553,-0.77246094,-0.54156494,0.30999756
1601133810204,554,-2.0,-1.0525513,0.20794678
1601133810204,555,-0.77124023,-0.045959473,0.22161865
1601133810205,556,-2.0,-1.0525513,0.20794678
1601133810205,557,-1.6630859,-0.3027954,0.26678467
1601133810205,558,-1.2004395,-0.47613525,-0.47027588
1601133810205,559,-0.91015625,-0.8110962,-0.37091064
1601133810205,560,-1.6630859,-0.3027954,0.26678467
1601133810205,561,-0.91015625,-0.8110962,-0.37091064
1601133810205,562,-0.91015625,-0.8110962,-0.37091064
1601133810205,563,-0.74316406,0.089782715,0.06512451
1601133810206,564,-1.4174805,-0.0960083,-0.19830322
1601133810206,565,-0.8461914,-0.9373169,0.13812256
1601133810206,566,-0.77124023,-0.045959473,0.22161865
1601133810206,567,-2.0,-1.451477,-0.51690674
1601133810206,568,-0.77246094,-0.54156494,0.30999756
1601133810206,569,-0.6386719,-1.0122681,-0.75079346
1601133810206,570,-0.74316406,0.089782715,0.06512451
1601133810206,571,-0.74316406,0.089782715,0.06512451
1601133810206,572,-2.0,-1.451477,-0.51690674
1601133810207,573,-0.77124023,-0.045959473,0.22161865
1601133810207,574,-1.2004395,-0.47613525,-0.47027588
1601133810207,575,-0.6386719,-1.0122681,-0.75079346
1601133810208,576,-0.8461914,-0.9373169,0.13812256
1601133810208,577,-1.6630859,-0.3027954,0.26678467
1601133810208,578,-1.2004395,-0.47613525,-0.47027588
1601133810208,579,-2.0,-1.451477,-0.51690674
1601133810208,580,-0.7084961,-0.2649536,-0.3887329
1601133810208,581,-1.4174805,-0.0960083,-0.19830322
1601133810208,582,-0.77124023,-0.045959473,0.22161865
1601133810208,583,-0.48999023,-0.7720337,-0.11846924
1601133810208,584,-0.48999023,-0.7720337,-0.11846924
1601133810209,585,-0.8461914,-0.9373169,0.13812256
1601133810209,586,-0.91015625,-0.8110962,-0.37091064
1601133810210,587,-0.91015625,-0.8110962,-0.37091064
1601133810210,588,-0.74316406,0.089782715,0.06512451
1601133810210,589,-0.8461914,-0.9373169,0.13812256
1601133810210,590,-1.2004395,-0.47613525,-0.47027588
1601133810210,591,-0.74316406,0.089782715,0.06512451
1601133810210,592,-0.77246094,-0.54156494,0.30999756
1601133810211,593,-0.77124023,-0.045959473,0.22161865
1601133810211,594,-0.77246094,-0.54156494,0.30999756
1601133810211,595,-1.6630859,-0.3027954,0.26678467
1601133810211,596,-0.8461914,-0.9373169,0.13812256
1601133810211,597,-1.6630859,-0.3027954,0.26678467
1601133810211,598,-0.6386719,-1.0122681,-0.75079346
1601133810211,599,-2.0,-1.451477,-0.51690674
1601133810212,600,-0.77124023,-0.045959473,0.22161865
1601133810212,601,-0.74316406,0.089782715,0.06512451
1601133810212,602,-0.6386719,-1.0122681,-0.75079346
1601133810212,603,-0.77246094,-0.54156494,0.30999756
1601133810212,604,-2.0,-1.451477,-0.51690674
1601133810212,605,-0.7084961,-0.2649536,-0.3887329
1601133810212,606,-1.2004395,-0.47613525,-0.47027588
1601133810215,607,-0.77124023,-0.045959473,0.22161865
1601133810216,608,-0.7084961,-0.2649536,-0.3887329
1601133810216,609,-0.8461914,-0.9373169,0.13812256
1601133810216,610,-0.77246094,-0.54156494,0.30999756
1601133810216,611,-0.77246094,-0.54156494,0.30999756
1601133810216,612,-1.2004395,-0.47613525,-0.47027588
1601133810216,613,-0.8461914,-0.9373169,0.13812256
1601133810216,614,-0.6386719,-1.0122681,-0.75079346
1601133810216,615,-0.77246094,-0.54156494,0.30999756
1601133810217,616,-0.7084961,-0.2649536,-0.3887329
1601133810217,617,-1.6630859,-0.3027954,0.26678467
1601133810218,618,-1.6630859,-0.3027954,0.26678467
1601133810218,619,-0.7084961,-0.2649536,-0.3887329
1601133810221,620,-0.6386719,-1.0122681,-0.75079346
1601133810221,621,-2.0,-1.451477,-0.51690674
1601133810221,622,-1.6630859,-0.3027954,0.26678467
1601133810222,623,-1.2004395,-0.47613525,-0.47027588
1601133810222,624,-2.0,-1.451477,-0.51690674
1601133810222,625,-1.6630859,-0.3027954,0.26678467
1601133810225,626,-2.0,-1.451477,-0.51690674
1601133810225,627,-0.6386719,-1.0122681,-0.75079346
1601133810225,628,-1.2004395,-0.47613525,-0.47027588
1601133810225,629,-0.7084961,-0.2649536,-0.3887329
1601133810225,630,-0.7084961,-0.2649536,-0.3887329
1601133810228,631,-1.2004395,-0.47613525,-0.47027588
1601133810228,632,-2.0,-1.451477,-0.51690674
1601133810228,633,-0.6386719,-1.0122681,-0.75079346
1601133810228,634,-0.6386719,-1.0122681,-0.75079346
1601133810228,635,-0.7084961,-0.2649536,-0.3887329
1601133810229,636,-1.2004395,-0.47613525,-0.47027588
1601133810232,637,-0.7084961,-0.2649536,-0.3887329
1601133810233,638,-0.6386719,-1.0122681,-0.75079346
1601133810233,639,-0.7084961,-0.2649536,-0.3887329
1601133812670,640,-0.7314453,-0.7000122,-0.7444458
1601133812670,641,-0.7314453,-0.7000122,-0.7444458
1601133812670,642,-0.7314453,-0.7000122,-0.7444458
1601133812670,643,-0.7314453,-0.7000122,-0.7444458
1601133812671,644,-0.7314453,-0.7000122,-0.7444458
1601133812671,645,-0.7314453,-0.7000122,-0.7444458
1601133812672,646,-0.7314453,-0.7000122,-0.7444458
1601133812672,647,-0.7314453,-0.7000122,-0.7444458
1601133812672,648,-1.5556641,-1.2730103,-0.6824341
1601133812673,649,-1.5556641,-1.2730103,-0.6824341
1601133812673,650,-1.5556641,-1.2730103,-0.6824341
1601133812673,651,-1.5556641,-1.2730103,-0.6824341
1601133812673,652,-0.7314453,-0.7000122,-0.7444458
1601133812674,653,-2.0,-1.6900024,1.024353
1601133812678,654,-1.5556641,-1.2730103,-0.6824341
1601133812679,655,-1.5556641,-1.2730103,-0.6824341
1601133812679,656,-2.0,-1.6900024,1.024353
1601133812679,657,-1.5556641,-1.2730103,-0.6824341
1601133812688,658,-0.7314453,-0.7000122,-0.7444458
1601133812688,659,-2.0,-1.6900024,1.024353
1601133812689,660,-2.0,-1.6900024,1.024353
1601133812689,661,-1.2634277,0.7941284,0.53118896
1601133812689,662,-1.2634277,0.7941284,0.53118896
1601133812689,663,-1.5556641,-1.2730103,-0.6824341
1601133812689,664,-1.5556641,-1.2730103,-0.6824341
1601133812689,665,-2.0,-1.6900024,1.024353
1601133812689,666,-2.0,-1.6900024,1.024353
1601133812689,667,-1.2634277,0.7941284,0.53118896
1601133812690,668,-1.2634277,0.7941284,0.53118896
1601133812690,669,-2.0,-1.6900024,1.024353
1601133812690,670,-1.5556641,-1.2730103,-0.6824341
1601133812690,671,-1.2634277,0.7941284,0.53118896
1601133812690,672,-1.2634277,0.7941284,0.53118896
1601133812690,673,-0.5332031,-0.5823364,-0.39898682
1601133812690,674,-2.0,-1.6900024,1.024353
1601133812690,675,-0.5332031,-0.5823364,-0.39898682
1601133812690,676,-2.0,-1.6900024,1.024353
1601133812697,677,-1.2634277,0.7941284,0.53118896
1601133812698,678,-2.0,-1.6900024,1.024353
1601133812698,679,-0.5332031,-0.5823364,-0.39898682
1601133812698,680,-0.5332031,-0.5823364,-0.39898682
1601133812698,681,-1.2634277,0.7941284,0.53118896
1601133812698,682,-1.3027344,0.05706787,0.0836792
1601133812698,683,-0.5332031,-0.5823364,-0.39898682
1601133812698,684,-1.2634277,0.7941284,0.53118896
1601133812698,685,-1.3027344,0.05706787,0.0836792
1601133812698,686,-1.2634277,0.7941284,0.53118896
1601133812699,687,-2.0,0.058776855,0.16888428
1601133812699,688,-2.0,0.058776855,0.16888428
1601133812699,689,-0.5332031,-0.5823364,-0.39898682
1601133812699,690,-1.3027344,0.05706787,0.0836792
1601133812699,691,-1.0053711,-0.88775635,-0.24371338
1601133812699,692,-0.5332031,-0.5823364,-0.39898682
1601133812700,693,-1.3027344,0.05706787,0.0836792
1601133812700,694,-0.5332031,-0.5823364,-0.39898682
1601133812701,695,-0.5332031,-0.5823364,-0.39898682
1601133812707,696,-1.3027344,0.05706787,0.0836792
1601133812708,697,-1.3027344,0.05706787,0.0836792
1601133812708,698,-1.7524414,-1.9998169,-0.40704346
1601133812708,699,-2.0,0.058776855,0.16888428
1601133812709,700,-2.0,0.058776855,0.16888428
1601133812709,701,-1.3027344,0.05706787,0.0836792
1601133812710,702,-0.5332031,-0.5823364,-0.39898682
1601133812710,703,-1.0053711,-0.88775635,-0.24371338
1601133812710,704,-1.3027344,0.05706787,0.0836792
1601133812710,705,-1.7524414,-1.9998169,-0.40704346
1601133812710,706,-2.0,0.058776855,0.16888428
1601133812710,707,-2.0,0.058776855,0.16888428
1601133812723,708,-2.0,-1.098938,0.18353271
1601133812724,709,-1.0053711,-0.88775635,-0.24371338
1601133812724,710,-2.0,0.058776855,0.16888428
1601133812724,711,-1.0053711,-0.88775635,-0.24371338
1601133812724,712,-2.0,-1.1560669,0.42547607
1601133812724,713,-1.3027344,0.05706787,0.0836792
1601133812724,714,-1.7524414,-1.9998169,-0.40704346
1601133812724,715,-1.0053711,-0.88775635,-0.24371338
1601133812725,716,-2.0,0.058776855,0.16888428
1601133812725,717,-1.0053711,-0.88775635,-0.24371338
1601133812725,718,-2.0,-1.098938,0.18353271
1601133812725,719,-1.3027344,0.05706787,0.0836792
1601133812725,720,-1.0053711,-0.88775635,-0.24371338
1601133812725,721,-1.7524414,-1.9998169,-0.40704346
1601133812725,722,-2.0,-1.098938,0.18353271
1601133812725,723,-1.7524414,-1.9998169,-0.40704346
1601133812725,724,-1.9147949,0.22137451,0.29559326
1601133812725,725,-2.0,0.058776855,0.16888428
1601133812726,726,-1.7524414,-1.9998169,-0.40704346
1601133812726,727,-2.0,0.058776855,0.16888428
1601133812726,728,-2.0,-1.1560669,0.42547607
1601133812726,729,-1.0053711,-0.88775635,-0.24371338
1601133812726,730,-1.0053711,-0.88775635,-0.24371338
1601133812726,731,-1.7524414,-1.9998169,-0.40704346
1601133812726,732,-2.0,-1.098938,0.18353271
1601133812726,733,-2.0,-1.1560669,0.42547607
1601133812726,734,-1.0688477,-0.5606079,0.26434326
1601133812726,735,-1.0053711,-0.88775635,-0.24371338
1601133812726,736,-1.9147949,0.22137451,0.29559326
1601133812727,737,-2.0,-1.098938,0.18353271
1601133812727,738,-2.0,-1.098938,0.18353271
1601133812727,739,-1.9147949,0.22137451,0.29559326
1601133812727,740,-1.7524414,-1.9998169,-0.40704346
1601133812739,741,-2.0,-1.098938,0.18353271
1601133812739,742,-2.0,-1.1560669,0.42547607
1601133812739,743,-0.7307129,-0.04498291,-0.120910645
1601133812739,744,-1.7524414,-1.9998169,-0.40704346
1601133812739,745,-1.7524414,-1.9998169,-0.40704346
1601133812740,746,-0.05126953,0.21429443,-0.5418091
1601133812740,747,-1.0688477,-0.5606079,0.26434326
1601133812740,748,-2.0,-1.1560669,0.42547607
1601133812740,749,0.43408203,0.38763428,-0.109680176
1601133812740,750,-1.0688477,-0.5606079,0.26434326
1601133812740,751,0.24438477,0.48431396,0.04119873
1601133812740,752,-2.0,-1.1560669,0.42547607
1601133812740,753,-0.7307129,-0.04498291,-0.120910645
1601133812740,754,-2.0,-1.098938,0.18353271
1601133812740,755,-2.0,-1.1560669,0.42547607
1601133812741,756,-2.0,-1.098938,0.18353271
1601133812741,757,-1.9147949,0.22137451,0.29559326
1601133812741,758,-2.0,-1.098938,0.18353271
1601133812741,759,-1.9147949,0.22137451,0.29559326
1601133812741,760,-1.0688477,-0.5606079,0.26434326
1601133812741,761,-1.9147949,0.22137451,0.29559326
1601133812741,762,-0.05126953,0.21429443,-0.5418091
1601133812742,763,-0.083496094,0.5199585,-0.19268799
1601133812742,764,-1.0688477,-0.5606079,0.26434326
1601133812742,765,-2.0,-1.1560669,0.42547607
1601133812742,766,-2.0,-1.1560669,0.42547607
1601133812742,767,-2.0,-1.1560669,0.42547607
1601133812742,768,-0.7307129,-0.04498291,-0.120910645
1601133812742,769,-1.9147949,0.22137451,0.29559326
1601133812746,770,-0.7307129,-0.04498291,-0.120910645
1601133812746,771,-1.9147949,0.22137451,0.29559326
1601133812746,772,-1.0688477,-0.5606079,0.26434326
1601133812746,773,-1.9147949,0.22137451,0.29559326
1601133812746,774,-1.9147949,0.22137451,0.29559326
1601133812746,775,-0.7307129,-0.04498291,-0.120910645
1601133812746,776,-0.05126953,0.21429443,-0.5418091
1601133812746,777,0.43408203,0.38763428,-0.109680176
1601133812747,778,-0.35107422,0.30096436,-0.33648682
1601133812747,779,0.43408203,0.38763428,-0.109680176
1601133812753,780,-0.05126953,0.21429443,-0.5418091
1601133812754,781,-1.0688477,-0.5606079,0.26434326
1601133812754,782,-0.7307129,-0.04498291,-0.120910645
1601133812754,783,-1.0688477,-0.5606079,0.26434326
1601133812754,784,-1.0688477,-0.5606079,0.26434326
1601133812754,785,-0.05126953,0.21429443,-0.5418091
1601133812754,786,-1.0688477,-0.5606079,0.26434326
1601133812754,787,0.24438477,0.48431396,0.04119873
1601133812755,788,0.24438477,0.48431396,0.04119873
1601133812755,789,-0.6645508,-1.6682739,-0.6848755
1601133812755,790,0.43408203,0.38763428,-0.109680176
1601133812756,791,-0.7307129,-0.04498291,-0.120910645
1601133812763,792,-0.7307129,-0.04498291,-0.120910645
1601133812763,793,0.43408203,0.38763428,-0.109680176
1601133812763,794,-0.7307129,-0.04498291,-0.120910645
1601133812763,795,-0.083496094,0.5199585,-0.19268799
1601133812763,796,-0.083496094,0.5199585,-0.19268799
1601133812764,797,-0.86279297,-1.9998169,-0.61065674
1601133812764,798,-0.7307129,-0.04498291,-0.120910645
1601133812764,799,0.24438477,0.48431396,0.04119873
1601133812764,800,-0.05126953,0.21429443,-0.5418091
1601133812764,801,-0.05126953,0.21429443,-0.5418091
1601133812766,802,0.24438477,0.48431396,0.04119873
1601133812766,803,-0.05126953,0.21429443,-0.5418091
1601133812770,804,-0.35107422,0.30096436,-0.33648682
1601133812770,805,-0.05126953,0.21429443,-0.5418091
1601133812771,806,-2.0,-1.9998169,-0.082336426
1601133812771,807,-0.6645508,-1.6682739,-0.6848755
1601133812771,808,0.43408203,0.38763428,-0.109680176
1601133812771,809,-0.05126953,0.21429443,-0.5418091
1601133812771,810,0.43408203,0.38763428,-0.109680176
1601133812771,811,-0.083496094,0.5199585,-0.19268799
1601133812771,812,0.43408203,0.38763428,-0.109680176
1601133812771,813,-0.083496094,0.5199585,-0.19268799
1601133812772,814,-0.35107422,0.30096436,-0.33648682
1601133812782,815,0.43408203,0.38763428,-0.109680176
1601133812783,816,-1.2866211,-0.85723877,1.999939
1601133812783,817,-0.86279297,-1.9998169,-0.61065674
1601133812783,818,0.24438477,0.48431396,0.04119873
1601133812783,819,0.24438477,0.48431396,0.04119873
1601133812783,820,0.24438477,0.48431396,0.04119873
1601133812783,821,-0.35107422,0.30096436,-0.33648682
1601133812783,822,-0.083496094,0.5199585,-0.19268799
1601133812784,823,-0.35107422,0.30096436,-0.33648682
1601133812784,824,-0.6645508,-1.6682739,-0.6848755
1601133812784,825,-0.6645508,-1.6682739,-0.6848755
1601133812784,826,-1.0319824,-1.5869751,-0.38970947
1601133812784,827,-0.083496094,0.5199585,-0.19268799
1601133812784,828,0.43408203,0.38763428,-0.109680176
1601133812792,829,-0.35107422,0.30096436,-0.33648682
1601133812793,830,-2.0,-1.9998169,-0.082336426
1601133812793,831,0.24438477,0.48431396,0.04119873
1601133812793,832,-0.35107422,0.30096436,-0.33648682
1601133812793,833,-0.083496094,0.5199585,-0.19268799
1601133812795,834,-0.86279297,-1.9998169,-0.61065674
1601133812795,835,-0.96533203,-0.5342407,-0.4151001
1601133812795,836,-0.86279297,-1.9998169,-0.61065674
1601133812796,837,-0.083496094,0.5199585,-0.19268799
1601133812796,838,-0.6645508,-1.6682739,-0.6848755
1601133812796,839,0.24438477,0.48431396,0.04119873
1601133812796,840,-0.6645508,-1.6682739,-0.6848755
1601133812796,841,-1.2866211,-0.85723877,1.999939
1601133812796,842,-0.35107422,0.30096436,-0.33648682
1601133812796,843,-0.86279297,-1.9998169,-0.61065674
1601133812797,844,-0.083496094,0.5199585,-0.19268799
1601133812797,845,-0.35107422,0.30096436,-0.33648682
1601133812797,846,-0.86279297,-1.9998169,-0.61065674
1601133812797,847,-2.0,-1.9998169,-0.082336426
1601133812797,848,-0.6645508,-1.6682739,-0.6848755
1601133812797,849,-1.2866211,-0.85723877,1.999939
1601133812798,850,-0.6645508,-1.6682739,-0.6848755
1601133812798,851,-0.86279297,-1.9998169,-0.61065674
1601133812798,852,-2.0,-1.9998169,-0.082336426
1601133812798,853,-0.35107422,0.30096436,-0.33648682
1601133812799,854,-2.0,-1.9998169,-0.082336426
1601133812803,855,-0.6645508,-1.6682739,-0.6848755
1601133812803,856,-1.0319824,-1.5869751,-0.38970947
1601133812803,857,-0.68237305,-0.5413208,-0.12286377
1601133812803,858,-2.0,-1.9998169,-0.082336426
1601133812804,859,-1.2866211,-0.85723877,1.999939
1601133812804,860,-1.2866211,-0.85723877,1.999939
1601133812804,861,-1.0319824,-1.5869751,-0.38970947
1601133812804,862,-0.6645508,-1.6682739,-0.6848755
1601133812804,863,-1.0319824,-1.5869751,-0.38970947
1601133812804,864,-1.2866211,-0.85723877,1.999939
1601133812804,865,-0.86279297,-1.9998169,-0.61065674
1601133812804,866,-1.0319824,-1.5869751,-0.38970947
1601133812810,867,-0.5292969,-0.4751587,-0.078186035
1601133812810,868,-0.96533203,-0.5342407,-0.4151001
1601133812810,869,-2.0,-1.9998169,-0.082336426
1601133812810,870,-0.68237305,-0.5413208,-0.12286377
1601133812811,871,-0.86279297,-1.9998169,-0.61065674
1601133812811,872,-1.2866211,-0.85723877,1.999939
1601133812811,873,-2.0,-1.9998169,-0.082336426
1601133812811,874,-0.96533203,-0.5342407,-0.4151001
1601133812811,875,-1.0319824,-1.5869751,-0.38970947
1601133812811,876,-0.96533203,-0.5342407,-0.4151001
1601133812817,877,-0.68237305,-0.5413208,-0.12286377
1601133812817,878,-0.96533203,-0.5342407,-0.4151001
1601133812817,879,-2.0,-1.9998169,-0.082336426
1601133812817,880,-0.5292969,-0.4751587,-0.078186035
1601133812817,881,-1.0319824,-1.5869751,-0.38970947
1601133812818,882,-0.86279297,-1.9998169,-0.61065674
1601133812818,883,-0.68237305,-0.5413208,-0.12286377
1601133812818,884,-0.68237305,-0.5413208,-0.12286377
1601133812818,885,-0.96533203,-0.5342407,-0.4151001
1601133812818,886,-0.9824219,-0.55255127,0.023620605
1601133812818,887,-1.9003906,-0.74420166,0.17108154
1601133812819,888,-0.9824219,-0.55255127,0.023620605
1601133812825,889,-1.2866211,-0.85723877,1.999939
1601133812825,890,-2.0,-1.9998169,-0.082336426
1601133812825,891,-0.5292969,-0.4751587,-0.078186035
1601133812825,892,-0.68237305,-0.5413208,-0.12286377
1601133812825,893,-0.5292969,-0.4751587,-0.078186035
1601133812825,894,-0.5292969,-0.4751587,-0.078186035
1601133812826,895,-1.2866211,-0.85723877,1.999939
1601133812826,896,-0.9824219,-0.55255127,0.023620605
1601133812827,897,-0.8286133,-0.36260986,-0.028625488
1601133812827,898,-1.0319824,-1.5869751,-0.38970947
1601133812827,899,-1.2866211,-0.85723877,1.999939
1601133812828,900,-0.5292969,-0.4751587,-0.078186035
1601133812828,901,-1.0319824,-1.5869751,-0.38970947
1601133812838,902,-1.9003906,-0.74420166,0.17108154
1601133812839,903,-1.9003906,-0.74420166,0.17108154
1601133812839,904,-0.75927734,-0.74591064,0.12835693
1601133812839,905,-0.8286133,-0.36260986,-0.028625488
1601133812839,906,-0.7416992,-0.4212036,0.014831543
1601133812839,907,-1.0319824,-1.5869751,-0.38970947
1601133812840,908,-0.96533203,-0.5342407,-0.4151001
1601133812840,909,-0.9824219,-0.55255127,0.023620605
1601133812840,910,-0.9824219,-0.55255127,0.023620605
1601133812840,911,-0.96533203,-0.5342407,-0.4151001
1601133812840,912,-1.9003906,-0.74420166,0.17108154
1601133812840,913,-0.8286133,-0.36260986,-0.028625488
1601133812840,914,-0.96533203,-0.5342407,-0.4151001
1601133812841,915,-0.75927734,-0.74591064,0.12835693
1601133812841,916,-0.96533203,-0.5342407,-0.4151001
1601133812841,917,-0.9824219,-0.55255127,0.023620605
1601133812841,918,-0.68237305,-0.5413208,-0.12286377
1601133812845,919,-0.7416992,-0.4212036,0.014831543
1601133812845,920,-0.68237305,-0.5413208,-0.12286377
1601133812845,921,-0.68237305,-0.5413208,-0.12286377
1601133812846,922,-1.9003906,-0.74420166,0.17108154
1601133812846,923,-0.68237305,-0.5413208,-0.12286377
1601133812846,924,-0.5292969,-0.4751587,-0.078186035
1601133812848,925,-0.75927734,-0.74591064,0.12835693
1601133812850,926,-0.8286133,-0.36260986,-0.028625488
1601133812850,927,-0.75927734,-0.74591064,0.12835693
1601133812852,928,-0.5292969,-0.4751587,-0.078186035
1601133812852,929,-0.9824219,-0.55255127,0.023620605
1601133812859,930,-0.5292969,-0.4751587,-0.078186035
1601133812859,931,-0.7416992,-0.4212036,0.014831543
1601133812859,932,-0.8286133,-0.36260986,-0.028625488
1601133812859,933,-1.9003906,-0.74420166,0.17108154
1601133812859,934,-0.7416992,-0.4212036,0.014831543
1601133812859,935,-0.5292969,-0.4751587,-0.078186035
1601133812859,936,-1.9003906,-0.74420166,0.17108154
1601133812861,937,-0.9824219,-0.55255127,0.023620605
1601133812864,938,-0.75927734,-0.74591064,0.12835693
1601133812864,939,-0.8286133,-0.36260986,-0.028625488
1601133812864,940,-0.7416992,-0.4212036,0.014831543
1601133812864,941,-0.8286133,-0.36260986,-0.028625488
1601133812865,942,-0.9824219,-0.55255127,0.023620605
1601133812871,943,-0.75927734,-0.74591064,0.12835693
1601133812872,944,-0.75927734,-0.74591064,0.12835693
1601133812872,945,-0.9824219,-0.55255127,0.023620605
1601133812872,946,-1.9003906,-0.74420166,0.17108154
1601133812872,947,-1.9003906,-0.74420166,0.17108154
1601133812876,948,-0.8286133,-0.36260986,-0.028625488
1601133812877,949,-0.7416992,-0.4212036,0.014831543
1601133812877,950,-1.9003906,-0.74420166,0.17108154
1601133812877,951,-0.8286133,-0.36260986,-0.028625488
1601133812877,952,-0.7416992,-0.4212036,0.014831543
1601133812877,953,-0.75927734,-0.74591064,0.12835693
1601133812877,954,-0.8286133,-0.36260986,-0.028625488
1601133812879,955,-0.7416992,-0.4212036,0.014831543
1601133812879,956,-0.75927734,-0.74591064,0.12835693
1601133812881,957,-0.75927734,-0.74591064,0.12835693
1601133812881,958,-0.7416992,-0.4212036,0.014831543
1601133812882,959,-0.7416992,-0.4212036,0.014831543
1601133815188,960,-0.9506836,-0.45855713,0.26800537
1601133815188,961,-0.9506836,-0.45855713,0.26800537
1601133815188,962,-0.9506836,-0.45855713,0.26800537
1601133815189,963,-0.86499023,-0.23345947,-0.01739502
1601133815191,964,-0.9506836,-0.45855713,0.26800537
1601133815191,965,-0.9506836,-0.45855713,0.26800537
1601133815191,966,-0.89331055,-1.296936,0.12713623
1601133815204,967,-0.9506836,-0.45855713,0.26800537
1601133815204,968,-0.9506836,-0.45855713,0.26800537
1601133815204,969,-0.9506836,-0.45855713,0.26800537
1601133815204,970,-0.86499023,-0.23345947,-0.01739502
1601133815205,971,-0.86499023,-0.23345947,-0.01739502
1601133815205,972,-0.86499023,-0.23345947,-0.01739502
1601133815205,973,-0.86499023,-0.23345947,-0.01739502
1601133815205,974,-0.89331055,-1.296936,0.12713623
1601133815206,975,-0.86499023,-0.23345947,-0.01739502
1601133815206,976,-0.89331055,-1.296936,0.12713623
1601133815206,977,-0.86499023,-0.23345947,-0.01739502
1601133815206,978,-0.89331055,-1.296936,0.12713623
1601133815207,979,-0.9506836,-0.45855713,0.26800537
1601133815207,980,-0.8449707,-0.8389282,0.7357788
1601133815207,981,-0.86499023,-0.23345947,-0.01739502
1601133815208,982,-0.89331055,-1.296936,0.12713623
1601133815208,983,-0.89331055,-1.296936,0.12713623
1601133815208,984,-0.8449707,-0.8389282,0.7357788
1601133815208,985,-0.8449707,-0.8389282,0.7357788
1601133815208,986,-0.89331055,-1.296936,0.12713623
1601133815208,987,-0.9013672,-0.56622314,1.0126343
1601133815208,988,-0.86499023,-0.23345947,-0.01739502
1601133815209,989,-0.8449707,-0.8389282,0.7357788
1601133815209,990,-0.9013672,-0.56622314,1.0126343
1601133815209,991,-0.89331055,-1.296936,0.12713623
1601133815213,992,-0.8449707,-0.8389282,0.7357788
1601133815214,993,-0.8449707,-0.8389282,0.7357788
1601133815215,994,-0.9013672,-0.56622314,1.0126343
1601133815216,995,-0.9506836,-0.45855713,0.26800537
1601133815216,996,-1.2236328,-0.83721924,1.1044312
1601133815216,997,-0.86499023,-0.23345947,-0.01739502
1601133815216,998,-0.89331055,-1.296936,0.12713623
1601133815217,999,-0.8449707,-0.8389282,0.7357788
1601133815217,1000,-1.2236328,-0.83721924,1.1044312
1601133815217,1001,-0.9013672,-0.56622314,1.0126343
1601133815223,1002,-0.9013672,-0.56622314,1.0126343
1601133815223,1003,-0.9013672,-0.56622314,1.0126343
1601133815224,1004,-1.2236328,-0.83721924,1.1044312
1601133815225,1005,-0.8449707,-0.8389282,0.7357788
1601133815225,1006,-0.8779297,-0.24737549,0.5536499
1601133815225,1007,-0.89331055,-1.296936,0.12713623
1601133815225,1008,-0.8449707,-0.8389282,0.7357788
1601133815225,1009,-0.8449707,-0.8389282,0.7357788
1601133815225,1010,-0.9013672,-0.56622314,1.0126343
1601133815225,1011,-1.2236328,-0.83721924,1.1044312
1601133815239,1012,-1.2236328,-0.83721924,1.1044312
1601133815241,1013,-0.8779297,-0.24737549,0.5536499
1601133815241,1014,-1.2236328,-0.83721924,1.1044312
1601133815242,1015,0.0053710938,-0.5005493,0.48431396
1601133815242,1016,0.0053710938,-0.5005493,0.48431396
1601133815242,1017,-0.8779297,-0.24737549,0.5536499
1601133815242,1018,-0.9013672,-0.56622314,1.0126343
1601133815242,1019,0.0029296875,0.21478271,0.46990967
1601133815242,1020,-1.2236328,-0.83721924,1.1044312
1601133815242,1021,-0.8911133,0.3866577,0.2489624
1601133815242,1022,-0.9013672,-0.56622314,1.0126343
1601133815242,1023,-0.8779297,-0.24737549,0.5536499
1601133815242,1024,-0.9013672,-0.56622314,1.0126343
1601133815242,1025,-0.8779297,-0.24737549,0.5536499
1601133815242,1026,0.0029296875,0.21478271,0.46990967
1601133815243,1027,0.0053710938,-0.5005493,0.48431396
1601133815243,1028,-1.2236328,-0.83721924,1.1044312
1601133815243,1029,-1.2236328,-0.83721924,1.1044312
1601133815243,1030,-0.8779297,-0.24737549,0.5536499
1601133815247,1031,-0.8779297,-0.24737549,0.5536499
1601133815247,1032,0.0053710938,-0.5005493,0.48431396
1601133815247,1033,0.0053710938,-0.5005493,0.48431396
1601133815247,1034,0.0029296875,0.21478271,0.46990967
1601133815247,1035,-1.2236328,-0.83721924,1.1044312
1601133815247,1036,0.0029296875,0.21478271,0.46990967
1601133815249,1037,-0.8779297,-0.24737549,0.5536499
1601133815249,1038,-0.8779297,-0.24737549,0.5536499
1601133815249,1039,0.0029296875,0.21478271,0.46990967
1601133815249,1040,-0.18261719,-1.2937622,-0.24346924
1601133815249,1041,0.0053710938,-0.5005493,0.48431396
1601133815249,1042,0.0053710938,-0.5005493,0.48431396
1601133815250,1043,-0.5192871,0.015563965,0.14154053
1601133815250,1044,-0.8911133,0.3866577,0.2489624
1601133815250,1045,0.0029296875,0.21478271,0.46990967
1601133815250,1046,-0.8779297,-0.24737549,0.5536499
1601133815250,1047,0.0053710938,-0.5005493,0.48431396
1601133815250,1048,0.0053710938,-0.5005493,0.48431396
1601133815250,1049,-0.8911133,0.3866577,0.2489624
1601133815250,1050,0.0029296875,0.21478271,0.46990967
1601133815250,1051,0.0029296875,0.21478271,0.46990967
1601133815250,1052,-0.18261719,-1.2937622,-0.24346924
1601133815250,1053,-0.8911133,0.3866577,0.2489624
1601133815250,1054,-0.18261719,-1.2937622,-0.24346924
1601133815250,1055,-0.8911133,0.3866577,0.2489624
1601133815251,1056,0.0029296875,0.21478271,0.46990967
1601133815251,1057,-0.5192871,0.015563965,0.14154053
1601133815253,1058,-0.18261719,-1.2937622,-0.24346924
1601133815253,1059,-0.8911133,0.3866577,0.2489624
1601133815253,1060,-0.5192871,0.015563965,0.14154053
1601133815253,1061,-0.5192871,0.015563965,0.14154053
1601133815253,1062,-0.9667969,-0.44854736,0.10467529
1601133815253,1063,0.0053710938,-0.5005493,0.48431396
1601133815253,1064,-1.8156738,-0.7630005,0.38641357
1601133815254,1065,-0.18261719,-1.2937622,-0.24346924
1601133815254,1066,-0.9667969,-0.44854736,0.10467529
1601133815254,1067,-0.5192871,0.015563965,0.14154053
1601133815254,1068,-0.9667969,-0.44854736,0.10467529
1601133815254,1069,-0.8911133,0.3866577,0.2489624
1601133815254,1070,-0.8911133,0.3866577,0.2489624
1601133815262,1071,-0.8911133,0.3866577,0.2489624
1601133815262,1072,0.0029296875,0.21478271,0.46990967
1601133815262,1073,-1.3916016,-1.0698853,1.5917358
1601133815263,1074,-0.9667969,-0.44854736,0.10467529
1601133815263,1075,-1.8156738,-0.7630005,0.38641357
1601133815263,1076,-1.8156738,-0.7630005,0.38641357
1601133815263,1077,-0.18261719,-1.2937622,-0.24346924
1601133815263,1078,-1.3916016,-1.0698853,1.5917358
1601133815263,1079,-0.9667969,-0.44854736,0.10467529
1601133815263,1080,-0.18261719,-1.2937622,-0.24346924
1601133815264,1081,-1.2114258,-0.95025635,0.07659912
1601133815265,1082,-0.18261719,-1.2937622,-0.24346924
1601133815265,1083,-1.4016113,-0.6638794,0.37200928
1601133815265,1084,-0.5192871,0.015563965,0.14154053
1601133815265,1085,-1.8156738,-0.7630005,0.38641357
1601133815265,1086,-1.8156738,-0.7630005,0.38641357
1601133815265,1087,-0.5192871,0.015563965,0.14154053
1601133815265,1088,-0.5192871,0.015563965,0.14154053
1601133815265,1089,-0.8911133,0.3866577,0.2489624
1601133815265,1090,-0.9667969,-0.44854736,0.10467529
1601133815265,1091,-0.9667969,-0.44854736,0.10467529
1601133815265,1092,-0.40893555,-1.5669556,0.2387085
1601133815265,1093,-1.2114258,-0.95025635,0.07659912
1601133815265,1094,-1.3916016,-1.0698853,1.5917358
1601133815265,1095,-0.9667969,-0.44854736,0.10467529
1601133815265,1096,-1.3916016,-1.0698853,1.5917358
1601133815277,1097,-1.3916016,-1.0698853,1.5917358
1601133815277,1098,-0.18261719,-1.2937622,-0.24346924
1601133815277,1099,-1.8156738,-0.7630005,0.38641357
1601133815277,1100,-0.18261719,-1.2937622,-0.24346924
1601133815277,1101,-1.3916016,-1.0698853,1.5917358
1601133815277,1102,0.08251953,-0.7217407,0.3456421
1601133815277,1103,-1.4016113,-0.6638794,0.37200928
1601133815277,1104,-1.2114258,-0.95025635,0.07659912
1601133815277,1105,-1.2114258,-0.95025635,0.07659912
1601133815277,1106,-1.4016113,-0.6638794,0.37200928
1601133815278,1107,-0.55493164,0.6034546,0.5639038
1601133815278,1108,-1.2114258,-0.95025635,0.07659912
1601133815278,1109,-1.8156738,-0.7630005,0.38641357
1601133815278,1110,-0.5192871,0.015563965,0.14154053
1601133815278,1111,-0.5192871,0.015563965,0.14154053
1601133815278,1112,-1.4016113,-0.6638794,0.37200928
1601133815278,1113,-1.3916016,-1.0698853,1.5917358
1601133815278,1114,-0.40893555,-1.5669556,0.2387085
1601133815278,1115,-1.8156738,-0.7630005,0.38641357
1601133815278,1116,-0.40893555,-1.5669556,0.2387085
1601133815278,1117,-0.40893555,-1.5669556,0.2387085
1601133815278,1118,-1.3916016,-1.0698853,1.5917358
1601133815279,1119,-0.9667969,-0.44854736,0.10467529
1601133815279,1120,-1.2114258,-0.95025635,0.07659912
1601133815279,1121,-0.9667969,-0.44854736,0.10467529
1601133815279,1122,-1.4016113,-0.6638794,0.37200928
1601133815279,1123,-1.4016113,-0.6638794,0.37200928
1601133815279,1124,-1.2114258,-0.95025635,0.07659912
1601133815279,1125,-0.40893555,-1.5669556,0.2387085
1601133815280,1126,0.08251953,-0.7217407,0.3456421
1601133815282,1127,-1.2114258,-0.95025635,0.07659912
1601133815283,1128,0.08251953,-0.7217407,0.3456421
1601133815283,1129,-0.40893555,-1.5669556,0.2387085
1601133815290,1130,-1.4016113,-0.6638794,0.37200928
1601133815290,1131,-0.55493164,0.6034546,0.5639038
1601133815290,1132,0.08251953,-0.7217407,0.3456421
1601133815290,1133,-0.40893555,-1.5669556,0.2387085
1601133815290,1134,-0.55493164,0.6034546,0.5639038
1601133815290,1135,-1.8156738,-0.7630005,0.38641357
1601133815290,1136,-1.4016113,-0.6638794,0.37200928
1601133815290,1137,-1.8156738,-0.7630005,0.38641357
1601133815290,1138,-0.40893555,-1.5669556,0.2387085
1601133815291,1139,-1.3916016,-1.0698853,1.5917358
1601133815291,1140,0.08251953,-0.7217407,0.3456421
1601133815291,1141,-2.0,-1.4424438,-1.7251587
1601133815291,1142,-2.0,-1.4424438,-1.7251587
1601133815291,1143,-2.0,-1.4424438,-1.7251587
1601133815291,1144,0.08251953,-0.7217407,0.3456421
1601133815291,1145,-1.0744629,-1.2642212,0.2164917
1601133815291,1146,-1.3916016,-1.0698853,1.5917358
1601133815291,1147,0.08251953,-0.7217407,0.3456421
1601133815296,1148,-0.55493164,0.6034546,0.5639038
1601133815297,1149,-0.55493164,0.6034546,0.5639038
1601133815297,1150,-1.0744629,-1.2642212,0.2164917
1601133815297,1151,-2.0,-1.4424438,-1.7251587
1601133815297,1152,-0.4609375,-0.940979,-0.29571533
1601133815297,1153,-0.4609375,-0.940979,-0.29571533
1601133815297,1154,-0.55493164,0.6034546,0.5639038
1601133815297,1155,-1.2114258,-0.95025635,0.07659912
1601133815297,1156,-0.55493164,0.6034546,0.5639038
1601133815297,1157,-1.2114258,-0.95025635,0.07659912
1601133815301,1158,0.08251953,-0.7217407,0.3456421
1601133815302,1159,-1.0744629,-1.2642212,0.2164917
1601133815302,1160,-0.55493164,0.6034546,0.5639038
1601133815302,1161,-2.0,-1.4424438,-1.7251587
1601133815302,1162,-1.208252,-0.13092041,-0.051574707
1601133815302,1163,-2.0,-1.4424438,-1.7251587
1601133815302,1164,-1.208252,-0.13092041,-0.051574707
1601133815303,1165,-1.4016113,-0.6638794,0.37200928
1601133815303,1166,-0.4609375,-0.940979,-0.29571533
1601133815303,1167,-2.0,-1.4424438,-1.7251587
1601133815303,1168,-1.0744629,-1.2642212,0.2164917
1601133815304,1169,-1.0554199,1.2723999,-0.018371582
1601133815304,1170,-1.4016113,-0.6638794,0.37200928
1601133815310,1171,-1.0554199,1.2723999,-0.018371582
1601133815310,1172,-0.40893555,-1.5669556,0.2387085
1601133815310,1173,-1.208252,-0.13092041,-0.051574707
1601133815310,1174,-1.0744629,-1.2642212,0.2164917
1601133815310,1175,-2.0,-1.4424438,-1.7251587
1601133815310,1176,-0.4609375,-0.940979,-0.29571533
1601133815310,1177,-1.0744629,-1.2642212,0.2164917
1601133815311,1178,-1.208252,-0.13092041,-0.051574707
1601133815311,1179,-2.0,-1.6438599,-0.1326294
1601133815330,1180,-0.40893555,-1.5669556,0.2387085
1601133815330,1181,0.08251953,-0.7217407,0.3456421
1601133815330,1182,-2.0,-1.6438599,-0.1326294
1601133815330,1183,-1.0554199,1.2723999,-0.018371582
1601133815334,1184,-0.4609375,-0.940979,-0.29571533
1601133815334,1185,0.08251953,-0.7217407,0.3456421
1601133815334,1186,-1.0744629,-1.2642212,0.2164917
1601133815334,1187,-2.0,-1.6438599,-0.1326294
1601133815334,1188,-1.8481445,-1.7786255,0.5075073
1601133815334,1189,-1.8481445,-1.7786255,0.5075073
1601133815334,1190,-0.55493164,0.6034546,0.5639038
1601133815335,1191,-0.55493164,0.6034546,0.5639038
1601133815335,1192,-1.0744629,-1.2642212,0.2164917
1601133815335,1193,-0.4609375,-0.940979,-0.29571533
1601133815335,1194,-0.4609375,-0.940979,-0.29571533
1601133815336,1195,-1.8481445,-1.7786255,0.5075073
1601133815336,1196,-1.208252,-0.13092041,-0.051574707
1601133815336,1197,-0.4609375,-0.940979,-0.29571533
1601133815336,1198,-1.7785645,-1.9585571,-0.2312622
1601133815336,1199,-1.7785645,-1.9585571,-0.2312622
1601133815336,1200,-1.7785645,-1.9585571,-0.2312622
1601133815336,1201,-1.0554199,1.2723999,-0.018371582
1601133815336,1202,-0.81689453,-1.3250122,-0.33843994
1601133815336,1203,-2.0,-1.4424438,-1.7251587
1601133815337,1204,-1.208252,-0.13092041,-0.051574707
1601133815337,1205,-1.0744629,-1.2642212,0.2164917
1601133815337,1206,-1.208252,-0.13092041,-0.051574707
1601133815337,1207,-1.208252,-0.13092041,-0.051574707
1601133815337,1208,-1.0554199,1.2723999,-0.018371582
1601133815337,1209,-0.81689453,-1.3250122,-0.33843994
1601133815337,1210,-2.0,-1.6438599,-0.1326294
1601133815337,1211,-0.81689453,-1.3250122,-0.33843994
1601133815337,1212,-1.8481445,-1.7786255,0.5075073
1601133815337,1213,-0.33422852,-0.80792236,0.026550293
1601133815337,1214,-1.0554199,1.2723999,-0.018371582
1601133815338,1215,-2.0,-1.4424438,-1.7251587
1601133815338,1216,-2.0,-1.6438599,-0.1326294
1601133815338,1217,-0.17480469,-0.68096924,0.3258667
1601133815338,1218,-1.0554199,1.2723999,-0.018371582
1601133815338,1219,-0.33422852,-0.80792236,0.026550293
1601133815338,1220,-0.33422852,-0.80792236,0.026550293
1601133815347,1221,-1.0554199,1.2723999,-0.018371582
1601133815347,1222,-0.4609375,-0.940979,-0.29571533
1601133815347,1223,-0.2487793,-0.04937744,0.27020264
1601133815347,1224,-2.0,-1.6438599,-0.1326294
1601133815347,1225,-1.0744629,-1.2642212,0.2164917
1601133815347,1226,-2.0,-1.6438599,-0.1326294
1601133815347,1227,-1.208252,-0.13092041,-0.051574707
1601133815348,1228,-1.8481445,-1.7786255,0.5075073
1601133815348,1229,-0.17480469,-0.68096924,0.3258667
1601133815348,1230,-1.0554199,1.2723999,-0.018371582
1601133815348,1231,-2.0,-1.6438599,-0.1326294
1601133815348,1232,-0.2487793,-0.04937744,0.27020264
1601133815348,1233,-2.0,-1.6438599,-0.1326294
1601133815349,1234,-1.7785645,-1.9585571,-0.2312622
1601133815349,1235,-1.8481445,-1.7786255,0.5075073
1601133815349,1236,-0.81689453,-1.3250122,-0.33843994
1601133815349,1237,-1.7785645,-1.9585571,-0.2312622
1601133815349,1238,-1.8481445,-1.7786255,0.5075073
1601133815350,1239,-0.17480469,-0.68096924,0.3258667
1601133815350,1240,-1.8481445,-1.7786255,0.5075073
1601133815350,1241,-0.4609375,-0.940979,-0.29571533
1601133815351,1242,-1.7785645,-1.9585571,-0.2312622
1601133815351,1243,-1.7785645,-1.9585571,-0.2312622
1601133815360,1244,-0.33422852,-0.80792236,0.026550293
1601133815361,1245,-0.81689453,-1.3250122,-0.33843994
1601133815361,1246,-1.7785645,-1.9585571,-0.2312622
1601133815361,1247,-0.2487793,-0.04937744,0.27020264
1601133815361,1248,-0.81689453,-1.3250122,-0.33843994
1601133815361,1249,-0.81689453,-1.3250122,-0.33843994
1601133815361,1250,-1.208252,-0.13092041,-0.051574707
1601133815361,1251,-1.8481445,-1.7786255,0.5075073
1601133815361,1252,-0.17480469,-0.68096924,0.3258667
1601133815361,1253,-0.81689453,-1.3250122,-0.33843994
1601133815361,1254,-0.33422852,-0.80792236,0.026550293
1601133815362,1255,-0.33422852,-0.80792236,0.026550293
1601133815362,1256,-1.0554199,1.2723999,-0.018371582
1601133815362,1257,-0.33422852,-0.80792236,0.026550293
1601133815362,1258,-1.7785645,-1.9585571,-0.2312622
1601133815362,1259,-0.2487793,-0.04937744,0.27020264
1601133815362,1260,-0.17480469,-0.68096924,0.3258667
1601133815363,1261,-0.17480469,-0.68096924,0.3258667
1601133815363,1262,-0.2487793,-0.04937744,0.27020264
1601133815363,1263,-2.0,-1.6438599,-0.1326294
1601133815363,1264,-0.81689453,-1.3250122,-0.33843994
1601133815368,1265,-0.17480469,-0.68096924,0.3258667
1601133815368,1266,-0.33422852,-0.80792236,0.026550293
1601133815368,1267,-0.2487793,-0.04937744,0.27020264
1601133815368,1268,-1.8481445,-1.7786255,0.5075073
1601133815368,1269,-0.33422852,-0.80792236,0.026550293
1601133815373,1270,-0.2487793,-0.04937744,0.27020264
1601133815374,1271,-0.17480469,-0.68096924,0.3258667
1601133815375,1272,-0.17480469,-0.68096924,0.3258667
1601133815375,1273,-1.7785645,-1.9585571,-0.2312622
1601133815377,1274,-0.2487793,-0.04937744,0.27020264
1601133815377,1275,-0.81689453,-1.3250122,-0.33843994
1601133815377,1276,-0.2487793,-0.04937744,0.27020264
1601133815377,1277,-0.33422852,-0.80792236,0.026550293
1601133815377,1278,-0.17480469,-0.68096924,0.3258667
1601133815379,1279,-0.2487793,-0.04937744,0.27020264
1601133817727,1280,-1.0983887,0.71917725,-0.788147
1601133817727,1281,-1.0983887,0.71917725,-0.788147
1601133817727,1282,-1.0983887,0.71917725,-0.788147
1601133817728,1283,-0.11987305,-0.5039673,-1.9998169
1601133817728,1284,-1.0983887,0.71917725,-0.788147
1601133817728,1285,-1.0983887,0.71917725,-0.788147
1601133817728,1286,-1.0983887,0.71917725,-0.788147
1601133817729,1287,-1.0983887,0.71917725,-0.788147
1601133817729,1288,-0.11987305,-0.5039673,-1.9998169
1601133817729,1289,0.004638672,-1.2734985,-1.0032349
1601133817731,1290,-0.11987305,-0.5039673,-1.9998169
1601133817744,1291,-0.11987305,-0.5039673,-1.9998169
1601133817745,1292,-0.11987305,-0.5039673,-1.9998169
1601133817746,1293,0.004638672,-1.2734985,-1.0032349
1601133817746,1294,-0.11987305,-0.5039673,-1.9998169
1601133817746,1295,-2.0,-0.98223877,0.055847168
1601133817746,1296,-1.0983887,0.71917725,-0.788147
1601133817746,1297,-2.0,-0.98223877,0.055847168
1601133817746,1298,0.004638672,-1.2734985,-1.0032349
1601133817748,1299,-0.11987305,-0.5039673,-1.9998169
1601133817748,1300,-0.11987305,-0.5039673,-1.9998169
1601133817748,1301,-1.0983887,0.71917725,-0.788147
1601133817748,1302,-2.0,-0.5408325,0.031188965
1601133817748,1303,-1.0983887,0.71917725,-0.788147
1601133817748,1304,0.004638672,-1.2734985,-1.0032349
1601133817748,1305,-2.0,-0.98223877,0.055847168
1601133817749,1306,-0.11987305,-0.5039673,-1.9998169
1601133817749,1307,0.004638672,-1.2734985,-1.0032349
1601133817749,1308,-0.11987305,-0.5039673,-1.9998169
1601133817749,1309,0.004638672,-1.2734985,-1.0032349
1601133817749,1310,0.004638672,-1.2734985,-1.0032349
1601133817749,1311,0.004638672,-1.2734985,-1.0032349
1601133817749,1312,-2.0,-0.14654541,0.85028076
1601133817749,1313,-2.0,-0.5408325,0.031188965
1601133817749,1314,-2.0,-0.98223877,0.055847168
1601133817749,1315,0.004638672,-1.2734985,-1.0032349
1601133817750,1316,0.004638672,-1.2734985,-1.0032349
1601133817750,1317,-2.0,-0.14654541,0.85028076
1601133817750,1318,-2.0,-0.98223877,0.055847168
1601133817750,1319,-2.0,-0.98223877,0.055847168
1601133817750,1320,-2.0,-0.98223877,0.055847168
1601133817750,1321,-2.0,-0.5408325,0.031188965
1601133817750,1322,-1.2319336,-0.028869629,0.64056396
1601133817750,1323,-2.0,-0.5408325,0.031188965
1601133817776,1324,-2.0,-0.98223877,0.055847168
1601133817776,1325,-2.0,-0.98223877,0.055847168
1601133817777,1326,-1.2319336,-0.028869629,0.64056396
1601133817777,1327,-2.0,-0.98223877,0.055847168
1601133817777,1328,-2.0,-0.5408325,0.031188965
1601133817777,1329,-2.0,-0.5408325,0.031188965
1601133817777,1330,-2.0,-0.14654541,0.85028076
1601133817777,1331,-2.0,-0.14654541,0.85028076
1601133817777,1332,-2.0,-0.14654541,0.85028076
1601133817777,1333,-1.2319336,-0.028869629,0.64056396
1601133817778,1334,-1.2319336,-0.028869629,0.64056396
1601133817778,1335,-1.2319336,-0.028869629,0.64056396
1601133817778,1336,-2.0,-0.5408325,0.031188965
1601133817778,1337,-0.73583984,-0.31915283,-0.013977051
1601133817778,1338,-2.0,-0.5408325,0.031188965
1601133817778,1339,-0.73583984,-0.31915283,-0.013977051
1601133817778,1340,-0.73583984,-0.31915283,-0.013977051
1601133817778,1341,-0.73583984,-0.31915283,-0.013977051
1601133817779,1342,-0.7192383,-0.17828369,0.38885498
1601133817779,1343,-2.0,-0.5408325,0.031188965
1601133817779,1344,-2.0,-0.14654541,0.85028076
1601133817779,1345,-0.7192383,-0.17828369,0.38885498
1601133817779,1346,-0.73583984,-0.31915283,-0.013977051
1601133817779,1347,-1.2319336,-0.028869629,0.64056396
1601133817779,1348,-0.7192383,-0.17828369,0.38885498
1601133817779,1349,-0.9160156,-0.33062744,0.17962646
1601133817779,1350,-0.73583984,-0.31915283,-0.013977051
1601133817780,1351,-2.0,-0.14654541,0.85028076
1601133817780,1352,-0.9160156,-0.33062744,0.17962646
1601133817780,1353,-0.7192383,-0.17828369,0.38885498
1601133817780,1354,-1.2319336,-0.028869629,0.64056396
1601133817780,1355,-2.0,-0.5408325,0.031188965
1601133817780,1356,-0.73583984,-0.31915283,-0.013977051
1601133817780,1357,-2.0,-0.14654541,0.85028076
1601133817780,1358,-0.5942383,-0.55303955,0.02532959
1601133817780,1359,-0.7192383,-0.17828369,0.38885498
1601133817780,1360,-2.0,-0.14654541,0.85028076
1601133817781,1361,-1.1696777,-0.17462158,0.02142334
1601133817781,1362,-0.7192383,-0.17828369,0.38885498
1601133817781,1363,-1.2319336,-0.028869629,0.64056396
1601133817781,1364,-0.5942383,-0.55303955,0.02532959
1601133817781,1365,-0.9160156,-0.33062744,0.17962646
1601133817783,1366,-1.1696777,-0.17462158,0.02142334
1601133817783,1367,-2.0,-0.14654541,0.85028076
1601133817783,1368,-0.9160156,-0.33062744,0.17962646
1601133817783,1369,-0.9160156,-0.33062744,0.17962646
1601133817783,1370,-0.5942383,-0.55303955,0.02532959
1601133817783,1371,-2.0,-0.18951416,-0.15435791
1601133817783,1372,-1.1696777,-0.17462158,0.02142334
1601133817784,1373,-0.7192383,-0.17828369,0.38885498
1601133817784,1374,-0.5942383,-0.55303955,0.02532959
1601133817784,1375,-0.73583984,-0.31915283,-0.013977051
1601133817784,1376,-1.1696777,-0.17462158,0.02142334
1601133817784,1377,-2.0,-0.18951416,-0.15435791
1601133817784,1378,-1.2319336,-0.028869629,0.64056396
1601133817784,1379,-1.0087891,-0.9417114,-0.4336548
1601133817784,1380,-1.2319336,-0.028869629,0.64056396
1601133817784,1381,-0.9160156,-0.33062744,0.17962646
1601133817785,1382,-2.0,-0.18951416,-0.15435791
1601133817785,1383,-1.0087891,-0.9417114,-0.4336548
1601133817785,1384,-0.73583984,-0.31915283,-0.013977051
1601133817785,1385,-0.9160156,-0.33062744,0.17962646
1601133817785,1386,-0.5942383,-0.55303955,0.02532959
1601133817785,1387,-0.7192383,-0.17828369,0.38885498
1601133817785,1388,-0.5942383,-0.55303955,0.02532959
1601133817785,1389,-0.51538086,-1.7720337,-0.47076416
1601133817785,1390,-0.5942383,-0.55303955,0.02532959
1601133817785,1391,-1.0087891,-0.9417114,-0.4336548
1601133817785,1392,-0.51538086,-1.7720337,-0.47076416
1601133817785,1393,-2.0,-0.18951416,-0.15435791
1601133817787,1394,-0.73583984,-0.31915283,-0.013977051
1601133817787,1395,-1.1696777,-0.17462158,0.02142334
1601133817787,1396,-1.1696777,-0.17462158,0.02142334
1601133817787,1397,-1.0493164,-1.0977173,-0.19293213
1601133817787,1398,-0.9160156,-0.33062744,0.17962646
1601133817787,1399,-0.7192383,-0.17828369,0.38885498
1601133817787,1400,-0.7192383,-0.17828369,0.38885498
1601133817787,1401,-0.51538086,-1.7720337,-0.47076416
1601133817797,1402,-0.9160156,-0.33062744,0.17962646
1601133817798,1403,-1.0493164,-1.0977173,-0.19293213
1601133817798,1404,-1.1696777,-0.17462158,0.02142334
1601133817798,1405,-0.43554688,-1.1355591,0.14886475
1601133817798,1406,-0.5942383,-0.55303955,0.02532959
1601133817798,1407,-2.0,-0.18951416,-0.15435791
1601133817798,1408,-0.9160156,-0.33062744,0.17962646
1601133817798,1409,-1.0493164,-1.0977173,-0.19293213
1601133817798,1410,-2.0,-0.18951416,-0.15435791
1601133817799,1411,-1.0087891,-0.9417114,-0.4336548
1601133817799,1412,-0.5942383,-0.55303955,0.02532959
1601133817799,1413,-0.5942383,-0.55303955,0.02532959
1601133817799,1414,-1.0087891,-0.9417114,-0.4336548
1601133817799,1415,-1.1696777,-0.17462158,0.02142334
1601133817799,1416,-1.0087891,-0.9417114,-0.4336548
1601133817799,1417,-2.0,-0.18951416,-0.15435791
1601133817799,1418,-2.0,-0.18951416,-0.15435791
1601133817799,1419,-0.51538086,-1.7720337,-0.47076416
1601133817800,1420,-0.43554688,-1.1355591,0.14886475
1601133817800,1421,-1.0493164,-1.0977173,-0.19293213
1601133817800,1422,-1.0087891,-0.9417114,-0.4336548
1601133817800,1423,-0.51538086,-1.7720337,-0.47076416
1601133817800,1424,-1.1696777,-0.17462158,0.02142334
1601133817800,1425,-0.51538086,-1.7720337,-0.47076416
1601133817800,1426,-0.51538086,-1.7720337,-0.47076416
1601133817822,1427,-0.63916016,-0.8291626,0.25872803
1601133817823,1428,-0.63916016,-0.8291626,0.25872803
1601133817823,1429,-0.43554688,-1.1355591,0.14886475
1601133817823,1430,-1.1696777,-0.17462158,0.02142334
1601133817823,1431,-0.43554688,-1.1355591,0.14886475
1601133817823,1432,-2.0,-0.18951416,-0.15435791
1601133817823,1433,-1.0493164,-1.0977173,-0.19293213
1601133817823,1434,-1.0087891,-0.9417114,-0.4336548
1601133817823,1435,-2.0,-0.18951416,-0.15435791
1601133817823,1436,-0.7285156,-0.39898682,0.6456909
1601133817823,1437,-0.43554688,-1.1355591,0.14886475
1601133817824,1438,-1.0087891,-0.9417114,-0.4336548
1601133817824,1439,-0.7285156,-0.39898682,0.6456909
1601133817824,1440,-1.0087891,-0.9417114,-0.4336548
1601133817824,1441,-0.63916016,-0.8291626,0.25872803
1601133817824,1442,-1.0493164,-1.0977173,-0.19293213
1601133817824,1443,-0.43554688,-1.1355591,0.14886475
1601133817824,1444,-0.51538086,-1.7720337,-0.47076416
1601133817841,1445,-0.63916016,-0.8291626,0.25872803
1601133817842,1446,-0.51538086,-1.7720337,-0.47076416
1601133817842,1447,-0.5563965,0.25872803,0.32489014
1601133817842,1448,-0.63916016,-0.8291626,0.25872803
1601133817842,1449,-0.7285156,-0.39898682,0.6456909
1601133817842,1450,-0.51538086,-1.7720337,-0.47076416
1601133817842,1451,-0.5563965,0.25872803,0.32489014
1601133817842,1452,-1.0493164,-1.0977173,-0.19293213
1601133817843,1453,-1.0493164,-1.0977173,-0.19293213
1601133817843,1454,-1.0493164,-1.0977173,-0.19293213
1601133817843,1455,-0.43554688,-1.1355591,0.14886475
1601133817843,1456,-0.7285156,-0.39898682,0.6456909
1601133817843,1457,-0.63916016,-0.8291626,0.25872803
1601133817843,1458,-0.7285156,-0.39898682,0.6456909
1601133817843,1459,-1.4086914,-0.036193848,-0.3291626
1601133817843,1460,-0.5563965,0.25872803,0.32489014
1601133817843,1461,-0.5563965,0.25872803,0.32489014
1601133817844,1462,-0.7285156,-0.39898682,0.6456909
1601133817844,1463,-0.63916016,-0.8291626,0.25872803
1601133817844,1464,-0.43554688,-1.1355591,0.14886475
1601133817844,1465,-0.43554688,-1.1355591,0.14886475
1601133817859,1466,-1.0493164,-1.0977173,-0.19293213
1601133817859,1467,-0.5563965,0.25872803,0.32489014
1601133817859,1468,-1.4086914,-0.036193848,-0.3291626
1601133817860,1469,-1.4086914,-0.036193848,-0.3291626
1601133817860,1470,-1.3244629,-1.6685181,-1.9998169
1601133817860,1471,-0.5563965,0.25872803,0.32489014
1601133817860,1472,-1.4086914,-0.036193848,-0.3291626
1601133817860,1473,-0.63916016,-0.8291626,0.25872803
1601133817875,1474,-1.3244629,-1.6685181,-1.9998169
1601133817875,1475,-0.63916016,-0.8291626,0.25872803
1601133817875,1476,-1.4086914,-0.036193848,-0.3291626
1601133817875,1477,-1.3244629,-1.6685181,-1.9998169
1601133817875,1478,-1.3244629,-1.6685181,-1.9998169
1601133817876,1479,-0.7285156,-0.39898682,0.6456909
1601133817876,1480,-0.7285156,-0.39898682,0.6456909
1601133817876,1481,0.21411133,-0.7756958,-0.91900635
1601133817876,1482,-0.7285156,-0.39898682,0.6456909
1601133817879,1483,-0.5563965,0.25872803,0.32489014
1601133817879,1484,-0.43554688,-1.1355591,0.14886475
1601133817879,1485,0.21411133,-0.7756958,-0.91900635
1601133817879,1486,-1.4086914,-0.036193848,-0.3291626
1601133817879,1487,0.21411133,-0.7756958,-0.91900635
1601133817879,1488,-1.4086914,-0.036193848,-0.3291626
1601133817879,1489,0.21411133,-0.7756958,-0.91900635
1601133817879,1490,-0.58325195,-0.30767822,-0.43243408
1601133817879,1491,-0.5563965,0.25872803,0.32489014
1601133817879,1492,-2.0,-1.272522,0.38690186
1601133817880,1493,-0.63916016,-0.8291626,0.25872803
1601133817880,1494,-1.3244629,-1.6685181,-1.9998169
1601133817880,1495,-0.5563965,0.25872803,0.32489014
1601133817880,1496,-1.3244629,-1.6685181,-1.9998169
1601133817880,1497,-0.58325195,-0.30767822,-0.43243408
1601133817880,1498,-1.3244629,-1.6685181,-1.9998169
1601133817881,1499,-1.2463379,0.8126831,1.8800659
1601133817881,1500,0.21411133,-0.7756958,-0.91900635
1601133817881,1501,0.21411133,-0.7756958,-0.91900635
1601133817898,1502,-0.58325195,-0.30767822,-0.43243408
1601133817899,1503,-0.7285156,-0.39898682,0.6456909
1601133817899,1504,-2.0,-1.272522,0.38690186
1601133817900,1505,0.21411133,-0.7756958,-0.91900635
1601133817900,1506,-1.2463379,0.8126831,1.8800659
1601133817900,1507,-0.58325195,-0.30767822,-0.43243408
1601133817900,1508,-1.4086914,-0.036193848,-0.3291626
1601133817901,1509,-1.1252441,-1.1848755,0.15789795
1601133817901,1510,-1.1252441,-1.1848755,0.15789795
1601133817901,1511,-0.5563965,0.25872803,0.32489014
1601133817903,1512,-1.4086914,-0.036193848,-0.3291626
1601133817903,1513,-2.0,-1.272522,0.38690186
1601133817903,1514,-2.0,-1.272522,0.38690186
1601133817903,1515,-0.58325195,-0.30767822,-0.43243408
1601133817903,1516,-0.58325195,-0.30767822,-0.43243408
1601133817903,1517,-2.0,-1.272522,0.38690186
1601133817903,1518,-1.3244629,-1.6685181,-1.9998169
1601133817903,1519,-1.3925781,-0.44171143,-0.33013916
1601133817904,1520,-1.3925781,-0.44171143,-0.33013916
1601133817905,1521,-0.90722656,-0.2498169,-0.0076293945
1601133817905,1522,-1.3244629,-1.6685181,-1.9998169
1601133817905,1523,-1.4086914,-0.036193848,-0.3291626
1601133817905,1524,0.21411133,-0.7756958,-0.91900635
1601133817906,1525,-1.2463379,0.8126831,1.8800659
1601133817906,1526,-1.2463379,0.8126831,1.8800659
1601133817906,1527,-0.58325195,-0.30767822,-0.43243408
1601133817906,1528,-1.2463379,0.8126831,1.8800659
1601133817906,1529,0.21411133,-0.7756958,-0.91900635
1601133817906,1530,-1.1252441,-1.1848755,0.15789795
1601133817906,1531,-0.90722656,-0.2498169,-0.0076293945
1601133817906,1532,-0.65649414,-0.5918579,0.03363037
1601133817906,1533,-1.3925781,-0.44171143,-0.33013916
1601133817906,1534,-2.0,-1.272522,0.38690186
1601133817906,1535,-0.90722656,-0.2498169,-0.0076293945
1601133817906,1536,-1.1252441,-1.1848755,0.15789795
1601133817906,1537,-2.0,-1.272522,0.38690186
1601133817906,1538,-1.2463379,0.8126831,1.8800659
1601133817907,1539,-0.58325195,-0.30767822,-0.43243408
1601133817907,1540,-1.1252441,-1.1848755,0.15789795
1601133817907,1541,-2.0,-1.272522,0.38690186
1601133817907,1542,-1.3244629,-1.6685181,-1.9998169
1601133817907,1543,-1.1252441,-1.1848755,0.15789795
1601133817907,1544,-0.65649414,-0.5918579,0.03363037
1601133817907,1545,-1.3925781,-0.44171143,-0.33013916
1601133817907,1546,-0.65649414,-0.5918579,0.03363037
1601133817921,1547,-1.2463379,0.8126831,1.8800659
1601133817922,1548,-1.1674805,-0.58258057,-0.15924072
1601133817922,1549,-1.1252441,-1.1848755,0.15789795
1601133817922,1550,-1.2463379,0.8126831,1.8800659
1601133817922,1551,0.21411133,-0.7756958,-0.91900635
1601133817922,1552,-1.1674805,-0.58258057,-0.15924072
1601133817922,1553,-1.3925781,-0.44171143,-0.33013916
1601133817922,1554,-0.90722656,-0.2498169,-0.0076293945
1601133817922,1555,-0.58325195,-0.30767822,-0.43243408
1601133817922,1556,-1.1674805,-0.58258057,-0.15924072
1601133817922,1557,-1.3195801,-0.32330322,0.10003662
1601133817923,1558,-1.3925781,-0.44171143,-0.33013916
1601133817923,1559,-0.90722656,-0.2498169,-0.0076293945
1601133817923,1560,-0.65649414,-0.5918579,0.03363037
1601133817923,1561,-1.3195801,-0.32330322,0.10003662
1601133817923,1562,-2.0,-1.272522,0.38690186
1601133817923,1563,-0.90722656,-0.2498169,-0.0076293945
1601133817923,1564,-1.2463379,0.8126831,1.8800659
1601133817923,1565,-0.58325195,-0.30767822,-0.43243408
1601133817924,1566,-0.65649414,-0.5918579,0.03363037
1601133817924,1567,-1.1252441,-1.1848755,0.15789795
1601133817924,1568,-2.0,-1.272522,0.38690186
1601133817924,1569,-1.1674805,-0.58258057,-0.15924072
1601133817925,1570,-1.3925781,-0.44171143,-0.33013916
1601133817925,1571,-1.3195801,-0.32330322,0.10003662
1601133817925,1572,-1.3195801,-0.32330322,0.10003662
1601133817925,1573,-0.65649414,-0.5918579,0.03363037
1601133817925,1574,-1.1252441,-1.1848755,0.15789795
1601133817926,1575,-1.1674805,-0.58258057,-0.15924072
1601133817926,1576,-0.90722656,-0.2498169,-0.0076293945
1601133817926,1577,-1.2463379,0.8126831,1.8800659
1601133817926,1578,-1.3925781,-0.44171143,-0.33013916
1601133817926,1579,-1.3195801,-0.32330322,0.10003662
1601133817937,1580,-1.1252441,-1.1848755,0.15789795
1601133817938,1581,-0.65649414,-0.5918579,0.03363037
1601133817938,1582,-1.3925781,-0.44171143,-0.33013916
1601133817938,1583,-1.3925781,-0.44171143,-0.33013916
1601133817938,1584,-0.90722656,-0.2498169,-0.0076293945
1601133817938,1585,-0.90722656,-0.2498169,-0.0076293945
1601133817938,1586,-1.1674805,-0.58258057,-0.15924072
1601133817938,1587,-0.65649414,-0.5918579,0.03363037
1601133817939,1588,-1.1674805,-0.58258057,-0.15924072
1601133817939,1589,-0.90722656,-0.2498169,-0.0076293945
1601133817939,1590,-0.65649414,-0.5918579,0.03363037
1601133817939,1591,-1.3195801,-0.32330322,0.10003662
1601133817939,1592,-1.1674805,-0.58258057,-0.15924072
1601133817939,1593,-1.1674805,-0.58258057,-0.15924072
1601133817939,1594,-0.65649414,-0.5918579,0.03363037
1601133817939,1595,-1.3195801,-0.32330322,0.10003662
1601133817939,1596,-1.3195801,-0.32330322,0.10003662
1601133817939,1597,-1.1674805,-0.58258057,-0.15924072
1601133817939,1598,-1.3195801,-0.32330322,0.10003662
1601133817941,1599,-1.3195801,-0.32330322,0.10003662
1601133820250,1600,-0.59228516,-0.32598877,0.14886475
1601133820250,1601,-0.59228516,-0.32598877,0.14886475
1601133820254,1602,-0.59228516,-0.32598877,0.14886475
1601133820255,1603,-0.923584,-0.61920166,0.011413574
1601133820256,1604,-0.59228516,-0.32598877,0.14886475
1601133820262,1605,-0.59228516,-0.32598877,0.14886475
1601133820262,1606,-0.59228516,-0.32598877,0.14886475
1601133820262,1607,-0.923584,-0.61920166,0.011413574
1601133820263,1608,-1.3818359,-0.2720337,0.1317749
1601133820272,1609,-0.59228516,-0.32598877,0.14886475
1601133820272,1610,-0.923584,-0.61920166,0.011413574
1601133820272,1611,-0.923584,-0.61920166,0.011413574
1601133820272,1612,-0.59228516,-0.32598877,0.14886475
1601133820272,1613,-0.923584,-0.61920166,0.011413574
1601133820272,1614,-0.59228516,-0.32598877,0.14886475
1601133820272,1615,-0.59228516,-0.32598877,0.14886475
1601133820272,1616,-0.89404297,-0.12017822,0.098083496
1601133820273,1617,-1.3818359,-0.2720337,0.1317749
1601133820273,1618,-0.923584,-0.61920166,0.011413574
1601133820280,1619,-0.923584,-0.61920166,0.011413574
1601133820280,1620,-1.3818359,-0.2720337,0.1317749
1601133820281,1621,-0.923584,-0.61920166,0.011413574
1601133820281,1622,-1.3818359,-0.2720337,0.1317749
1601133820281,1623,-1.3818359,-0.2720337,0.1317749
1601133820281,1624,-0.923584,-0.61920166,0.011413574
1601133820281,1625,-0.88916016,-0.8789673,0.30511475
1601133820282,1626,-0.923584,-0.61920166,0.011413574
1601133820282,1627,-0.89404297,-0.12017822,0.098083496
1601133820282,1628,-0.89404297,-0.12017822,0.098083496
1601133820283,1629,-1.3818359,-0.2720337,0.1317749
1601133820283,1630,-0.89404297,-0.12017822,0.098083496
1601133820293,1631,-0.89404297,-0.12017822,0.098083496
1601133820293,1632,-1.3818359,-0.2720337,0.1317749
1601133820293,1633,-0.88916016,-0.8789673,0.30511475
1601133820293,1634,-1.2878418,0.39398193,0.88446045
1601133820293,1635,-0.88916016,-0.8789673,0.30511475
1601133820294,1636,-2.0,0.62908936,0.8930054
1601133820294,1637,-0.89404297,-0.12017822,0.098083496
1601133820294,1638,-1.2878418,0.39398193,0.88446045
1601133820294,1639,-0.88916016,-0.8789673,0.30511475
1601133820294,1640,-1.9067383,-0.65704346,0.6893921
1601133820294,1641,-2.0,0.62908936,0.8930054
1601133820295,1642,-1.3818359,-0.2720337,0.1317749
1601133820295,1643,-1.2878418,0.39398193,0.88446045
1601133820295,1644,-0.89404297,-0.12017822,0.098083496
1601133820295,1645,-1.3818359,-0.2720337,0.1317749
1601133820295,1646,-1.9067383,-0.65704346,0.6893921
1601133820317,1647,-1.3818359,-0.2720337,0.1317749
1601133820317,1648,-0.88916016,-0.8789673,0.30511475
1601133820317,1649,-1.2878418,0.39398193,0.88446045
1601133820317,1650,-1.2878418,0.39398193,0.88446045
1601133820317,1651,-1.3557129,-0.64141846,0.64398193
1601133820318,1652,-0.88916016,-0.8789673,0.30511475
1601133820318,1653,-0.88916016,-0.8789673,0.30511475
1601133820319,1654,-2.0,0.62908936,0.8930054
1601133820319,1655,-0.89404297,-0.12017822,0.098083496
1601133820320,1656,-0.88916016,-0.8789673,0.30511475
1601133820321,1657,-1.9067383,-0.65704346,0.6893921
1601133820321,1658,-0.89404297,-0.12017822,0.098083496
1601133820321,1659,-1.3557129,-0.64141846,0.64398193
1601133820321,1660,-0.89404297,-0.12017822,0.098083496
1601133820321,1661,-2.0,0.62908936,0.8930054
1601133820321,1662,-0.5617676,-1.0261841,0.27386475
1601133820321,1663,-0.88916016,-0.8789673,0.30511475
1601133820321,1664,-1.2878418,0.39398193,0.88446045
1601133820322,1665,-1.3557129,-0.64141846,0.64398193
1601133820322,1666,-1.9067383,-0.65704346,0.6893921
1601133820322,1667,-1.2878418,0.39398193,0.88446045
1601133820322,1668,-2.0,0.62908936,0.8930054
1601133820322,1669,-0.5617676,-1.0261841,0.27386475
1601133820322,1670,-1.2878418,0.39398193,0.88446045
1601133820322,1671,-0.88916016,-0.8789673,0.30511475
1601133820322,1672,-1.2878418,0.39398193,0.88446045
1601133820323,1673,-2.0,0.62908936,0.8930054
1601133820323,1674,-2.0,0.62908936,0.8930054
1601133820335,1675,-1.3557129,-0.64141846,0.64398193
1601133820335,1676,-2.0,0.62908936,0.8930054
1601133820335,1677,0.15307617,-0.9483032,0.04559326
1601133820335,1678,-0.5617676,-1.0261841,0.27386475
1601133820335,1679,-1.2878418,0.39398193,0.88446045
1601133820335,1680,0.15307617,-0.9483032,0.04559326
1601133820335,1681,-1.9067383,-0.65704346,0.6893921
1601133820335,1682,-2.0,0.62908936,0.8930054
1601133820335,1683,-1.3557129,-0.64141846,0.64398193
1601133820336,1684,0.15307617,-0.9483032,0.04559326
1601133820336,1685,0.20703125,-0.5256958,-0.1038208
1601133820336,1686,-0.5617676,-1.0261841,0.27386475
1601133820336,1687,-1.9067383,-0.65704346,0.6893921
1601133820336,1688,-2.0,0.62908936,0.8930054
1601133820336,1689,-1.9067383,-0.65704346,0.6893921
1601133820336,1690,-1.9067383,-0.65704346,0.6893921
1601133820336,1691,0.119140625,-0.16558838,-0.082336426
1601133820336,1692,0.20703125,-0.5256958,-0.1038208
1601133820336,1693,-0.5617676,-1.0261841,0.27386475
1601133820336,1694,0.20703125,-0.5256958,-0.1038208
1601133820336,1695,0.15307617,-0.9483032,0.04559326
1601133820336,1696,0.15307617,-0.9483032,0.04559326
1601133820336,1697,-1.3557129,-0.64141846,0.64398193
1601133820337,1698,0.20703125,-0.5256958,-0.1038208
1601133820337,1699,-0.0021972656,0.0914917,-0.36016846
1601133820337,1700,-1.9067383,-0.65704346,0.6893921
1601133820337,1701,0.20703125,-0.5256958,-0.1038208
1601133820337,1702,0.119140625,-0.16558838,-0.082336426
1601133820337,1703,0.119140625,-0.16558838,-0.082336426
1601133820337,1704,-1.9067383,-0.65704346,0.6893921
1601133820337,1705,-1.3557129,-0.64141846,0.64398193
1601133820337,1706,-0.5617676,-1.0261841,0.27386475
1601133820337,1707,-1.3557129,-0.64141846,0.64398193
1601133820338,1708,-0.5617676,-1.0261841,0.27386475
1601133820338,1709,0.119140625,-0.16558838,-0.082336426
1601133820338,1710,-1.3557129,-0.64141846,0.64398193
1601133820338,1711,0.119140625,-0.16558838,-0.082336426
1601133820338,1712,-0.5617676,-1.0261841,0.27386475
1601133820338,1713,-0.16137695,-0.31549072,0.1227417
1601133820338,1714,0.15307617,-0.9483032,0.04559326
1601133820338,1715,-0.5617676,-1.0261841,0.27386475
1601133820338,1716,0.15307617,-0.9483032,0.04559326
1601133820338,1717,0.20703125,-0.5256958,-0.1038208
1601133820339,1718,-1.3557129,-0.64141846,0.64398193
1601133820339,1719,-0.0021972656,0.0914917,-0.36016846
1601133820339,1720,0.119140625,-0.16558838,-0.082336426
1601133820339,1721,-0.0021972656,0.0914917,-0.36016846
1601133820340,1722,0.15307617,-0.9483032,0.04559326
1601133820340,1723,0.20703125,-0.5256958,-0.1038208
1601133820343,1724,-0.0021972656,0.0914917,-0.36016846
1601133820343,1725,-0.0021972656,0.0914917,-0.36016846
1601133820343,1726,-0.0021972656,0.0914917,-0.36016846
1601133820343,1727,-0.16137695,-0.31549072,0.1227417
1601133820343,1728,-0.5617676,-1.0261841,0.27386475
1601133820343,1729,0.15307617,-0.9483032,0.04559326
1601133820343,1730,0.20703125,-0.5256958,-0.1038208
1601133820343,1731,-0.16137695,-0.31549072,0.1227417
1601133820343,1732,-0.38183594,-0.21417236,0.44647217
1601133820347,1733,0.119140625,-0.16558838,-0.082336426
1601133820347,1734,-0.16137695,-0.31549072,0.1227417
1601133820347,1735,-0.16137695,-0.31549072,0.1227417
1601133820347,1736,-0.0021972656,0.0914917,-0.36016846
1601133820347,1737,-0.38183594,-0.21417236,0.44647217
1601133820347,1738,0.15307617,-0.9483032,0.04559326
1601133820348,1739,-0.38183594,-0.21417236,0.44647217
1601133820348,1740,0.20703125,-0.5256958,-0.1038208
1601133820348,1741,0.119140625,-0.16558838,-0.082336426
1601133820348,1742,-1.2653809,-0.5742798,0.1359253
1601133820374,1743,-0.16137695,-0.31549072,0.1227417
1601133820374,1744,-0.38183594,-0.21417236,0.44647217
1601133820374,1745,-0.16137695,-0.31549072,0.1227417
1601133820376,1746,-0.38183594,-0.21417236,0.44647217
1601133820376,1747,0.20703125,-0.5256958,-0.1038208
1601133820376,1748,-1.2653809,-0.5742798,0.1359253
1601133820376,1749,-1.2653809,-0.5742798,0.1359253
1601133820376,1750,-1.2653809,-0.5742798,0.1359253
1601133820376,1751,-1.2653809,-0.5742798,0.1359253
1601133820376,1752,-0.0021972656,0.0914917,-0.36016846
1601133820376,1753,-1.9614258,-1.9966431,0.43182373
1601133820376,1754,-0.38183594,-0.21417236,0.44647217
1601133820376,1755,-1.9614258,-1.9966431,0.43182373
1601133820376,1756,-1.8723145,-1.2722778,0.79437256
1601133820376,1757,-1.9614258,-1.9966431,0.43182373
1601133820377,1758,0.119140625,-0.16558838,-0.082336426
1601133820377,1759,-1.8723145,-1.2722778,0.79437256
1601133820377,1760,-1.9614258,-1.9966431,0.43182373
1601133820377,1761,-0.16137695,-0.31549072,0.1227417
1601133820377,1762,-1.9614258,-1.9966431,0.43182373
1601133820377,1763,-1.8723145,-1.2722778,0.79437256
1601133820377,1764,-1.2653809,-0.5742798,0.1359253
1601133820377,1765,0.119140625,-0.16558838,-0.082336426
1601133820377,1766,-0.0021972656,0.0914917,-0.36016846
1601133820377,1767,-0.38183594,-0.21417236,0.44647217
1601133820377,1768,-1.8164062,-0.6272583,0.6859741
1601133820377,1769,-1.8164062,-0.6272583,0.6859741
1601133820377,1770,-1.8723145,-1.2722778,0.79437256
1601133820377,1771,-0.38183594,-0.21417236,0.44647217
1601133820377,1772,-1.8164062,-0.6272583,0.6859741
1601133820377,1773,-0.16137695,-0.31549072,0.1227417
1601133820378,1774,-1.8723145,-1.2722778,0.79437256
1601133820378,1775,-2.0,-0.7305298,1.3952026
1601133820378,1776,-1.8164062,-0.6272583,0.6859741
1601133820378,1777,-0.0021972656,0.0914917,-0.36016846
1601133820378,1778,-1.2653809,-0.5742798,0.1359253
1601133820378,1779,-0.38183594,-0.21417236,0.44647217
1601133820378,1780,-1.9614258,-1.9966431,0.43182373
1601133820378,1781,-0.43554688,-1.0261841,0.16107178
1601133820378,1782,-1.2653809,-0.5742798,0.1359253
1601133820378,1783,-2.0,-0.7305298,1.3952026
1601133820378,1784,-0.16137695,-0.31549072,0.1227417
1601133820378,1785,-0.39453125,-0.8230591,-0.059387207
1601133820378,1786,-2.0,-0.7305298,1.3952026
1601133820378,1787,-1.9614258,-1.9966431,0.43182373
1601133820379,1788,-1.8164062,-0.6272583,0.6859741
1601133820379,1789,-2.0,-0.7305298,1.3952026
1601133820379,1790,-1.2653809,-0.5742798,0.1359253
1601133820379,1791,-2.0,-0.7305298,1.3952026
1601133820379,1792,-0.38183594,-0.21417236,0.44647217
1601133820379,1793,-0.43554688,-1.0261841,0.16107178
1601133820379,1794,-1.9614258,-1.9966431,0.43182373
1601133820379,1795,-1.1687012,-0.47711182,-0.13873291
1601133820379,1796,-0.43554688,-1.0261841,0.16107178
1601133820379,1797,-1.8723145,-1.2722778,0.79437256
1601133820379,1798,-0.39453125,-0.8230591,-0.059387207
1601133820379,1799,-1.8723145,-1.2722778,0.79437256
1601133820380,1800,-0.43554688,-1.0261841,0.16107178
1601133820380,1801,-0.43554688,-1.0261841,0.16107178
1601133820380,1802,-1.9614258,-1.9966431,0.43182373
1601133820380,1803,-1.2653809,-0.5742798,0.1359253
1601133820380,1804,-0.39453125,-0.8230591,-0.059387207
1601133820380,1805,-1.8723145,-1.2722778,0.79437256
1601133820384,1806,-1.8164062,-0.6272583,0.6859741
1601133820384,1807,-1.1687012,-0.47711182,-0.13873291
1601133820384,1808,-1.277832,-0.35723877,-0.18707275
1601133820384,1809,-2.0,-0.7305298,1.3952026
1601133820384,1810,-1.8723145,-1.2722778,0.79437256
1601133820384,1811,-0.39453125,-0.8230591,-0.059387207
1601133820385,1812,-1.8164062,-0.6272583,0.6859741
1601133820385,1813,-1.9614258,-1.9966431,0.43182373
1601133820385,1814,-0.39453125,-0.8230591,-0.059387207
1601133820385,1815,-1.1687012,-0.47711182,-0.13873291
1601133820385,1816,-1.1687012,-0.47711182,-0.13873291
1601133820390,1817,-1.277832,-0.35723877,-0.18707275
1601133820390,1818,-1.8164062,-0.6272583,0.6859741
1601133820390,1819,-0.91552734,-0.5808716,-0.28546143
1601133820390,1820,-0.43554688,-1.0261841,0.16107178
1601133820390,1821,-1.8164062,-0.6272583,0.6859741
1601133820391,1822,-1.8723145,-1.2722778,0.79437256
1601133820391,1823,-2.0,-0.7305298,1.3952026
1601133820391,1824,-0.43554688,-1.0261841,0.16107178
1601133820391,1825,-1.1687012,-0.47711182,-0.13873291
1601133820391,1826,-0.39453125,-0.8230591,-0.059387207
1601133820395,1827,-0.91552734,-0.5808716,-0.28546143
1601133820397,1828,-0.39453125,-0.8230591,-0.059387207
1601133820401,1829,-2.0,-0.7305298,1.3952026
1601133820401,1830,-1.277832,-0.35723877,-0.18707275
1601133820402,1831,-1.277832,-0.35723877,-0.18707275
1601133820409,1832,-1.1687012,-0.47711182,-0.13873291
1601133820409,1833,-1.277832,-0.35723877,-0.18707275
1601133820409,1834,-0.43554688,-1.0261841,0.16107178
1601133820409,1835,-0.91552734,-0.5808716,-0.28546143
1601133820409,1836,-2.0,-0.7305298,1.3952026
1601133820410,1837,-0.39453125,-0.8230591,-0.059387207
1601133820410,1838,-0.7421875,-0.7337036,-0.15802002
1601133820410,1839,-0.91552734,-0.5808716,-0.28546143
1601133820410,1840,-1.1687012,-0.47711182,-0.13873291
1601133820410,1841,-1.8164062,-0.6272583,0.6859741
1601133820410,1842,-0.7421875,-0.7337036,-0.15802002
1601133820410,1843,-0.91552734,-0.5808716,-0.28546143
1601133820410,1844,-1.277832,-0.35723877,-0.18707275
1601133820410,1845,-0.7421875,-0.7337036,-0.15802002
1601133820418,1846,-0.7421875,-0.7337036,-0.15802002
1601133820418,1847,-0.9838867,-0.46417236,-0.12994385
1601133820418,1848,-1.1687012,-0.47711182,-0.13873291
1601133820418,1849,-0.7421875,-0.7337036,-0.15802002
1601133820419,1850,-2.0,-0.7305298,1.3952026
1601133820419,1851,-0.43554688,-1.0261841,0.16107178
1601133820437,1852,-0.43554688,-1.0261841,0.16107178
1601133820437,1853,-0.91552734,-0.5808716,-0.28546143
1601133820437,1854,-0.9838867,-0.46417236,-0.12994385
1601133820438,1855,-0.9838867,-0.46417236,-0.12994385
1601133820438,1856,-1.2255859,-0.5178833,-0.19171143
1601133820438,1857,-0.7421875,-0.7337036,-0.15802002
1601133820438,1858,-1.277832,-0.35723877,-0.18707275
1601133820438,1859,-1.277832,-0.35723877,-0.18707275
1601133820438,1860,-1.1550293,-0.60601807,-0.2210083
1601133820438,1861,-0.9838867,-0.46417236,-0.12994385
1601133820438,1862,-0.39453125,-0.8230591,-0.059387207
1601133820438,1863,-0.39453125,-0.8230591,-0.059387207
1601133820439,1864,-0.91552734,-0.5808716,-0.28546143
1601133820439,1865,-1.1687012,-0.47711182,-0.13873291
1601133820439,1866,-0.9838867,-0.46417236,-0.12994385
1601133820439,1867,-0.7421875,-0.7337036,-0.15802002
1601133820439,1868,-0.91552734,-0.5808716,-0.28546143
1601133820439,1869,-1.2255859,-0.5178833,-0.19171143
1601133820439,1870,-1.1687012,-0.47711182,-0.13873291
1601133820439,1871,-0.7421875,-0.7337036,-0.15802002
1601133820440,1872,-1.277832,-0.35723877,-0.18707275
1601133820440,1873,-1.277832,-0.35723877,-0.18707275
1601133820440,1874,-1.2255859,-0.5178833,-0.19171143
1601133820440,1875,-1.2255859,-0.5178833,-0.19171143
1601133820440,1876,-0.9838867,-0.46417236,-0.12994385
1601133820440,1877,-1.1550293,-0.60601807,-0.2210083
1601133820440,1878,-1.1550293,-0.60601807,-0.2210083
1601133820440,1879,-1.0952148,-0.75177,0.012145996
1601133820441,1880,-0.9838867,-0.46417236,-0.12994385
1601133820442,1881,-1.1811523,-0.7156372,0.15130615
1601133820442,1882,-0.91552734,-0.5808716,-0.28546143
1601133820442,1883,-1.2255859,-0.5178833,-0.19171143
1601133820442,1884,-1.1550293,-0.60601807,-0.2210083
1601133820451,1885,-1.0952148,-0.75177,0.012145996
1601133820452,1886,-1.0952148,-0.75177,0.012145996
1601133820452,1887,-1.0952148,-0.75177,0.012145996
1601133820452,1888,-1.1811523,-0.7156372,0.15130615
1601133820452,1889,-0.9838867,-0.46417236,-0.12994385
1601133820452,1890,-1.1811523,-0.7156372,0.15130615
1601133820452,1891,-1.1550293,-0.60601807,-0.2210083
1601133820453,1892,-1.2255859,-0.5178833,-0.19171143
1601133820453,1893,-1.0952148,-0.75177,0.012145996
1601133820453,1894,-0.91552734,-0.5808716,-0.28546143
1601133820453,1895,-1.1811523,-0.7156372,0.15130615
1601133820453,1896,-1.2255859,-0.5178833,-0.19171143
1601133820454,1897,-0.7421875,-0.7337036,-0.15802002
1601133820454,1898,-1.1550293,-0.60601807,-0.2210083
1601133820454,1899,-1.1811523,-0.7156372,0.15130615
1601133820454,1900,-1.0952148,-0.75177,0.012145996
1601133820454,1901,-0.9838867,-0.46417236,-0.12994385
1601133820455,1902,-0.7421875,-0.7337036,-0.15802002
1601133820455,1903,-1.1550293,-0.60601807,-0.2210083
1601133820455,1904,-1.2255859,-0.5178833,-0.19171143
1601133820455,1905,-1.1811523,-0.7156372,0.15130615
1601133820455,1906,-1.2255859,-0.5178833,-0.19171143
1601133820457,1907,-0.9838867,-0.46417236,-0.12994385
1601133820457,1908,-1.1550293,-0.60601807,-0.2210083
1601133820458,1909,-1.1550293,-0.60601807,-0.2210083
1601133820459,1910,-1.0952148,-0.75177,0.012145996
1601133820459,1911,-1.2255859,-0.5178833,-0.19171143
1601133820459,1912,-1.0952148,-0.75177,0.012145996
1601133820471,1913,-1.1811523,-0.7156372,0.15130615
1601133820471,1914,-1.1550293,-0.60601807,-0.2210083
1601133820471,1915,-1.0952148,-0.75177,0.012145996
1601133820471,1916,-1.1811523,-0.7156372,0.15130615
1601133820471,1917,-1.1811523,-0.7156372,0.15130615
1601133820471,1918,-1.0952148,-0.75177,0.012145996
1601133820471,1919,-1.1811523,-0.7156372,0.15130615
1601133823553,1920,-0.75512695,-0.7276001,0.6400757
1601133823553,1921,-0.7915039,-0.8982544,0.87420654
1601133823553,1922,-0.75512695,-0.7276001,0.6400757
1601133823554,1923,-1.0976562,-1.045227,0.82196045
1601133823554,1924,-0.75512695,-0.7276001,0.6400757
1601133823554,1925,-0.75512695,-0.7276001,0.6400757
1601133823555,1926,-0.75512695,-0.7276001,0.6400757
1601133823555,1927,-0.75512695,-0.7276001,0.6400757
1601133823556,1928,-1.5625,-1.0796509,0.4664917
1601133823556,1929,-0.75512695,-0.7276001,0.6400757
1601133823556,1930,-0.7915039,-0.8982544,0.87420654
1601133823556,1931,-0.7915039,-0.8982544,0.87420654
1601133823556,1932,-1.5458984,-0.5730591,0.28656006
1601133823556,1933,-0.7915039,-0.8982544,0.87420654
1601133823557,1934,-0.7915039,-0.8982544,0.87420654
1601133823557,1935,-0.75512695,-0.7276001,0.6400757
1601133823558,1936,-1.0976562,-1.045227,0.82196045
1601133823559,1937,-0.75512695,-0.7276001,0.6400757
1601133823559,1938,-1.5625,-1.0796509,0.4664917
1601133823559,1939,-0.75512695,-0.7276001,0.6400757
1601133823559,1940,-0.7915039,-0.8982544,0.87420654
1601133823561,1941,-0.7915039,-0.8982544,0.87420654
1601133823561,1942,-1.0976562,-1.045227,0.82196045
1601133823562,1943,-1.3366699,-0.34283447,-0.016662598
1601133823562,1944,-1.0976562,-1.045227,0.82196045
1601133823562,1945,-1.5458984,-0.5730591,0.28656006
1601133823562,1946,-1.0976562,-1.045227,0.82196045
1601133823562,1947,-1.3366699,-0.34283447,-0.016662598
1601133823567,1948,-0.7915039,-0.8982544,0.87420654
1601133823567,1949,-1.0976562,-1.045227,0.82196045
1601133823568,1950,-1.5625,-1.0796509,0.4664917
1601133823568,1951,-1.5625,-1.0796509,0.4664917
1601133823568,1952,-0.7915039,-0.8982544,0.87420654
1601133823568,1953,-0.7915039,-0.8982544,0.87420654
1601133823568,1954,-1.0976562,-1.045227,0.82196045
1601133823568,1955,-1.5458984,-0.5730591,0.28656006
1601133823568,1956,-1.1818848,-0.4212036,-0.15899658
1601133823568,1957,-1.3366699,-0.34283447,-0.016662598
1601133823568,1958,-1.0976562,-1.045227,0.82196045
1601133823568,1959,-1.1818848,-0.4212036,-0.15899658
1601133823568,1960,-1.5458984,-0.5730591,0.28656006
1601133823568,1961,-1.2355957,-0.62164307,-0.2588501
1601133823569,1962,-1.0976562,-1.045227,0.82196045
1601133823569,1963,-1.1818848,-0.4212036,-0.15899658
1601133823569,1964,-1.5625,-1.0796509,0.4664917
1601133823581,1965,-1.5458984,-0.5730591,0.28656006
1601133823581,1966,-1.5625,-1.0796509,0.4664917
1601133823581,1967,-1.5625,-1.0796509,0.4664917
1601133823583,1968,-1.3366699,-0.34283447,-0.016662598
1601133823583,1969,-1.9387207,-0.7341919,-0.03643799
1601133823583,1970,-1.5625,-1.0796509,0.4664917
1601133823583,1971,-1.0976562,-1.045227,0.82196045
1601133823583,1972,-1.2355957,-0.62164307,-0.2588501
1601133823583,1973,-1.5625,-1.0796509,0.4664917
1601133823583,1974,-1.5458984,-0.5730591,0.28656006
1601133823584,1975,-1.2355957,-0.62164307,-0.2588501
1601133823584,1976,-1.3366699,-0.34283447,-0.016662598
1601133823584,1977,-1.5458984,-0.5730591,0.28656006
1601133823584,1978,-1.1818848,-0.4212036,-0.15899658
1601133823584,1979,-1.5458984,-0.5730591,0.28656006
1601133823584,1980,-1.2355957,-0.62164307,-0.2588501
1601133823584,1981,-1.5625,-1.0796509,0.4664917
1601133823584,1982,-2.0,-0.63946533,0.20379639
1601133823584,1983,-1.3366699,-0.34283447,-0.016662598
1601133823584,1984,-1.9387207,-0.7341919,-0.03643799
1601133823587,1985,-1.5458984,-0.5730591,0.28656006
1601133823587,1986,-1.3366699,-0.34283447,-0.016662598
1601133823587,1987,-1.3366699,-0.34283447,-0.016662598
1601133823587,1988,-1.1818848,-0.4212036,-0.15899658
1601133823588,1989,-1.5458984,-0.5730591,0.28656006
1601133823588,1990,-1.1818848,-0.4212036,-0.15899658
1601133823588,1991,-1.3366699,-0.34283447,-0.016662598
1601133823588,1992,-1.9387207,-0.7341919,-0.03643799
1601133823589,1993,-2.0,-0.63946533,0.20379639
1601133823589,1994,-2.0,0.26727295,0.4196167
1601133823590,1995,-1.9387207,-0.7341919,-0.03643799
1601133823590,1996,-1.3366699,-0.34283447,-0.016662598
1601133823594,1997,-2.0,0.26727295,0.4196167
1601133823595,1998,-1.1818848,-0.4212036,-0.15899658
1601133823595,1999,-1.1818848,-0.4212036,-0.15899658
1601133823595,2000,-2.0,-0.63946533,0.20379639
1601133823599,2001,-1.9282227,1.0526733,0.902771
1601133823600,2002,-1.2355957,-0.62164307,-0.2588501
1601133823600,2003,-1.1818848,-0.4212036,-0.15899658
1601133823600,2004,-1.9387207,-0.7341919,-0.03643799
1601133823600,2005,-1.2355957,-0.62164307,-0.2588501
1601133823600,2006,-1.9282227,1.0526733,0.902771
1601133823600,2007,-1.2355957,-0.62164307,-0.2588501
1601133823600,2008,-1.1818848,-0.4212036,-0.15899658
1601133823600,2009,-2.0,0.26727295,0.4196167
1601133823600,2010,-1.2355957,-0.62164307,-0.2588501
1601133823600,2011,-1.9282227,1.0526733,0.902771
1601133823600,2012,-1.9387207,-0.7341919,-0.03643799
1601133823600,2013,-0.9836426,0.93573,0.46697998
1601133823602,2014,-1.2355957,-0.62164307,-0.2588501
1601133823602,2015,-1.9387207,-0.7341919,-0.03643799
1601133823604,2016,-0.9836426,0.93573,0.46697998
1601133823616,2017,-0.9836426,0.93573,0.46697998
1601133823616,2018,-2.0,-0.63946533,0.20379639
1601133823617,2019,-2.0,-0.63946533,0.20379639
1601133823617,2020,-2.0,-0.63946533,0.20379639
1601133823617,2021,-1.1328125,0.13519287,0.25653076
1601133823617,2022,-1.9387207,-0.7341919,-0.03643799
1601133823617,2023,-1.2355957,-0.62164307,-0.2588501
1601133823617,2024,-1.9387207,-0.7341919,-0.03643799
1601133823618,2025,-2.0,-0.45440674,-0.027160645
1601133823618,2026,-2.0,-0.63946533,0.20379639
1601133823618,2027,-2.0,-1.2749634,-1.0808716
1601133823618,2028,-1.9233398,-1.0725708,-0.63946533
1601133823618,2029,-2.0,0.26727295,0.4196167
1601133823618,2030,-2.0,-0.63946533,0.20379639
1601133823618,2031,-1.1328125,0.13519287,0.25653076
1601133823618,2032,-2.0,0.26727295,0.4196167
1601133823619,2033,-2.0,0.26727295,0.4196167
1601133823620,2034,-2.0,0.26727295,0.4196167
1601133823620,2035,-2.0,-0.63946533,0.20379639
1601133823620,2036,-1.1328125,0.13519287,0.25653076
1601133823620,2037,-1.9282227,1.0526733,0.902771
1601133823620,2038,-2.0,0.26727295,0.4196167
1601133823627,2039,-1.9282227,1.0526733,0.902771
1601133823627,2040,-1.9387207,-0.7341919,-0.03643799
1601133823627,2041,-0.9836426,0.93573,0.46697998
1601133823627,2042,-2.0,-0.45440674,-0.027160645
1601133823628,2043,-1.9282227,1.0526733,0.902771
1601133823628,2044,-2.0,-0.45440674,-0.027160645
1601133823628,2045,-1.1787109,-1.2390747,-0.73443604
1601133823628,2046,-2.0,0.26727295,0.4196167
1601133823628,2047,-0.9836426,0.93573,0.46697998
1601133823628,2048,-1.9282227,1.0526733,0.902771
1601133823629,2049,-2.0,-1.2749634,-1.0808716
1601133823629,2050,-1.9282227,1.0526733,0.902771
1601133823629,2051,-0.9836426,0.93573,0.46697998
1601133823629,2052,-1.1328125,0.13519287,0.25653076
1601133823629,2053,-2.0,-1.2749634,-1.0808716
1601133823630,2054,-1.1386719,-0.63116455,-0.22320557
1601133823630,2055,-1.1328125,0.13519287,0.25653076
1601133823640,2056,-1.9282227,1.0526733,0.902771
1601133823640,2057,-1.1328125,0.13519287,0.25653076
1601133823640,2058,-1.9233398,-1.0725708,-0.63946533
1601133823640,2059,-2.0,-0.63946533,0.20379639
1601133823640,2060,-0.9836426,0.93573,0.46697998
1601133823640,2061,-2.0,-0.45440674,-0.027160645
1601133823640,2062,-1.9233398,-1.0725708,-0.63946533
1601133823640,2063,-2.0,0.26727295,0.4196167
1601133823641,2064,-0.9836426,0.93573,0.46697998
1601133823641,2065,-2.0,-0.45440674,-0.027160645
1601133823641,2066,-2.0,-1.2749634,-1.0808716
1601133823641,2067,-0.9836426,0.93573,0.46697998
1601133823641,2068,-1.1787109,-1.2390747,-0.73443604
1601133823641,2069,-1.9282227,1.0526733,0.902771
1601133823641,2070,-1.1328125,0.13519287,0.25653076
1601133823643,2071,-0.3864746,-0.6526489,-0.13922119
1601133823644,2072,-1.1787109,-1.2390747,-0.73443604
1601133823644,2073,-2.0,-0.45440674,-0.027160645
1601133823644,2074,-0.9836426,0.93573,0.46697998
1601133823644,2075,-1.1328125,0.13519287,0.25653076
1601133823644,2076,-1.1386719,-0.63116455,-0.22320557
1601133823644,2077,-2.0,-1.2749634,-1.0808716
1601133823644,2078,-1.1328125,0.13519287,0.25653076
1601133823644,2079,-1.1386719,-0.63116455,-0.22320557
1601133823644,2080,-2.0,-1.2749634,-1.0808716
1601133823647,2081,-1.9233398,-1.0725708,-0.63946533
1601133823647,2082,-1.1328125,0.13519287,0.25653076
1601133823647,2083,-0.35986328,-1.1438599,-0.20758057
1601133823647,2084,-1.1787109,-1.2390747,-0.73443604
1601133823647,2085,-2.0,-0.45440674,-0.027160645
1601133823647,2086,-1.1386719,-0.63116455,-0.22320557
1601133823647,2087,-1.9233398,-1.0725708,-0.63946533
1601133823647,2088,-0.3864746,-0.6526489,-0.13922119
1601133823647,2089,-0.3864746,-0.6526489,-0.13922119
1601133823647,2090,-0.35986328,-1.1438599,-0.20758057
1601133823647,2091,-2.0,-0.45440674,-0.027160645
1601133823650,2092,-0.4699707,0.15740967,0.54681396
1601133823656,2093,-0.3864746,-0.6526489,-0.13922119
1601133823656,2094,-2.0,-1.2749634,-1.0808716
1601133823657,2095,-1.9233398,-1.0725708,-0.63946533
1601133823657,2096,-1.1787109,-1.2390747,-0.73443604
1601133823657,2097,-0.35986328,-1.1438599,-0.20758057
1601133823657,2098,-0.4699707,0.15740967,0.54681396
1601133823657,2099,-2.0,-0.45440674,-0.027160645
1601133823657,2100,-2.0,-1.2749634,-1.0808716
1601133823657,2101,-1.1386719,-0.63116455,-0.22320557
1601133823657,2102,-0.52734375,1.0756226,1.2579956
1601133823658,2103,-1.9233398,-1.0725708,-0.63946533
1601133823658,2104,-0.35986328,-1.1438599,-0.20758057
1601133823661,2105,-0.4699707,0.15740967,0.54681396
1601133823661,2106,-0.52734375,1.0756226,1.2579956
1601133823666,2107,-0.3864746,-0.6526489,-0.13922119
1601133823668,2108,-2.0,-1.2749634,-1.0808716
1601133823668,2109,-1.1787109,-1.2390747,-0.73443604
1601133823669,2110,-0.9140625,-0.5366821,1.999939
1601133823669,2111,-1.1787109,-1.2390747,-0.73443604
1601133823669,2112,-2.0,-0.45440674,-0.027160645
1601133823669,2113,-0.4699707,0.15740967,0.54681396
1601133823669,2114,-1.9233398,-1.0725708,-0.63946533
1601133823669,2115,-0.9140625,-0.5366821,1.999939
1601133823670,2116,-2.0,-1.2749634,-1.0808716
1601133823670,2117,-0.35986328,-1.1438599,-0.20758057
1601133823670,2118,-0.4699707,0.15740967,0.54681396
1601133823670,2119,-0.42773438,0.016540527,0.9550171
1601133823683,2120,-0.52734375,1.0756226,1.2579956
1601133823683,2121,-0.52734375,1.0756226,1.2579956
1601133823685,2122,-1.1787109,-1.2390747,-0.73443604
1601133823685,2123,-0.52734375,1.0756226,1.2579956
1601133823685,2124,-1.9233398,-1.0725708,-0.63946533
1601133823686,2125,-1.9233398,-1.0725708,-0.63946533
1601133823686,2126,-1.1386719,-0.63116455,-0.22320557
1601133823686,2127,-0.9140625,-0.5366821,1.999939
1601133823686,2128,-1.1787109,-1.2390747,-0.73443604
1601133823686,2129,-0.3864746,-0.6526489,-0.13922119
1601133823686,2130,-1.1386719,-0.63116455,-0.22320557
1601133823686,2131,-0.9140625,-0.5366821,1.999939
1601133823686,2132,-0.3864746,-0.6526489,-0.13922119
1601133823686,2133,-1.1386719,-0.63116455,-0.22320557
1601133823686,2134,-0.02319336,-0.56988525,0.68914795
1601133823687,2135,-0.42773438,0.016540527,0.9550171
1601133823687,2136,-1.1787109,-1.2390747,-0.73443604
1601133823687,2137,-0.37768555,-0.79644775,0.9801636
1601133823687,2138,-0.42773438,0.016540527,0.9550171
1601133823687,2139,-0.35986328,-1.1438599,-0.20758057
1601133823687,2140,-0.35986328,-1.1438599,-0.20758057
1601133823687,2141,-0.9140625,-0.5366821,1.999939
1601133823687,2142,-0.4699707,0.15740967,0.54681396
1601133823687,2143,-0.4699707,0.15740967,0.54681396
1601133823687,2144,-1.1386719,-0.63116455,-0.22320557
1601133823687,2145,-0.42773438,0.016540527,0.9550171
1601133823688,2146,-0.52734375,1.0756226,1.2579956
1601133823688,2147,-0.02319336,-0.56988525,0.68914795
1601133823688,2148,-1.1386719,-0.63116455,-0.22320557
1601133823688,2149,-0.02319336,-0.56988525,0.68914795
1601133823688,2150,-0.3864746,-0.6526489,-0.13922119
1601133823688,2151,-0.52734375,1.0756226,1.2579956
1601133823688,2152,-0.35986328,-1.1438599,-0.20758057
1601133823688,2153,-0.3864746,-0.6526489,-0.13922119
1601133823691,2154,0.08984375,0.22869873,0.32562256
1601133823693,2155,-0.37768555,-0.79644775,0.9801636
1601133823693,2156,-0.3864746,-0.6526489,-0.13922119
1601133823693,2157,-0.37768555,-0.79644775,0.9801636
1601133823693,2158,-0.9140625,-0.5366821,1.999939
1601133823693,2159,-0.35986328,-1.1438599,-0.20758057
1601133823693,2160,-0.4699707,0.15740967,0.54681396
1601133823693,2161,-0.9140625,-0.5366821,1.999939
1601133823693,2162,-0.02319336,-0.56988525,0.68914795
1601133823693,2163,-0.35986328,-1.1438599,-0.20758057
1601133823693,2164,0.78344727,0.38787842,0.11517334
1601133823697,2165,0.08984375,0.22869873,0.32562256
1601133823697,2166,-0.4699707,0.15740967,0.54681396
1601133823697,2167,-0.42773438,0.016540527,0.9550171
1601133823697,2168,0.08984375,0.22869873,0.32562256
1601133823698,2169,0.78344727,0.38787842,0.11517334
1601133823698,2170,-0.52734375,1.0756226,1.2579956
1601133823698,2171,-0.37768555,-0.79644775,0.9801636
1601133823698,2172,-0.4699707,0.15740967,0.54681396
1601133823698,2173,0.08984375,0.22869873,0.32562256
1601133823698,2174,0.46435547,-1.9998169,-0.553772
1601133823715,2175,-0.42773438,0.016540527,0.9550171
1601133823715,2176,-0.52734375,1.0756226,1.2579956
1601133823715,2177,0.78344727,0.38787842,0.11517334
1601133823715,2178,-0.02319336,-0.56988525,0.68914795
1601133823715,2179,0.46435547,-1.9998169,-0.553772
1601133823716,2180,-0.37768555,-0.79644775,0.9801636
1601133823716,2181,-0.42773438,0.016540527,0.9550171
1601133823717,2182,0.78344727,0.38787842,0.11517334
1601133823717,2183,0.08984375,0.22869873,0.32562256
1601133823717,2184,-0.52734375,1.0756226,1.2579956
1601133823717,2185,0.46435547,-1.9998169,-0.553772
1601133823717,2186,-0.02319336,-0.56988525,0.68914795
1601133823717,2187,-0.9140625,-0.5366821,1.999939
1601133823717,2188,-0.9140625,-0.5366821,1.999939
1601133823717,2189,0.46435547,-1.9998169,-0.553772
1601133823718,2190,-0.80493164,0.6288452,0.3727417
1601133823718,2191,-0.02319336,-0.56988525,0.68914795
1601133823718,2192,-0.42773438,0.016540527,0.9550171
1601133823718,2193,-0.80493164,0.6288452,0.3727417
1601133823718,2194,-0.80493164,0.6288452,0.3727417
1601133823718,2195,0.78344727,0.38787842,0.11517334
1601133823718,2196,0.6291504,-0.597229,-0.06890869
1601133823718,2197,-0.9140625,-0.5366821,1.999939
1601133823718,2198,-0.37768555,-0.79644775,0.9801636
1601133823718,2199,-0.42773438,0.016540527,0.9550171
1601133823718,2200,0.46435547,-1.9998169,-0.553772
1601133823718,2201,-0.02319336,-0.56988525,0.68914795
1601133823718,2202,-0.80493164,0.6288452,0.3727417
1601133823718,2203,-0.42773438,0.016540527,0.9550171
1601133823718,2204,-0.37768555,-0.79644775,0.9801636
1601133823719,2205,-0.37768555,-0.79644775,0.9801636
1601133823719,2206,-0.02319336,-0.56988525,0.68914795
1601133823719,2207,0.08984375,0.22869873,0.32562256
1601133823719,2208,-0.02319336,-0.56988525,0.68914795
1601133823719,2209,0.6291504,-0.597229,-0.06890869
1601133823719,2210,0.08984375,0.22869873,0.32562256
1601133823719,2211,-0.37768555,-0.79644775,0.9801636
1601133823719,2212,0.08984375,0.22869873,0.32562256
1601133823719,2213,0.78344727,0.38787842,0.11517334
1601133823719,2214,0.78344727,0.38787842,0.11517334
1601133823719,2215,0.6291504,-0.597229,-0.06890869
1601133823719,2216,-0.37768555,-0.79644775,0.9801636
1601133823720,2217,-0.80493164,0.6288452,0.3727417
1601133823729,2218,0.46435547,-1.9998169,-0.553772
1601133823729,2219,0.78344727,0.38787842,0.11517334
1601133823729,2220,0.46435547,-1.9998169,-0.553772
1601133823729,2221,0.6291504,-0.597229,-0.06890869
1601133823729,2222,0.08984375,0.22869873,0.32562256
1601133823729,2223,0.08984375,0.22869873,0.32562256
1601133823730,2224,0.6291504,-0.597229,-0.06890869
1601133823730,2225,-0.80493164,0.6288452,0.3727417
1601133823730,2226,0.6291504,-0.597229,-0.06890869
1601133823734,2227,0.78344727,0.38787842,0.11517334
1601133823734,2228,0.46435547,-1.9998169,-0.553772
1601133823734,2229,0.78344727,0.38787842,0.11517334
1601133823734,2230,-0.80493164,0.6288452,0.3727417
1601133823735,2231,-0.80493164,0.6288452,0.3727417
1601133823735,2232,0.46435547,-1.9998169,-0.553772
1601133823736,2233,0.6291504,-0.597229,-0.06890869
1601133823736,2234,0.46435547,-1.9998169,-0.553772
1601133823736,2235,0.6291504,-0.597229,-0.06890869
1601133823739,2236,-0.80493164,0.6288452,0.3727417
1601133823739,2237,0.6291504,-0.597229,-0.06890869
1601133823739,2238,-0.80493164,0.6288452,0.3727417
1601133823739,2239,0.6291504,-0.597229,-0.06890869
1601133825326,2240,0.35424805,-1.1204224,0.32562256
1601133825327,2241,0.35424805,-1.1204224,0.32562256
1601133825327,2242,0.35424805,-1.1204224,0.32562256
1601133825332,2243,0.33325195,-0.10870361,0.4303589
1601133825334,2244,0.35424805,-1.1204224,0.32562256
1601133825353,2245,0.35424805,-1.1204224,0.32562256
1601133825353,2246,0.28295898,-0.22808838,0.04852295
1601133825353,2247,0.35424805,-1.1204224,0.32562256
1601133825353,2248,0.33325195,-0.10870361,0.4303589
1601133825353,2249,0.35424805,-1.1204224,0.32562256
1601133825353,2250,0.35424805,-1.1204224,0.32562256
1601133825353,2251,0.33325195,-0.10870361,0.4303589
1601133825354,2252,0.35424805,-1.1204224,0.32562256
1601133825354,2253,0.33325195,-0.10870361,0.4303589
1601133825354,2254,0.33325195,-0.10870361,0.4303589
1601133825354,2255,0.33325195,-0.10870361,0.4303589
1601133825354,2256,0.33325195,-0.10870361,0.4303589
1601133825355,2257,0.28295898,-0.22808838,0.04852295
1601133825355,2258,0.28295898,-0.22808838,0.04852295
1601133825355,2259,0.35424805,-1.1204224,0.32562256
1601133825355,2260,0.33325195,-0.10870361,0.4303589
1601133825355,2261,0.28295898,-0.22808838,0.04852295
1601133825355,2262,0.33325195,-0.10870361,0.4303589
1601133825356,2263,0.28295898,-0.22808838,0.04852295
1601133825356,2264,0.46777344,-1.8582153,0.13323975
1601133825356,2265,0.28295898,-0.22808838,0.04852295
1601133825356,2266,0.46777344,-1.8582153,0.13323975
1601133825356,2267,0.28295898,-0.22808838,0.04852295
1601133825357,2268,0.46777344,-1.8582153,0.13323975
1601133825357,2269,0.5378418,0.16448975,0.8632202
1601133825358,2270,0.33325195,-0.10870361,0.4303589
1601133825359,2271,0.46777344,-1.8582153,0.13323975
1601133825360,2272,0.5378418,0.16448975,0.8632202
1601133825360,2273,0.46777344,-1.8582153,0.13323975
1601133825375,2274,0.46777344,-1.8582153,0.13323975
1601133825375,2275,0.46777344,-1.8582153,0.13323975
1601133825375,2276,0.28295898,-0.22808838,0.04852295
1601133825375,2277,0.5378418,0.16448975,0.8632202
1601133825375,2278,0.7988281,-0.62213135,0.2670288
1601133825375,2279,0.7988281,-0.62213135,0.2670288
1601133825376,2280,0.28295898,-0.22808838,0.04852295
1601133825376,2281,0.5378418,0.16448975,0.8632202
1601133825376,2282,0.5378418,0.16448975,0.8632202
1601133825376,2283,0.7988281,-0.62213135,0.2670288
1601133825376,2284,0.40966797,-1.0108032,0.7501831
1601133825376,2285,0.46777344,-1.8582153,0.13323975
1601133825376,2286,0.28295898,-0.22808838,0.04852295
1601133825378,2287,0.5378418,0.16448975,0.8632202
1601133825378,2288,0.46777344,-1.8582153,0.13323975
1601133825378,2289,0.40966797,-1.0108032,0.7501831
1601133825378,2290,0.40966797,-1.0108032,0.7501831
1601133825378,2291,0.7988281,-0.62213135,0.2670288
1601133825379,2292,0.5378418,0.16448975,0.8632202
1601133825379,2293,-0.18359375,-0.48321533,0.758728
1601133825379,2294,0.46777344,-1.8582153,0.13323975
1601133825379,2295,0.40966797,-1.0108032,0.7501831
1601133825379,2296,-0.37402344,-0.32281494,0.21185303
1601133825379,2297,0.5378418,0.16448975,0.8632202
1601133825393,2298,0.5378418,0.16448975,0.8632202
1601133825397,2299,-0.18359375,-0.48321533,0.758728
1601133825397,2300,-0.8510742,-0.9507446,0.4093628
1601133825397,2301,0.7988281,-0.62213135,0.2670288
1601133825397,2302,-0.81225586,-1.1152954,0.6149292
1601133825397,2303,0.7988281,-0.62213135,0.2670288
1601133825398,2304,-0.18359375,-0.48321533,0.758728
1601133825398,2305,0.5378418,0.16448975,0.8632202
1601133825398,2306,0.7988281,-0.62213135,0.2670288
1601133825398,2307,-0.18359375,-0.48321533,0.758728
1601133825398,2308,-0.37402344,-0.32281494,0.21185303
1601133825398,2309,0.7988281,-0.62213135,0.2670288
1601133825398,2310,0.7988281,-0.62213135,0.2670288
1601133825398,2311,-0.37402344,-0.32281494,0.21185303
1601133825398,2312,0.40966797,-1.0108032,0.7501831
1601133825398,2313,0.7988281,-0.62213135,0.2670288
1601133825398,2314,-0.18359375,-0.48321533,0.758728
1601133825398,2315,-1.2983398,-0.5149536,0.8053589
1601133825399,2316,-0.37402344,-0.32281494,0.21185303
