# Sensor position: Chest
# Sensor side: Left
# Activity type: Movement
# Activity code: 9
# Subject id: s1746788
timestamp,seq,accel_x,accel_y,accel_z
1601387742851,0,-0.11694336,-1.0115356,0.20111084
1601387742851,1,-0.057128906,-1.0176392,0.19818115
1601387742851,2,-0.03955078,-1.0171509,0.1864624
1601387742851,3,-0.04736328,-1.010315,0.19232178
1601387742853,4,-0.115722656,-1.0025024,0.18817139
1601387742853,5,-0.03955078,-1.0171509,0.1864624
1601387742853,6,-0.04736328,-1.010315,0.19232178
1601387742853,7,-0.1184082,-1.015686,0.19256592
1601387742853,8,-0.057128906,-1.0176392,0.19818115
1601387742853,9,-0.1184082,-1.0205688,0.1618042
1601387742853,10,-0.11694336,-1.0115356,0.20111084
1601387742862,11,-0.100097656,-1.0012817,0.25604248
1601387742862,12,-0.04736328,-1.010315,0.19232178
1601387742862,13,-0.100097656,-1.0012817,0.25604248
1601387742862,14,-0.12597656,-1.0020142,0.13616943
1601387742863,15,-0.10913086,-1.0076294,0.2230835
1601387742863,16,-0.1184082,-1.015686,0.19256592
1601387742867,17,-0.10913086,-1.0076294,0.2230835
1601387742868,18,-0.057128906,-1.0176392,0.19818115
1601387742870,19,-0.057128906,-1.0176392,0.19818115
1601387742884,20,-0.115722656,-1.0025024,0.18817139
1601387742884,21,-0.1184082,-1.0205688,0.1618042
1601387742884,22,-0.100097656,-1.0012817,0.25604248
1601387742884,23,-0.13647461,-1.0078735,0.13568115
1601387742885,24,-0.115722656,-1.0025024,0.18817139
1601387742885,25,-0.100097656,-1.0012817,0.25604248
1601387742885,26,-0.08154297,-0.9841919,0.17279053
1601387742885,27,-0.11694336,-1.0115356,0.20111084
1601387742885,28,-0.0949707,-1.0667114,0.26361084
1601387742886,29,-0.1184082,-1.015686,0.19256592
1601387742895,30,-0.11694336,-1.0115356,0.20111084
1601387742896,31,-0.09350586,-1.0120239,0.19647217
1601387742896,32,-0.10913086,-1.0076294,0.2230835
1601387742896,33,-0.12597656,-1.0020142,0.13616943
1601387742896,34,-0.1184082,-1.0205688,0.1618042
1601387742896,35,-0.10253906,-0.97247314,0.17962646
1601387742897,36,-0.10913086,-1.0076294,0.2230835
1601387742897,37,-0.13647461,-1.0078735,0.13568115
1601387742897,38,-0.12597656,-1.0020142,0.13616943
1601387742897,39,-0.1184082,-1.015686,0.19256592
1601387742898,40,-0.115722656,-1.0025024,0.18817139
1601387742898,41,-0.13647461,-1.0078735,0.13568115
1601387742905,42,-0.115722656,-1.0025024,0.18817139
1601387742906,43,-0.11694336,-1.0115356,0.20111084
1601387742906,44,-0.11694336,-1.0115356,0.20111084
1601387742907,45,-0.12670898,-1.0784302,0.2423706
1601387742907,46,-0.08154297,-0.9841919,0.17279053
1601387742908,47,-0.08154297,-0.9841919,0.17279053
1601387742912,48,-0.1184082,-1.015686,0.19256592
1601387742914,49,-0.1184082,-1.015686,0.19256592
1601387742915,50,-0.0949707,-1.0667114,0.26361084
1601387742925,51,-0.09350586,-1.0120239,0.19647217
1601387742925,52,-0.10253906,-0.97247314,0.17962646
1601387742925,53,-0.048828125,-0.9746704,0.2399292
1601387742926,54,-0.1184082,-1.0205688,0.1618042
1601387742927,55,-0.0949707,-1.0667114,0.26361084
1601387742927,56,-0.1184082,-1.0205688,0.1618042
1601387742927,57,-0.09350586,-1.0120239,0.19647217
1601387742928,58,0.011474609,-0.96881104,0.24627686
1601387742933,59,-0.12597656,-1.0020142,0.13616943
1601387742933,60,-0.1184082,-1.0205688,0.1618042
1601387742934,61,-0.12670898,-1.0784302,0.2423706
1601387742934,62,-0.12597656,-1.0020142,0.13616943
1601387742934,63,-0.13647461,-1.0078735,0.13568115
1601387742934,64,0.0041503906,-0.9873657,0.22015381
1601387742936,65,-0.12597656,-1.0020142,0.13616943
1601387742937,66,-0.048828125,-0.9746704,0.2399292
1601387742939,67,0.011474609,-0.96881104,0.24627686
1601387742941,68,-0.10253906,-0.97247314,0.17962646
1601387742946,69,-0.12670898,-1.0784302,0.2423706
1601387742946,70,-0.08154297,-0.9841919,0.17279053
1601387742946,71,0.033691406,-0.9729614,0.21551514
1601387742946,72,-0.0949707,-1.0667114,0.26361084
1601387742947,73,-0.13647461,-1.0078735,0.13568115
1601387742947,74,-0.048828125,-0.9746704,0.2399292
1601387742950,75,-0.13647461,-1.0078735,0.13568115
1601387742950,76,0.11376953,-1.0122681,0.2098999
1601387742951,77,-0.09350586,-1.0120239,0.19647217
1601387742953,78,0.011474609,-0.96881104,0.24627686
1601387742958,79,0.0041503906,-0.9873657,0.22015381
1601387742962,80,-0.10253906,-0.97247314,0.17962646
1601387742962,81,-0.08154297,-0.9841919,0.17279053
1601387742963,82,0.0041503906,-0.9873657,0.22015381
1601387742963,83,-0.08154297,-0.9841919,0.17279053
1601387742964,84,0.033691406,-0.9729614,0.21551514
1601387742968,85,-0.0949707,-1.0667114,0.26361084
1601387742968,86,-0.12670898,-1.0784302,0.2423706
1601387742968,87,-0.09350586,-1.0120239,0.19647217
1601387742969,88,-0.048828125,-0.9746704,0.2399292
1601387742969,89,-0.10253906,-0.97247314,0.17962646
1601387742978,90,0.033691406,-0.9729614,0.21551514
1601387742978,91,-0.0949707,-1.0667114,0.26361084
1601387742979,92,0.11376953,-1.0122681,0.2098999
1601387742979,93,-0.12670898,-1.0784302,0.2423706
1601387742979,94,0.011474609,-0.96881104,0.24627686
1601387742979,95,-0.048828125,-0.9746704,0.2399292
1601387742980,96,0.0041503906,-0.9873657,0.22015381
1601387742980,97,0.11376953,-1.0122681,0.2098999
1601387742985,98,-0.09350586,-1.0120239,0.19647217
1601387742985,99,0.033691406,-0.9729614,0.21551514
1601387742986,100,0.011474609,-0.96881104,0.24627686
1601387742987,101,-0.10253906,-0.97247314,0.17962646
1601387742992,102,-0.12670898,-1.0784302,0.2423706
1601387742993,103,0.11376953,-1.0122681,0.2098999
1601387742993,104,0.0041503906,-0.9873657,0.22015381
1601387742993,105,0.033691406,-0.9729614,0.21551514
1601387742994,106,-0.048828125,-0.9746704,0.2399292
1601387742995,107,0.11376953,-1.0122681,0.2098999
1601387743004,108,0.011474609,-0.96881104,0.24627686
1601387743006,109,0.0041503906,-0.9873657,0.22015381
1601387743006,110,0.033691406,-0.9729614,0.21551514
1601387743006,111,0.11376953,-1.0122681,0.2098999
1601387745180,112,0.09667969,-1.0459595,0.22918701
1601387745181,113,0.09667969,-1.0459595,0.22918701
1601387745183,114,0.09667969,-1.0459595,0.22918701
1601387745183,115,0.09667969,-1.0459595,0.22918701
1601387745184,116,0.01171875,-0.9837036,0.22918701
1601387745189,117,0.01171875,-0.9837036,0.22918701
1601387745189,118,0.09667969,-1.0459595,0.22918701
1601387745191,119,0.09667969,-1.0459595,0.22918701
1601387745194,120,0.01171875,-0.9837036,0.22918701
1601387745201,121,0.022949219,-0.9963989,0.20550537
1601387745201,122,0.022949219,-0.9963989,0.20550537
1601387745204,123,0.01171875,-0.9837036,0.22918701
1601387745204,124,0.01171875,-0.9837036,0.22918701
1601387745206,125,-0.0036621094,-0.9993286,0.17108154
1601387745206,126,0.022949219,-0.9963989,0.20550537
1601387745208,127,-0.0036621094,-0.9993286,0.17108154
1601387745212,128,-0.02368164,-0.9907837,0.2033081
1601387745214,129,0.01171875,-0.9837036,0.22918701
1601387745227,130,-0.0036621094,-0.9993286,0.17108154
1601387745229,131,0.022949219,-0.9963989,0.20550537
1601387745229,132,0.022949219,-0.9963989,0.20550537
1601387745229,133,-0.05883789,-0.9273071,0.19696045
1601387745231,134,0.022949219,-0.9963989,0.20550537
1601387745231,135,-0.02368164,-0.9907837,0.2033081
1601387745233,136,-0.11767578,-1.0674438,0.25628662
1601387745233,137,-0.0036621094,-0.9993286,0.17108154
1601387745233,138,-0.056396484,-1.2503052,0.15863037
1601387745235,139,-0.0036621094,-0.9993286,0.17108154
1601387745240,140,-0.02368164,-0.9907837,0.2033081
1601387745240,141,-0.0036621094,-0.9993286,0.17108154
1601387745240,142,-0.09057617,-1.2703247,0.11566162
1601387745245,143,-0.02368164,-0.9907837,0.2033081
1601387745246,144,-0.05883789,-0.9273071,0.19696045
1601387745246,145,-0.05883789,-0.9273071,0.19696045
1601387745246,146,-0.02368164,-0.9907837,0.2033081
1601387745247,147,-0.02368164,-0.9907837,0.2033081
1601387745247,148,-0.1743164,-0.73883057,-0.0791626
1601387745254,149,-0.11767578,-1.0674438,0.25628662
1601387745254,150,-0.05883789,-0.9273071,0.19696045
1601387745256,151,-0.11767578,-1.0674438,0.25628662
1601387745256,152,-0.05883789,-0.9273071,0.19696045
1601387745257,153,-0.11767578,-1.0674438,0.25628662
1601387745261,154,-0.05883789,-0.9273071,0.19696045
1601387745262,155,-0.056396484,-1.2503052,0.15863037
1601387745266,156,-0.11767578,-1.0674438,0.25628662
1601387745267,157,-0.20263672,-1.0291138,-0.0051879883
1601387745268,158,-0.056396484,-1.2503052,0.15863037
1601387745268,159,-0.056396484,-1.2503052,0.15863037
1601387745269,160,-0.056396484,-1.2503052,0.15863037
1601387745270,161,-0.09057617,-1.2703247,0.11566162
1601387745273,162,-0.11767578,-1.0674438,0.25628662
1601387745275,163,-0.09057617,-1.2703247,0.11566162
1601387745286,164,-0.09057617,-1.2703247,0.11566162
1601387745287,165,-0.1743164,-0.73883057,-0.0791626
1601387745288,166,-0.2163086,-1.0320435,0.10321045
1601387745288,167,-0.056396484,-1.2503052,0.15863037
1601387745289,168,-0.09057617,-1.2703247,0.11566162
1601387745289,169,-0.1743164,-0.73883057,-0.0791626
1601387745289,170,-0.1743164,-0.73883057,-0.0791626
1601387745290,171,-0.20263672,-1.0291138,-0.0051879883
1601387745292,172,-0.09057617,-1.2703247,0.11566162
1601387745293,173,-0.20263672,-1.0291138,-0.0051879883
1601387745294,174,-0.1743164,-0.73883057,-0.0791626
1601387745312,175,-0.20263672,-1.0291138,-0.0051879883
1601387745313,176,-0.21459961,-0.9439087,0.16937256
1601387745313,177,-0.2163086,-1.0320435,0.10321045
1601387745313,178,-0.2163086,-1.0320435,0.10321045
1601387745313,179,-0.20263672,-1.0291138,-0.0051879883
1601387745314,180,-0.2163086,-1.0320435,0.10321045
1601387745314,181,-0.2163086,-1.0320435,0.10321045
1601387745315,182,-0.1743164,-0.73883057,-0.0791626
1601387745315,183,-0.28955078,-0.92315674,0.20452881
1601387745315,184,-0.20263672,-1.0291138,-0.0051879883
1601387745316,185,-0.21459961,-0.9439087,0.16937256
1601387745316,186,-0.21459961,-0.9439087,0.16937256
1601387745316,187,-0.21459961,-0.9439087,0.16937256
1601387745316,188,-0.25048828,-0.93536377,0.17352295
1601387745317,189,-0.28955078,-0.92315674,0.20452881
1601387745317,190,-0.2163086,-1.0320435,0.10321045
1601387745317,191,-0.28955078,-0.92315674,0.20452881
1601387745318,192,-0.28955078,-0.92315674,0.20452881
1601387745318,193,-0.21459961,-0.9439087,0.16937256
1601387745319,194,-0.25146484,-1.1709595,0.20526123
1601387745319,195,-0.28955078,-0.92315674,0.20452881
1601387745320,196,-0.21459961,-0.9439087,0.16937256
1601387745325,197,-0.25048828,-0.93536377,0.17352295
1601387745325,198,0.12915039,-1.3276978,0.10101318
1601387745325,199,-0.25146484,-1.1709595,0.20526123
1601387745326,200,0.17773438,-1.0125122,-0.06695557
1601387745326,201,-0.25048828,-0.93536377,0.17352295
1601387745327,202,-0.28955078,-0.92315674,0.20452881
1601387745337,203,-0.25048828,-0.93536377,0.17352295
1601387745337,204,-0.25048828,-0.93536377,0.17352295
1601387745337,205,0.12915039,-1.3276978,0.10101318
1601387745337,206,-0.25146484,-1.1709595,0.20526123
1601387745337,207,-0.25048828,-0.93536377,0.17352295
1601387745338,208,0.0847168,-0.95440674,0.06048584
1601387745338,209,-0.25146484,-1.1709595,0.20526123
1601387745338,210,-0.25146484,-1.1709595,0.20526123
1601387745339,211,-0.25146484,-1.1709595,0.20526123
1601387745339,212,0.17773438,-1.0125122,-0.06695557
1601387745339,213,0.12915039,-1.3276978,0.10101318
1601387745339,214,0.12915039,-1.3276978,0.10101318
1601387745340,215,0.072509766,-0.7949829,0.0927124
1601387745340,216,0.12915039,-1.3276978,0.10101318
1601387745348,217,0.17773438,-1.0125122,-0.06695557
1601387745348,218,0.17773438,-1.0125122,-0.06695557
1601387745348,219,0.0847168,-0.95440674,0.06048584
1601387745348,220,0.12915039,-1.3276978,0.10101318
1601387745349,221,0.001953125,-0.9282837,0.20843506
1601387745349,222,0.17773438,-1.0125122,-0.06695557
1601387745349,223,0.17773438,-1.0125122,-0.06695557
1601387745350,224,0.0847168,-0.95440674,0.06048584
1601387745350,225,-0.09448242,-0.8977661,0.26483154
1601387745350,226,0.072509766,-0.7949829,0.0927124
1601387745358,227,0.0847168,-0.95440674,0.06048584
1601387745358,228,0.0847168,-0.95440674,0.06048584
1601387745359,229,0.072509766,-0.7949829,0.0927124
1601387745359,230,0.0847168,-0.95440674,0.06048584
1601387745359,231,0.001953125,-0.9282837,0.20843506
1601387745360,232,-0.020996094,-0.9890747,0.2164917
1601387745372,233,0.072509766,-0.7949829,0.0927124
1601387745372,234,0.072509766,-0.7949829,0.0927124
1601387745372,235,0.072509766,-0.7949829,0.0927124
1601387745372,236,-0.09448242,-0.8977661,0.26483154
1601387745373,237,0.001953125,-0.9282837,0.20843506
1601387745373,238,0.001953125,-0.9282837,0.20843506
1601387745392,239,0.001953125,-0.9282837,0.20843506
1601387745392,240,0.001953125,-0.9282837,0.20843506
1601387745393,241,-0.1706543,-1.3103638,0.2694702
1601387745394,242,-0.020996094,-0.9890747,0.2164917
1601387745395,243,-0.09448242,-0.8977661,0.26483154
1601387745395,244,-0.09448242,-0.8977661,0.26483154
1601387745396,245,-0.09448242,-0.8977661,0.26483154
1601387745397,246,-0.09448242,-0.8977661,0.26483154
1601387745397,247,-0.020996094,-0.9890747,0.2164917
1601387745398,248,-0.1706543,-1.3103638,0.2694702
1601387745398,249,-0.1706543,-1.3103638,0.2694702
1601387745399,250,-0.037597656,-1.3938599,0.0602417
1601387745400,251,-0.037597656,-1.3938599,0.0602417
1601387745401,252,-0.020996094,-0.9890747,0.2164917
1601387745401,253,-0.020996094,-0.9890747,0.2164917
1601387745401,254,-0.020996094,-0.9890747,0.2164917
1601387745402,255,-0.15551758,-0.9885864,-0.06866455
1601387745407,256,-0.037597656,-1.3938599,0.0602417
1601387745407,257,-0.15551758,-0.9885864,-0.06866455
1601387745407,258,-0.1706543,-1.3103638,0.2694702
1601387745408,259,-0.1706543,-1.3103638,0.2694702
1601387745408,260,-0.037597656,-1.3938599,0.0602417
1601387745408,261,-0.037597656,-1.3938599,0.0602417
1601387745408,262,-0.15551758,-0.9885864,-0.06866455
1601387745408,263,-0.041748047,-0.98883057,0.026794434
1601387745417,264,-0.14257812,-0.78985596,0.08709717
1601387745418,265,-0.15551758,-0.9885864,-0.06866455
1601387745418,266,-0.13891602,-0.8460083,0.11907959
1601387745419,267,-0.041748047,-0.98883057,0.026794434
1601387745420,268,-0.041748047,-0.98883057,0.026794434
1601387745420,269,-0.1706543,-1.3103638,0.2694702
1601387745421,270,-0.17236328,-0.956604,0.19866943
1601387745422,271,-0.041748047,-0.98883057,0.026794434
1601387745422,272,-0.20361328,-1.0776978,0.22528076
1601387745423,273,-0.14257812,-0.78985596,0.08709717
1601387745424,274,-0.15551758,-0.9885864,-0.06866455
1601387745424,275,-0.06542969,-1.33844,0.26898193
1601387745429,276,-0.037597656,-1.3938599,0.0602417
1601387745430,277,-0.14257812,-0.78985596,0.08709717
1601387745431,278,-0.041748047,-0.98883057,0.026794434
1601387745432,279,-0.14257812,-0.78985596,0.08709717
1601387745433,280,-0.13891602,-0.8460083,0.11907959
1601387745435,281,-0.15551758,-0.9885864,-0.06866455
1601387745436,282,-0.041748047,-0.98883057,0.026794434
1601387745438,283,-0.14257812,-0.78985596,0.08709717
1601387745439,284,-0.13891602,-0.8460083,0.11907959
1601387745456,285,-0.17236328,-0.956604,0.19866943
1601387745456,286,-0.13891602,-0.8460083,0.11907959
1601387745458,287,-0.14257812,-0.78985596,0.08709717
1601387745459,288,-0.13891602,-0.8460083,0.11907959
1601387745460,289,-0.17236328,-0.956604,0.19866943
1601387745461,290,-0.20361328,-1.0776978,0.22528076
1601387745462,291,-0.17236328,-0.956604,0.19866943
1601387745466,292,-0.13891602,-0.8460083,0.11907959
1601387745467,293,-0.17236328,-0.956604,0.19866943
1601387745467,294,-0.20361328,-1.0776978,0.22528076
1601387745467,295,-0.17236328,-0.956604,0.19866943
1601387745468,296,-0.20361328,-1.0776978,0.22528076
1601387745469,297,-0.06542969,-1.33844,0.26898193
1601387745469,298,-0.20361328,-1.0776978,0.22528076
1601387745471,299,-0.06542969,-1.33844,0.26898193
1601387745471,300,-0.06542969,-1.33844,0.26898193
1601387745472,301,-0.20361328,-1.0776978,0.22528076
1601387745478,302,-0.06542969,-1.33844,0.26898193
1601387745478,303,-0.06542969,-1.33844,0.26898193
1601387747768,304,0.15600586,-1.1707153,0.06048584
1601387747770,305,0.15600586,-1.1707153,0.06048584
1601387747772,306,0.15600586,-1.1707153,0.06048584
1601387747774,307,0.15600586,-1.1707153,0.06048584
1601387747775,308,0.118896484,-0.98565674,0.0014038086
1601387747777,309,0.15600586,-1.1707153,0.06048584
1601387747778,310,0.118896484,-0.98565674,0.0014038086
1601387747780,311,-0.03491211,-0.7817993,0.13104248
1601387747782,312,0.118896484,-0.98565674,0.0014038086
1601387747784,313,-0.03491211,-0.7817993,0.13104248
1601387747785,314,0.059570312,-0.8687134,0.17791748
1601387747791,315,0.118896484,-0.98565674,0.0014038086
1601387747791,316,0.15600586,-1.1707153,0.06048584
1601387747792,317,0.118896484,-0.98565674,0.0014038086
1601387747792,318,-0.03491211,-0.7817993,0.13104248
1601387747792,319,0.059570312,-0.8687134,0.17791748
1601387747793,320,0.005859375,-0.8386841,0.2518921
1601387747794,321,0.005859375,-0.8386841,0.2518921
1601387747800,322,0.118896484,-0.98565674,0.0014038086
1601387747801,323,-0.03491211,-0.7817993,0.13104248
1601387747802,324,0.059570312,-0.8687134,0.17791748
1601387747803,325,-0.03491211,-0.7817993,0.13104248
1601387747804,326,0.01928711,-1.0025024,0.17816162
1601387747804,327,0.01928711,-1.0025024,0.17816162
1601387747812,328,0.059570312,-0.8687134,0.17791748
1601387747813,329,0.059570312,-0.8687134,0.17791748
1601387747814,330,-0.03491211,-0.7817993,0.13104248
1601387747815,331,0.005859375,-0.8386841,0.2518921
1601387747816,332,0.059570312,-0.8687134,0.17791748
1601387747817,333,0.005859375,-0.8386841,0.2518921
1601387747825,334,0.005859375,-0.8386841,0.2518921
1601387747831,335,-0.19628906,-1.3457642,0.32977295
1601387747832,336,-0.19628906,-1.3457642,0.32977295
1601387747832,337,0.01928711,-1.0025024,0.17816162
1601387747832,338,0.005859375,-0.8386841,0.2518921
1601387747832,339,0.01928711,-1.0025024,0.17816162
1601387747837,340,0.01928711,-1.0025024,0.17816162
1601387747838,341,-0.08935547,-1.3970337,0.10784912
1601387747838,342,-0.08935547,-1.3970337,0.10784912
1601387747839,343,-0.19628906,-1.3457642,0.32977295
1601387747839,344,-0.10424805,-1.0147095,-0.11578369
1601387747839,345,-0.19628906,-1.3457642,0.32977295
1601387747839,346,-0.19628906,-1.3457642,0.32977295
1601387747842,347,0.01928711,-1.0025024,0.17816162
1601387747845,348,-0.19628906,-1.3457642,0.32977295
1601387747857,349,-0.08935547,-1.3970337,0.10784912
1601387747859,350,-0.08935547,-1.3970337,0.10784912
1601387747859,351,-0.10424805,-1.0147095,-0.11578369
1601387747861,352,-0.08935547,-1.3970337,0.10784912
1601387747861,353,0.025146484,-0.9534302,-0.011047363
1601387747862,354,-0.08935547,-1.3970337,0.10784912
1601387747863,355,0.025146484,-0.9534302,-0.011047363
1601387747864,356,-0.10424805,-1.0147095,-0.11578369
1601387747864,357,-0.10424805,-1.0147095,-0.11578369
1601387747865,358,0.025146484,-0.9534302,-0.011047363
1601387747866,359,-0.17138672,-0.77960205,0.06365967
1601387747868,360,-0.10424805,-1.0147095,-0.11578369
1601387747869,361,0.025146484,-0.9534302,-0.011047363
1601387747877,362,-0.17138672,-0.77960205,0.06365967
1601387747877,363,-0.17138672,-0.77960205,0.06365967
1601387747878,364,-0.1430664,-0.8674927,0.14593506
1601387747880,365,0.025146484,-0.9534302,-0.011047363
1601387747880,366,-0.10424805,-1.0147095,-0.11578369
1601387747881,367,-0.17138672,-0.77960205,0.06365967
1601387747891,368,-0.21582031,-0.96588135,0.22235107
1601387747891,369,-0.1430664,-0.8674927,0.14593506
1601387747893,370,-0.17138672,-0.77960205,0.06365967
1601387747894,371,-0.1430664,-0.8674927,0.14593506
1601387747894,372,0.025146484,-0.9534302,-0.011047363
1601387747896,373,-0.1430664,-0.8674927,0.14593506
1601387747898,374,-0.18408203,-1.0774536,0.2658081
1601387747915,375,-0.07788086,-1.4382935,0.27288818
1601387747915,376,-0.21582031,-0.96588135,0.22235107
1601387747915,377,-0.1430664,-0.8674927,0.14593506
1601387747915,378,-0.17138672,-0.77960205,0.06365967
1601387747916,379,-0.21582031,-0.96588135,0.22235107
1601387747916,380,-0.21582031,-0.96588135,0.22235107
1601387747924,381,0.14746094,-1.0789185,0.0014038086
1601387747924,382,-0.18408203,-1.0774536,0.2658081
1601387747925,383,-0.21582031,-0.96588135,0.22235107
1601387747927,384,0.040771484,-0.97369385,0.07318115
1601387747927,385,-0.18408203,-1.0774536,0.2658081
1601387747929,386,-0.18408203,-1.0774536,0.2658081
1601387747930,387,-0.07788086,-1.4382935,0.27288818
1601387747933,388,-0.18408203,-1.0774536,0.2658081
1601387747935,389,-0.07788086,-1.4382935,0.27288818
1601387747943,390,0.14746094,-1.0789185,0.0014038086
1601387747944,391,0.14746094,-1.0789185,0.0014038086
1601387747946,392,-0.0637207,-0.7046509,0.13519287
1601387747947,393,-0.07788086,-1.4382935,0.27288818
1601387747947,394,-0.07788086,-1.4382935,0.27288818
1601387747948,395,-0.1430664,-0.8674927,0.14593506
1601387747963,396,0.040771484,-0.97369385,0.07318115
1601387747964,397,-0.0048828125,-0.83599854,0.17401123
1601387747965,398,0.14746094,-1.0789185,0.0014038086
1601387747965,399,0.040771484,-0.97369385,0.07318115
1601387747966,400,0.14746094,-1.0789185,0.0014038086
1601387747967,401,-0.21582031,-0.96588135,0.22235107
1601387747968,402,-0.18408203,-1.0774536,0.2658081
1601387747969,403,-0.019042969,-0.90093994,0.28485107
1601387747969,404,-0.0637207,-0.7046509,0.13519287
1601387747969,405,0.040771484,-0.97369385,0.07318115
1601387747970,406,-0.0637207,-0.7046509,0.13519287
1601387747971,407,0.040771484,-0.97369385,0.07318115
1601387747974,408,-0.0048828125,-0.83599854,0.17401123
1601387747978,409,-0.0146484375,-1.0606079,0.20794678
1601387747978,410,-0.07788086,-1.4382935,0.27288818
1601387747978,411,-0.0048828125,-0.83599854,0.17401123
1601387747979,412,-0.0637207,-0.7046509,0.13519287
1601387747980,413,-0.0637207,-0.7046509,0.13519287
1601387747980,414,-0.019042969,-0.90093994,0.28485107
1601387747982,415,0.14746094,-1.0789185,0.0014038086
1601387747985,416,-0.0048828125,-0.83599854,0.17401123
1601387747986,417,-0.0048828125,-0.83599854,0.17401123
1601387747988,418,-0.019042969,-0.90093994,0.28485107
1601387747992,419,-0.17822266,-1.2615356,0.30560303
1601387747994,420,-0.0146484375,-1.0606079,0.20794678
1601387748000,421,0.040771484,-0.97369385,0.07318115
1601387748001,422,-0.0146484375,-1.0606079,0.20794678
1601387748001,423,-0.019042969,-0.90093994,0.28485107
1601387748002,424,-0.0637207,-0.7046509,0.13519287
1601387748003,425,-0.15698242,-1.383606,0.11224365
1601387748004,426,-0.17822266,-1.2615356,0.30560303
1601387748008,427,-0.019042969,-0.90093994,0.28485107
1601387748016,428,-0.0146484375,-1.0606079,0.20794678
1601387748017,429,-0.0048828125,-0.83599854,0.17401123
1601387748018,430,-0.109375,-1.0772095,-0.10772705
1601387748019,431,-0.15698242,-1.383606,0.11224365
1601387748020,432,-0.17822266,-1.2615356,0.30560303
1601387748021,433,-0.026611328,-0.9570923,0.07293701
1601387748023,434,-0.17822266,-1.2615356,0.30560303
1601387748024,435,-0.0146484375,-1.0606079,0.20794678
1601387748024,436,-0.019042969,-0.90093994,0.28485107
1601387748024,437,-0.109375,-1.0772095,-0.10772705
1601387748027,438,-0.16992188,-0.7112427,0.07293701
1601387748028,439,-0.15698242,-1.383606,0.11224365
1601387748028,440,-0.15698242,-1.383606,0.11224365
1601387748036,441,-0.17822266,-1.2615356,0.30560303
1601387748036,442,-0.026611328,-0.9570923,0.07293701
1601387748036,443,-0.15942383,-0.88165283,0.15863037
1601387748036,444,-0.0146484375,-1.0606079,0.20794678
1601387748037,445,-0.109375,-1.0772095,-0.10772705
1601387748037,446,-0.17822266,-1.2615356,0.30560303
1601387748041,447,-0.15698242,-1.383606,0.11224365
1601387748041,448,-0.16992188,-0.7112427,0.07293701
1601387748048,449,-0.15942383,-0.88165283,0.15863037
1601387748049,450,-0.13745117,-0.991272,0.19476318
1601387748050,451,-0.15698242,-1.383606,0.11224365
1601387748050,452,-0.026611328,-0.9570923,0.07293701
1601387748052,453,-0.109375,-1.0772095,-0.10772705
1601387748054,454,-0.109375,-1.0772095,-0.10772705
1601387748094,455,-0.1796875,-1.0449829,0.21014404
1601387748095,456,-0.13745117,-0.991272,0.19476318
1601387748096,457,-0.109375,-1.0772095,-0.10772705
1601387748097,458,-0.1796875,-1.0449829,0.21014404
1601387748097,459,-0.026611328,-0.9570923,0.07293701
1601387748097,460,-0.026611328,-0.9570923,0.07293701
1601387748099,461,-0.16992188,-0.7112427,0.07293701
1601387748100,462,-0.16992188,-0.7112427,0.07293701
1601387748100,463,-0.16992188,-0.7112427,0.07293701
1601387748101,464,-0.15942383,-0.88165283,0.15863037
1601387748102,465,-0.15942383,-0.88165283,0.15863037
1601387748102,466,-0.13745117,-0.991272,0.19476318
1601387748103,467,-0.15942383,-0.88165283,0.15863037
1601387748104,468,-0.026611328,-0.9570923,0.07293701
1601387748104,469,-0.13745117,-0.991272,0.19476318
1601387748105,470,-0.16992188,-0.7112427,0.07293701
1601387748106,471,-0.017333984,-1.4749146,0.2909546
1601387748107,472,-0.15942383,-0.88165283,0.15863037
1601387748108,473,-0.1796875,-1.0449829,0.21014404
1601387748108,474,-0.017333984,-1.4749146,0.2909546
1601387748109,475,0.122802734,-1.0376587,0.050964355
1601387748110,476,0.044921875,-0.9841919,0.16326904
1601387748110,477,0.122802734,-1.0376587,0.050964355
1601387748111,478,-0.13745117,-0.991272,0.19476318
1601387748112,479,-0.13745117,-0.991272,0.19476318
1601387748112,480,-0.017333984,-1.4749146,0.2909546
1601387748113,481,-0.1796875,-1.0449829,0.21014404
1601387748117,482,-0.1796875,-1.0449829,0.21014404
1601387748118,483,0.122802734,-1.0376587,0.050964355
1601387748120,484,0.044921875,-0.9841919,0.16326904
1601387748122,485,-0.017333984,-1.4749146,0.2909546
1601387748124,486,0.122802734,-1.0376587,0.050964355
1601387748126,487,-0.017333984,-1.4749146,0.2909546
1601387748128,488,0.044921875,-0.9841919,0.16326904
1601387748133,489,0.122802734,-1.0376587,0.050964355
1601387748134,490,-0.1796875,-1.0449829,0.21014404
1601387748135,491,0.044921875,-0.9841919,0.16326904
1601387748138,492,0.044921875,-0.9841919,0.16326904
1601387748140,493,-0.017333984,-1.4749146,0.2909546
1601387748144,494,0.122802734,-1.0376587,0.050964355
1601387748145,495,0.044921875,-0.9841919,0.16326904
1601387750375,496,0.026855469,-0.753479,0.121520996
1601387750376,497,0.026855469,-0.753479,0.121520996
1601387750378,498,0.026855469,-0.753479,0.121520996
1601387750378,499,0.026855469,-0.753479,0.121520996
1601387750378,500,0.026855469,-0.753479,0.121520996
1601387750398,501,0.026855469,-0.753479,0.121520996
1601387750399,502,0.083496094,-0.9158325,0.16815186
1601387750400,503,0.083496094,-0.9158325,0.16815186
1601387750402,504,0.083496094,-0.9158325,0.16815186
1601387750403,505,0.083496094,-0.9158325,0.16815186
1601387750403,506,0.055664062,-0.9248657,0.20355225
1601387750404,507,0.055664062,-0.9248657,0.20355225
1601387750405,508,0.118652344,-1.0100708,0.101257324
1601387750405,509,0.083496094,-0.9158325,0.16815186
1601387750406,510,-0.024169922,-1.1240845,0.17523193
1601387750408,511,0.055664062,-0.9248657,0.20355225
1601387750408,512,-0.15991211,-1.3389282,0.022399902
1601387750408,513,0.055664062,-0.9248657,0.20355225
1601387750409,514,0.118652344,-1.0100708,0.101257324
1601387750409,515,0.055664062,-0.9248657,0.20355225
1601387750412,516,-0.1928711,-1.0559692,-0.013244629
1601387750415,517,0.083496094,-0.9158325,0.16815186
1601387750436,518,0.055664062,-0.9248657,0.20355225
1601387750436,519,-0.024169922,-1.1240845,0.17523193
1601387750437,520,0.118652344,-1.0100708,0.101257324
1601387750438,521,-0.15991211,-1.3389282,0.022399902
1601387750441,522,-0.024169922,-1.1240845,0.17523193
1601387750442,523,0.118652344,-1.0100708,0.101257324
1601387750443,524,0.118652344,-1.0100708,0.101257324
1601387750444,525,-0.1928711,-1.0559692,-0.013244629
1601387750445,526,-0.12866211,-0.942688,-0.011779785
1601387750445,527,0.118652344,-1.0100708,0.101257324
1601387750446,528,-0.15991211,-1.3389282,0.022399902
1601387750447,529,-0.12866211,-0.942688,-0.011779785
1601387750447,530,-0.1928711,-1.0559692,-0.013244629
1601387750448,531,-0.024169922,-1.1240845,0.17523193
1601387750448,532,-0.024169922,-1.1240845,0.17523193
1601387750449,533,-0.024169922,-1.1240845,0.17523193
1601387750449,534,-0.21777344,-0.92974854,-0.014465332
1601387750450,535,-0.21777344,-0.92974854,-0.014465332
1601387750451,536,-0.12866211,-0.942688,-0.011779785
1601387750452,537,-0.17504883,-1.017395,-0.037902832
1601387750452,538,-0.15991211,-1.3389282,0.022399902
1601387750453,539,-0.19946289,-1.0808716,0.008972168
1601387750453,540,-0.17504883,-1.017395,-0.037902832
1601387750454,541,-0.15991211,-1.3389282,0.022399902
1601387750455,542,-0.21777344,-0.92974854,-0.014465332
1601387750462,543,-0.1928711,-1.0559692,-0.013244629
1601387750462,544,-0.15991211,-1.3389282,0.022399902
1601387750462,545,-0.1928711,-1.0559692,-0.013244629
1601387750463,546,-0.1928711,-1.0559692,-0.013244629
1601387750463,547,-0.17504883,-1.017395,-0.037902832
1601387750463,548,-0.20507812,-1.0274048,0.022644043
1601387750471,549,-0.12866211,-0.942688,-0.011779785
1601387750471,550,-0.12866211,-0.942688,-0.011779785
1601387750471,551,-0.19946289,-1.0808716,0.008972168
1601387750471,552,-0.12866211,-0.942688,-0.011779785
1601387750471,553,-0.20507812,-1.0274048,0.022644043
1601387750472,554,-0.21777344,-0.92974854,-0.014465332
1601387750474,555,-0.21777344,-0.92974854,-0.014465332
1601387750487,556,-0.17700195,-1.0213013,0.029968262
1601387750487,557,-0.19946289,-1.0808716,0.008972168
1601387750488,558,-0.17700195,-1.0213013,0.029968262
1601387750488,559,-0.17504883,-1.017395,-0.037902832
1601387750489,560,-0.19262695,-1.0447388,0.031921387
1601387750498,561,-0.19946289,-1.0808716,0.008972168
1601387750498,562,-0.19262695,-1.0447388,0.031921387
1601387750498,563,-0.20507812,-1.0274048,0.022644043
1601387750498,564,-0.16796875,-1.0090942,0.038024902
1601387750498,565,-0.21777344,-0.92974854,-0.014465332
1601387750498,566,-0.2019043,-1.0755005,0.097351074
1601387750499,567,-0.099853516,-1.1133423,0.10296631
1601387750499,568,-0.20507812,-1.0274048,0.022644043
1601387750499,569,-0.17700195,-1.0213013,0.029968262
1601387750499,570,-0.17504883,-1.017395,-0.037902832
1601387750500,571,-0.19262695,-1.0447388,0.031921387
1601387750500,572,-0.19946289,-1.0808716,0.008972168
1601387750500,573,-0.17700195,-1.0213013,0.029968262
1601387750503,574,-0.17504883,-1.017395,-0.037902832
1601387750505,575,-0.19946289,-1.0808716,0.008972168
1601387750506,576,-0.20507812,-1.0274048,0.022644043
1601387750518,577,-0.16796875,-1.0090942,0.038024902
1601387750518,578,-0.06738281,-0.89923096,0.020446777
1601387750519,579,-0.19262695,-1.0447388,0.031921387
1601387750519,580,-0.20507812,-1.0274048,0.022644043
1601387750519,581,-0.16796875,-1.0090942,0.038024902
1601387750522,582,-0.17700195,-1.0213013,0.029968262
1601387750522,583,-0.2019043,-1.0755005,0.097351074
1601387750526,584,-0.16796875,-1.0090942,0.038024902
1601387750526,585,-0.2019043,-1.0755005,0.097351074
1601387750527,586,-0.09033203,-0.98321533,0.074157715
1601387750527,587,-0.19262695,-1.0447388,0.031921387
1601387750527,588,-0.17700195,-1.0213013,0.029968262
1601387750534,589,-0.2019043,-1.0755005,0.097351074
1601387750534,590,-0.099853516,-1.1133423,0.10296631
1601387750535,591,-0.052490234,-1.0703735,0.17791748
1601387750535,592,-0.099853516,-1.1133423,0.10296631
1601387750536,593,-0.16796875,-1.0090942,0.038024902
1601387750536,594,-0.19262695,-1.0447388,0.031921387
1601387750548,595,-0.099853516,-1.1133423,0.10296631
1601387750548,596,-0.06738281,-0.89923096,0.020446777
1601387750548,597,0.04711914,-1.0713501,0.16595459
1601387750548,598,-0.2019043,-1.0755005,0.097351074
1601387750549,599,-0.16796875,-1.0090942,0.038024902
1601387750549,600,-0.06738281,-0.89923096,0.020446777
1601387750549,601,-0.2019043,-1.0755005,0.097351074
1601387750552,602,-0.06738281,-0.89923096,0.020446777
1601387750553,603,0.048828125,-0.9915161,0.14715576
1601387750565,604,-0.09033203,-0.98321533,0.074157715
1601387750566,605,-0.09033203,-0.98321533,0.074157715
1601387750566,606,-0.099853516,-1.1133423,0.10296631
1601387750567,607,-0.099853516,-1.1133423,0.10296631
1601387750568,608,-0.06738281,-0.89923096,0.020446777
1601387750569,609,-0.09033203,-0.98321533,0.074157715
1601387750569,610,0.075683594,-1.0183716,0.1239624
1601387750570,611,-0.052490234,-1.0703735,0.17791748
1601387750571,612,-0.09033203,-0.98321533,0.074157715
1601387750572,613,-0.06738281,-0.89923096,0.020446777
1601387750587,614,-0.052490234,-1.0703735,0.17791748
1601387750588,615,0.04711914,-1.0713501,0.16595459
1601387750588,616,-0.052490234,-1.0703735,0.17791748
1601387750588,617,0.021240234,-1.0088501,0.13641357
1601387750588,618,0.048828125,-0.9915161,0.14715576
1601387750590,619,-0.09033203,-0.98321533,0.074157715
1601387750590,620,-0.052490234,-1.0703735,0.17791748
1601387750590,621,0.04711914,-1.0713501,0.16595459
1601387750590,622,-0.01953125,-0.9961548,0.1449585
1601387750591,623,0.04711914,-1.0713501,0.16595459
1601387750591,624,0.048828125,-0.9915161,0.14715576
1601387750591,625,-0.052490234,-1.0703735,0.17791748
1601387750592,626,0.04711914,-1.0713501,0.16595459
1601387750592,627,0.048828125,-0.9915161,0.14715576
1601387750592,628,0.075683594,-1.0183716,0.1239624
1601387750592,629,0.075683594,-1.0183716,0.1239624
1601387750592,630,0.04711914,-1.0713501,0.16595459
1601387750592,631,0.048828125,-0.9915161,0.14715576
1601387750592,632,0.075683594,-1.0183716,0.1239624
1601387750600,633,0.075683594,-1.0183716,0.1239624
1601387750600,634,0.021240234,-1.0088501,0.13641357
1601387750600,635,0.021240234,-1.0088501,0.13641357
1601387750601,636,0.048828125,-0.9915161,0.14715576
1601387750601,637,-0.013671875,-0.9956665,0.19451904
1601387750602,638,0.021240234,-1.0088501,0.13641357
1601387750607,639,0.021240234,-1.0088501,0.13641357
1601387750608,640,-0.01953125,-0.9961548,0.1449585
1601387750608,641,-0.01953125,-0.9961548,0.1449585
1601387750608,642,0.075683594,-1.0183716,0.1239624
1601387750609,643,-0.013671875,-0.9956665,0.19451904
1601387750609,644,0.021240234,-1.0088501,0.13641357
1601387750615,645,-0.01953125,-0.9961548,0.1449585
1601387750615,646,-0.013671875,-0.9956665,0.19451904
1601387750615,647,-0.0014648438,-1.0681763,0.19647217
1601387750616,648,-0.01953125,-0.9961548,0.1449585
1601387750617,649,-0.0014648438,-1.0681763,0.19647217
1601387750618,650,-0.013671875,-0.9956665,0.19451904
1601387750622,651,-0.013671875,-0.9956665,0.19451904
1601387750622,652,-0.0014648438,-1.0681763,0.19647217
1601387750623,653,-0.17822266,-1.0459595,0.12176514
1601387750623,654,-0.01953125,-0.9961548,0.1449585
1601387750623,655,-0.17822266,-1.0459595,0.12176514
1601387750623,656,-0.0014648438,-1.0681763,0.19647217
1601387750624,657,-0.13623047,-0.9536743,0.078308105
1601387750624,658,-0.17822266,-1.0459595,0.12176514
1601387750629,659,-0.013671875,-0.9956665,0.19451904
1601387750629,660,-0.13623047,-0.9536743,0.078308105
1601387750630,661,-0.17822266,-1.0459595,0.12176514
1601387750630,662,-0.19042969,-0.9800415,0.08294678
1601387750631,663,-0.0014648438,-1.0681763,0.19647217
1601387750631,664,-0.13623047,-0.9536743,0.078308105
1601387750636,665,-0.0014648438,-1.0681763,0.19647217
1601387750636,666,-0.19042969,-0.9800415,0.08294678
1601387750636,667,-0.13623047,-0.9536743,0.078308105
1601387750636,668,-0.21166992,-1.1484985,0.07269287
1601387750636,669,-0.21166992,-1.1484985,0.07269287
1601387750637,670,-0.17822266,-1.0459595,0.12176514
1601387750638,671,-0.17822266,-1.0459595,0.12176514
1601387750639,672,-0.22363281,-1.0574341,0.15106201
1601387750646,673,-0.13623047,-0.9536743,0.078308105
1601387750646,674,-0.19042969,-0.9800415,0.08294678
1601387750647,675,-0.19042969,-0.9800415,0.08294678
1601387750647,676,-0.13623047,-0.9536743,0.078308105
1601387750647,677,-0.21166992,-1.1484985,0.07269287
1601387750648,678,-0.19042969,-0.9800415,0.08294678
1601387750648,679,-0.19042969,-0.9800415,0.08294678
1601387750648,680,-0.21166992,-1.1484985,0.07269287
1601387750648,681,-0.22363281,-1.0574341,0.15106201
1601387750652,682,-0.21166992,-1.1484985,0.07269287
1601387750652,683,-0.21166992,-1.1484985,0.07269287
1601387750652,684,-0.22363281,-1.0574341,0.15106201
1601387750653,685,-0.22363281,-1.0574341,0.15106201
1601387750656,686,-0.22363281,-1.0574341,0.15106201
1601387750657,687,-0.22363281,-1.0574341,0.15106201
1601387752970,688,-0.21459961,-0.92755127,0.08392334
1601387752976,689,-0.21459961,-0.92755127,0.08392334
1601387752976,690,-0.21459961,-0.92755127,0.08392334
1601387752976,691,-0.23828125,-0.9981079,0.121032715
1601387752977,692,-0.21459961,-0.92755127,0.08392334
1601387752989,693,-0.21459961,-0.92755127,0.08392334
1601387752989,694,-0.23828125,-0.9981079,0.121032715
1601387752990,695,-0.24121094,-1.0247192,0.17303467
1601387752991,696,-0.24121094,-1.0247192,0.17303467
1601387752992,697,-0.23828125,-0.9981079,0.121032715
1601387752992,698,-0.21459961,-0.92755127,0.08392334
1601387752993,699,-0.23828125,-0.9981079,0.121032715
1601387752994,700,-0.23828125,-0.9981079,0.121032715
1601387752995,701,-0.2253418,-0.9871216,0.20843506
1601387752996,702,-0.24121094,-1.0247192,0.17303467
1601387753000,703,-0.24121094,-1.0247192,0.17303467
1601387753009,704,-0.24121094,-1.0247192,0.17303467
1601387753010,705,-0.2253418,-0.9871216,0.20843506
1601387753012,706,-0.2253418,-0.9871216,0.20843506
1601387753012,707,-0.23852539,-0.9541626,0.21038818
1601387753013,708,-0.23852539,-0.9541626,0.21038818
1601387753014,709,-0.2253418,-0.9871216,0.20843506
1601387753014,710,-0.20336914,-1.0244751,0.2645874
1601387753014,711,-0.2253418,-0.9871216,0.20843506
1601387753015,712,-0.23852539,-0.9541626,0.21038818
1601387753016,713,-0.23828125,-0.9981079,0.121032715
1601387753036,714,-0.23852539,-0.9541626,0.21038818
1601387753038,715,-0.103759766,-1.2720337,0.24212646
1601387753039,716,-0.20336914,-1.0244751,0.2645874
1601387753039,717,-0.23852539,-0.9541626,0.21038818
1601387753040,718,-0.20336914,-1.0244751,0.2645874
1601387753040,719,-0.24121094,-1.0247192,0.17303467
1601387753041,720,-0.20336914,-1.0244751,0.2645874
1601387753041,721,-0.20336914,-1.0244751,0.2645874
1601387753041,722,-0.04296875,-0.8777466,0.09588623
1601387753043,723,-0.103759766,-1.2720337,0.24212646
1601387753044,724,0.12426758,-0.9180298,-0.016418457
1601387753044,725,-0.103759766,-1.2720337,0.24212646
1601387753045,726,-0.04296875,-0.8777466,0.09588623
1601387753047,727,-0.103759766,-1.2720337,0.24212646
1601387753047,728,-0.103759766,-1.2720337,0.24212646
1601387753048,729,-0.04296875,-0.8777466,0.09588623
1601387753048,730,-0.0034179688,-1.1707153,0.19134521
1601387753052,731,0.12426758,-0.9180298,-0.016418457
1601387753052,732,-0.04296875,-0.8777466,0.09588623
1601387753054,733,-0.04296875,-0.8777466,0.09588623
1601387753056,734,-0.048095703,-0.95977783,0.18426514
1601387753058,735,-0.03173828,-0.91973877,0.22357178
1601387753060,736,0.12426758,-0.9180298,-0.016418457
1601387753074,737,-0.0034179688,-1.1707153,0.19134521
1601387753075,738,-0.2253418,-0.9871216,0.20843506
1601387753075,739,0.12426758,-0.9180298,-0.016418457
1601387753076,740,0.010009766,-0.95684814,0.2230835
1601387753077,741,-0.0034179688,-1.1707153,0.19134521
1601387753078,742,-0.0034179688,-1.1707153,0.19134521
1601387753079,743,-0.048095703,-0.95977783,0.18426514
1601387753079,744,-0.048095703,-0.95977783,0.18426514
1601387753081,745,-0.23852539,-0.9541626,0.21038818
1601387753081,746,-0.03173828,-0.91973877,0.22357178
1601387753082,747,-0.03173828,-0.91973877,0.22357178
1601387753083,748,-0.007080078,-0.99053955,0.18109131
1601387753084,749,-0.048095703,-0.95977783,0.18426514
1601387753085,750,0.12426758,-0.9180298,-0.016418457
1601387753086,751,0.010009766,-0.95684814,0.2230835
1601387753096,752,-0.20336914,-1.0244751,0.2645874
1601387753096,753,0.010009766,-0.95684814,0.2230835
1601387753097,754,-0.028320312,-0.9734497,0.24700928
1601387753097,755,-0.03173828,-0.91973877,0.22357178
1601387753097,756,-0.0034179688,-1.1707153,0.19134521
1601387753097,757,-0.007080078,-0.99053955,0.18109131
1601387753099,758,-0.103759766,-1.2720337,0.24212646
1601387753106,759,-0.04296875,-0.8777466,0.09588623
1601387753106,760,0.010009766,-0.95684814,0.2230835
1601387753106,761,-0.048095703,-0.95977783,0.18426514
1601387753106,762,-0.007080078,-0.99053955,0.18109131
1601387753109,763,-0.007080078,-0.99053955,0.18109131
1601387753109,764,-0.07910156,-1.2002563,0.15179443
1601387753110,765,-0.028320312,-0.9734497,0.24700928
1601387753122,766,-0.028320312,-0.9734497,0.24700928
1601387753123,767,0.12426758,-0.9180298,-0.016418457
1601387753123,768,-0.0034179688,-1.1707153,0.19134521
1601387753123,769,-0.07910156,-1.2002563,0.15179443
1601387753123,770,-0.048095703,-0.95977783,0.18426514
1601387753124,771,-0.07910156,-1.2002563,0.15179443
1601387753125,772,-0.03173828,-0.91973877,0.22357178
1601387753126,773,-0.03173828,-0.91973877,0.22357178
1601387753133,774,-0.061767578,-1.3799438,0.12713623
1601387753133,775,-0.061767578,-1.3799438,0.12713623
1601387753133,776,-0.028320312,-0.9734497,0.24700928
1601387753134,777,0.010009766,-0.95684814,0.2230835
1601387753134,778,-0.061767578,-1.3799438,0.12713623
1601387753134,779,0.010009766,-0.95684814,0.2230835
1601387753136,780,-0.08569336,-0.7647095,0.07928467
1601387753137,781,-0.08569336,-0.7647095,0.07928467
1601387753141,782,-0.007080078,-0.99053955,0.18109131
1601387753141,783,-0.007080078,-0.99053955,0.18109131
1601387753142,784,-0.028320312,-0.9734497,0.24700928
1601387753142,785,-0.08569336,-0.7647095,0.07928467
1601387753144,786,-0.028320312,-0.9734497,0.24700928
1601387753145,787,-0.1381836,-0.8399048,-0.15924072
1601387753156,788,-0.07910156,-1.2002563,0.15179443
1601387753157,789,-0.1381836,-0.8399048,-0.15924072
1601387753157,790,-0.07910156,-1.2002563,0.15179443
1601387753158,791,-0.07910156,-1.2002563,0.15179443
1601387753159,792,-0.20263672,-1.2258911,0.07562256
1601387753159,793,-0.1381836,-0.8399048,-0.15924072
1601387753159,794,-0.20092773,-0.99102783,0.124938965
1601387753159,795,-0.061767578,-1.3799438,0.12713623
1601387753160,796,-0.08569336,-0.7647095,0.07928467
1601387753160,797,-0.061767578,-1.3799438,0.12713623
1601387753160,798,-0.20263672,-1.2258911,0.07562256
1601387753160,799,-0.08569336,-0.7647095,0.07928467
1601387753161,800,-0.21240234,-0.9092407,0.08343506
1601387753161,801,-0.20263672,-1.2258911,0.07562256
1601387753165,802,-0.20092773,-0.99102783,0.124938965
1601387753165,803,-0.1381836,-0.8399048,-0.15924072
1601387753165,804,-0.061767578,-1.3799438,0.12713623
1601387753165,805,-0.21240234,-0.9092407,0.08343506
1601387753166,806,-0.20092773,-0.99102783,0.124938965
1601387753166,807,-0.19042969,-0.96881104,0.09613037
1601387753168,808,-0.1381836,-0.8399048,-0.15924072
1601387753169,809,-0.08569336,-0.7647095,0.07928467
1601387753176,810,-0.21240234,-0.9092407,0.08343506
1601387753176,811,-0.22167969,-1.0288696,0.12054443
1601387753177,812,-0.20263672,-1.2258911,0.07562256
1601387753177,813,-0.0925293,-1.2861938,0.24407959
1601387753177,814,-0.19042969,-0.96881104,0.09613037
1601387753177,815,-0.1381836,-0.8399048,-0.15924072
1601387753177,816,-0.22167969,-1.0288696,0.12054443
1601387753178,817,-0.19042969,-0.96881104,0.09613037
1601387753178,818,-0.20263672,-1.2258911,0.07562256
1601387753178,819,-0.20092773,-0.99102783,0.124938965
1601387753181,820,0.010253906,-1.2107544,0.08343506
1601387753210,821,-0.20263672,-1.2258911,0.07562256
1601387753211,822,-0.0925293,-1.2861938,0.24407959
1601387753212,823,-0.20092773,-0.99102783,0.124938965
1601387753213,824,-0.22167969,-1.0288696,0.12054443
1601387753213,825,-0.21240234,-0.9092407,0.08343506
1601387753213,826,0.011962891,-0.73883057,-0.13140869
1601387753214,827,-0.20092773,-0.99102783,0.124938965
1601387753215,828,0.010253906,-1.2107544,0.08343506
1601387753215,829,-0.21240234,-0.9092407,0.08343506
1601387753216,830,-0.21240234,-0.9092407,0.08343506
1601387753217,831,-0.19042969,-0.96881104,0.09613037
1601387753218,832,-0.19042969,-0.96881104,0.09613037
1601387753218,833,0.09082031,-1.1404419,0.082458496
1601387753219,834,-0.22167969,-1.0288696,0.12054443
1601387753220,835,-0.0925293,-1.2861938,0.24407959
1601387753221,836,0.011962891,-0.73883057,-0.13140869
1601387753222,837,-0.22167969,-1.0288696,0.12054443
1601387753223,838,-0.010498047,-0.97784424,0.16033936
1601387753224,839,0.09082031,-1.1404419,0.082458496
1601387753224,840,-0.0925293,-1.2861938,0.24407959
1601387753225,841,-0.010498047,-0.97784424,0.16033936
1601387753226,842,0.010253906,-1.2107544,0.08343506
1601387753227,843,-0.19042969,-0.96881104,0.09613037
1601387753228,844,-0.0925293,-1.2861938,0.24407959
1601387753228,845,-0.0546875,-0.91485596,0.16253662
1601387753229,846,0.010253906,-1.2107544,0.08343506
1601387753230,847,0.010253906,-1.2107544,0.08343506
1601387753231,848,0.011962891,-0.73883057,-0.13140869
1601387753232,849,0.011962891,-0.73883057,-0.13140869
1601387753232,850,-0.22167969,-1.0288696,0.12054443
1601387753234,851,-0.037353516,-0.927063,0.19891357
1601387753243,852,-0.0546875,-0.91485596,0.16253662
1601387753243,853,0.011962891,-0.73883057,-0.13140869
1601387753244,854,0.09082031,-1.1404419,0.082458496
1601387753246,855,-0.06616211,-0.9312134,0.19598389
1601387753247,856,-0.0925293,-1.2861938,0.24407959
1601387753247,857,0.09082031,-1.1404419,0.082458496
1601387753248,858,-0.037353516,-0.927063,0.19891357
1601387753259,859,0.09082031,-1.1404419,0.082458496
1601387753259,860,-0.010498047,-0.97784424,0.16033936
1601387753259,861,0.010253906,-1.2107544,0.08343506
1601387753259,862,-0.010498047,-0.97784424,0.16033936
1601387753259,863,-0.06616211,-0.9312134,0.19598389
1601387753262,864,-0.0546875,-0.91485596,0.16253662
1601387753263,865,-0.010498047,-0.97784424,0.16033936
1601387753263,866,0.011962891,-0.73883057,-0.13140869
1601387753263,867,-0.0546875,-0.91485596,0.16253662
1601387753267,868,-0.037353516,-0.927063,0.19891357
1601387753268,869,-0.0546875,-0.91485596,0.16253662
1601387753269,870,0.09082031,-1.1404419,0.082458496
1601387753270,871,-0.037353516,-0.927063,0.19891357
1601387753272,872,-0.06616211,-0.9312134,0.19598389
1601387753272,873,-0.037353516,-0.927063,0.19891357
1601387753277,874,-0.06616211,-0.9312134,0.19598389
1601387753278,875,-0.010498047,-0.97784424,0.16033936
1601387753279,876,-0.06616211,-0.9312134,0.19598389
1601387753285,877,-0.0546875,-0.91485596,0.16253662
1601387753286,878,-0.037353516,-0.927063,0.19891357
1601387753288,879,-0.06616211,-0.9312134,0.19598389
1601387755388,880,-0.09301758,-1.0015259,0.19769287
1601387755388,881,-0.09301758,-1.0015259,0.19769287
1601387755389,882,-0.09301758,-1.0015259,0.19769287
1601387755389,883,-0.09301758,-1.0015259,0.19769287
1601387755390,884,-0.09301758,-1.0015259,0.19769287
1601387755391,885,-0.09301758,-1.0015259,0.19769287
1601387755392,886,-0.21948242,-1.4058228,0.21697998
1601387755392,887,-0.21948242,-1.4058228,0.21697998
1601387755393,888,-0.21948242,-1.4058228,0.21697998
1601387755393,889,-0.21948242,-1.4058228,0.21697998
1601387755394,890,-0.21948242,-1.4058228,0.21697998
1601387755395,891,-0.14746094,-1.2654419,0.14569092
1601387755395,892,-0.21948242,-1.4058228,0.21697998
1601387755396,893,-0.14746094,-1.2654419,0.14569092
1601387755397,894,-0.14746094,-1.2654419,0.14569092
1601387755397,895,-0.14746094,-1.2654419,0.14569092
1601387755398,896,-0.024169922,-0.5803833,-0.09625244
1601387755399,897,-0.14746094,-1.2654419,0.14569092
1601387755405,898,-0.024169922,-0.5803833,-0.09625244
1601387755405,899,-0.024169922,-0.5803833,-0.09625244
1601387755410,900,-0.122558594,-1.0881958,-0.046447754
1601387755411,901,-0.122558594,-1.0881958,-0.046447754
1601387755412,902,-0.14746094,-1.2654419,0.14569092
1601387755412,903,-0.122558594,-1.0881958,-0.046447754
1601387755413,904,-0.19824219,-1.2002563,0.13153076
1601387755414,905,-0.19824219,-1.2002563,0.13153076
1601387755415,906,-0.024169922,-0.5803833,-0.09625244
1601387755417,907,-0.19824219,-1.2002563,0.13153076
1601387755419,908,-0.15527344,-0.9607544,0.12420654
1601387755421,909,-0.024169922,-0.5803833,-0.09625244
1601387755423,910,-0.122558594,-1.0881958,-0.046447754
1601387755424,911,-0.19824219,-1.2002563,0.13153076
1601387755426,912,-0.122558594,-1.0881958,-0.046447754
1601387755428,913,-0.19824219,-1.2002563,0.13153076
1601387755439,914,-0.15527344,-0.9607544,0.12420654
1601387755439,915,-0.15527344,-0.9607544,0.12420654
1601387755439,916,-0.15527344,-0.9607544,0.12420654
1601387755440,917,-0.024169922,-0.5803833,-0.09625244
1601387755440,918,-0.15893555,-0.90045166,0.06707764
1601387755440,919,-0.15893555,-0.90045166,0.06707764
1601387755440,920,-0.14990234,-0.96588135,0.09979248
1601387755440,921,-0.15893555,-0.90045166,0.06707764
1601387755441,922,-0.15893555,-0.90045166,0.06707764
1601387755441,923,-0.15527344,-0.9607544,0.12420654
1601387755441,924,-0.122558594,-1.0881958,-0.046447754
1601387755449,925,-0.14990234,-0.96588135,0.09979248
1601387755450,926,-0.15307617,-1.0317993,0.13543701
1601387755451,927,-0.14990234,-0.96588135,0.09979248
1601387755451,928,-0.14990234,-0.96588135,0.09979248
1601387755451,929,-0.15893555,-0.90045166,0.06707764
1601387755452,930,-0.19824219,-1.2002563,0.13153076
1601387755463,931,-0.15307617,-1.0317993,0.13543701
1601387755463,932,-0.07299805,-1.2300415,0.2489624
1601387755464,933,-0.15307617,-1.0317993,0.13543701
1601387755465,934,-0.07299805,-1.2300415,0.2489624
1601387755465,935,-0.14990234,-0.96588135,0.09979248
1601387755466,936,-0.15527344,-0.9607544,0.12420654
1601387755467,937,-0.15307617,-1.0317993,0.13543701
1601387755468,938,-0.0021972656,-1.1465454,0.14544678
1601387755468,939,-0.07299805,-1.2300415,0.2489624
1601387755469,940,-0.0021972656,-1.1465454,0.14544678
1601387755471,941,-0.036865234,-0.8088989,0.03265381
1601387755502,942,-0.07299805,-1.2300415,0.2489624
1601387755502,943,-0.036865234,-0.8088989,0.03265381
1601387755503,944,-0.15893555,-0.90045166,0.06707764
1601387755503,945,-0.0021972656,-1.1465454,0.14544678
1601387755504,946,-0.15307617,-1.0317993,0.13543701
1601387755505,947,0.005859375,-1.0234985,0.12591553
1601387755505,948,-0.07299805,-1.2300415,0.2489624
1601387755506,949,-0.0021972656,-1.1465454,0.14544678
1601387755507,950,0.005859375,-1.0234985,0.12591553
1601387755508,951,-0.14990234,-0.96588135,0.09979248
1601387755509,952,-0.0021972656,-1.1465454,0.14544678
1601387755509,953,0.05908203,-1.0801392,0.19744873
1601387755510,954,-0.15307617,-1.0317993,0.13543701
1601387755515,955,-0.036865234,-0.8088989,0.03265381
1601387755515,956,-0.07299805,-1.2300415,0.2489624
1601387755515,957,0.05908203,-1.0801392,0.19744873
1601387755516,958,-0.064453125,-0.9260864,0.19012451
1601387755516,959,-0.036865234,-0.8088989,0.03265381
1601387755516,960,-0.064453125,-0.9260864,0.19012451
1601387755516,961,0.005859375,-1.0234985,0.12591553
1601387755517,962,0.005859375,-1.0234985,0.12591553
1601387755517,963,-0.06640625,-0.9619751,0.2062378
1601387755517,964,-0.0021972656,-1.1465454,0.14544678
1601387755524,965,-0.036865234,-0.8088989,0.03265381
1601387755524,966,0.05908203,-1.0801392,0.19744873
1601387755525,967,-0.06640625,-0.9619751,0.2062378
1601387755525,968,-0.064453125,-0.9260864,0.19012451
1601387755525,969,-0.10522461,-0.9573364,0.22137451
1601387755525,970,0.05908203,-1.0801392,0.19744873
1601387755531,971,0.005859375,-1.0234985,0.12591553
1601387755531,972,-0.10522461,-0.9573364,0.22137451
1601387755531,973,-0.036865234,-0.8088989,0.03265381
1601387755532,974,-0.06640625,-0.9619751,0.2062378
1601387755532,975,-0.064453125,-0.9260864,0.19012451
1601387755532,976,-0.057128906,-0.9883423,0.16864014
1601387755533,977,0.05908203,-1.0801392,0.19744873
1601387755534,978,0.005859375,-1.0234985,0.12591553
1601387755538,979,-0.06640625,-0.9619751,0.2062378
1601387755538,980,-0.014892578,-1.0422974,0.16229248
1601387755539,981,-0.057128906,-0.9883423,0.16864014
1601387755539,982,-0.107666016,-1.1438599,0.22406006
1601387755539,983,-0.10522461,-0.9573364,0.22137451
1601387755539,984,0.05908203,-1.0801392,0.19744873
1601387755544,985,-0.064453125,-0.9260864,0.19012451
1601387755545,986,-0.014892578,-1.0422974,0.16229248
1601387755545,987,-0.10522461,-0.9573364,0.22137451
1601387755545,988,-0.057128906,-0.9883423,0.16864014
1601387755545,989,-0.064453125,-0.9260864,0.19012451
1601387755546,990,-0.18774414,-1.1392212,0.10394287
1601387755547,991,-0.014892578,-1.0422974,0.16229248
1601387755552,992,-0.107666016,-1.1438599,0.22406006
1601387755552,993,-0.057128906,-0.9883423,0.16864014
1601387755553,994,-0.06640625,-0.9619751,0.2062378
1601387755553,995,-0.22949219,-1.0134888,0.094177246
1601387755553,996,-0.06640625,-0.9619751,0.2062378
1601387755553,997,-0.107666016,-1.1438599,0.22406006
1601387755567,998,-0.18774414,-1.1392212,0.10394287
1601387755567,999,-0.014892578,-1.0422974,0.16229248
1601387755568,1000,-0.10522461,-0.9573364,0.22137451
1601387755568,1001,-0.2097168,-0.7805786,-0.101867676
1601387755568,1002,-0.10522461,-0.9573364,0.22137451
1601387755569,1003,-0.18774414,-1.1392212,0.10394287
1601387755569,1004,-0.057128906,-0.9883423,0.16864014
1601387755569,1005,-0.107666016,-1.1438599,0.22406006
1601387755569,1006,-0.014892578,-1.0422974,0.16229248
1601387755570,1007,-0.057128906,-0.9883423,0.16864014
1601387755570,1008,-0.2824707,-1.1433716,-0.08746338
1601387755570,1009,-0.22949219,-1.0134888,0.094177246
1601387755571,1010,-0.22949219,-1.0134888,0.094177246
1601387755571,1011,-0.25854492,-1.0540161,0.09710693
1601387755571,1012,-0.2097168,-0.7805786,-0.101867676
1601387755571,1013,-0.107666016,-1.1438599,0.22406006
1601387755572,1014,-0.014892578,-1.0422974,0.16229248
1601387755572,1015,-0.2097168,-0.7805786,-0.101867676
1601387755572,1016,-0.18774414,-1.1392212,0.10394287
1601387755573,1017,-0.3647461,-0.92681885,-0.026916504
1601387755575,1018,-0.2824707,-1.1433716,-0.08746338
1601387755580,1019,-0.2824707,-1.1433716,-0.08746338
1601387755581,1020,-0.18774414,-1.1392212,0.10394287
1601387755581,1021,-0.107666016,-1.1438599,0.22406006
1601387755581,1022,-0.35302734,-1.0679321,-0.06719971
1601387755581,1023,-0.18774414,-1.1392212,0.10394287
1601387755582,1024,-0.25854492,-1.0540161,0.09710693
1601387755588,1025,-0.25854492,-1.0540161,0.09710693
1601387755588,1026,-0.35595703,-1.039856,-0.065979004
1601387755589,1027,-0.22949219,-1.0134888,0.094177246
1601387755589,1028,-0.3166504,-0.9973755,-0.07110596
1601387755590,1029,-0.22949219,-1.0134888,0.094177246
1601387755591,1030,-0.3647461,-0.92681885,-0.026916504
1601387755601,1031,-0.3647461,-0.92681885,-0.026916504
1601387755601,1032,-0.2097168,-0.7805786,-0.101867676
1601387755601,1033,-0.22949219,-1.0134888,0.094177246
1601387755601,1034,-0.35302734,-1.0679321,-0.06719971
1601387755602,1035,-0.2097168,-0.7805786,-0.101867676
1601387755602,1036,-0.35302734,-1.0679321,-0.06719971
1601387755603,1037,-0.2824707,-1.1433716,-0.08746338
1601387755603,1038,-0.2824707,-1.1433716,-0.08746338
1601387755603,1039,-0.35595703,-1.039856,-0.065979004
1601387755604,1040,-0.35595703,-1.039856,-0.065979004
1601387755604,1041,-0.3166504,-0.9973755,-0.07110596
1601387755604,1042,-0.3166504,-0.9973755,-0.07110596
1601387755604,1043,-0.25854492,-1.0540161,0.09710693
1601387755605,1044,-0.27734375,-0.99664307,-0.009338379
1601387755611,1045,-0.2097168,-0.7805786,-0.101867676
1601387755613,1046,-0.25854492,-1.0540161,0.09710693
1601387755613,1047,-0.27734375,-0.99664307,-0.009338379
1601387755613,1048,-0.27734375,-0.99664307,-0.009338379
1601387755614,1049,-0.3647461,-0.92681885,-0.026916504
1601387755614,1050,-0.2824707,-1.1433716,-0.08746338
1601387755614,1051,-0.30639648,-0.9741821,-0.003479004
1601387755618,1052,-0.30639648,-0.9741821,-0.003479004
1601387755618,1053,-0.25854492,-1.0540161,0.09710693
1601387755619,1054,-0.3647461,-0.92681885,-0.026916504
1601387755620,1055,-0.35302734,-1.0679321,-0.06719971
1601387755621,1056,-0.30639648,-0.9741821,-0.003479004
1601387755622,1057,-0.35302734,-1.0679321,-0.06719971
1601387755626,1058,-0.3647461,-0.92681885,-0.026916504
1601387755627,1059,-0.35595703,-1.039856,-0.065979004
1601387755627,1060,-0.35595703,-1.039856,-0.065979004
1601387755631,1061,-0.3166504,-0.9973755,-0.07110596
1601387755631,1062,-0.35302734,-1.0679321,-0.06719971
1601387755633,1063,-0.27734375,-0.99664307,-0.009338379
1601387755634,1064,-0.35595703,-1.039856,-0.065979004
1601387755635,1065,-0.30639648,-0.9741821,-0.003479004
1601387755635,1066,-0.3166504,-0.9973755,-0.07110596
1601387755636,1067,-0.3166504,-0.9973755,-0.07110596
1601387755638,1068,-0.27734375,-0.99664307,-0.009338379
1601387755640,1069,-0.27734375,-0.99664307,-0.009338379
1601387755642,1070,-0.30639648,-0.9741821,-0.003479004
1601387755643,1071,-0.30639648,-0.9741821,-0.003479004
1601387757977,1072,-0.26098633,-1.0449829,0.042419434
1601387757977,1073,-0.26098633,-1.0449829,0.042419434
1601387757979,1074,-0.26098633,-1.0449829,0.042419434
1601387757979,1075,-0.26098633,-1.0449829,0.042419434
1601387757980,1076,-0.061035156,-1.1741333,0.1942749
1601387757982,1077,-0.061035156,-1.1741333,0.1942749
1601387757982,1078,-0.26098633,-1.0449829,0.042419434
1601387757983,1079,-0.061035156,-1.1741333,0.1942749
1601387757984,1080,-0.061035156,-1.1741333,0.1942749
1601387757984,1081,-0.061035156,-1.1741333,0.1942749
1601387757996,1082,-0.21044922,-0.87750244,0.07537842
1601387757996,1083,-0.21044922,-0.87750244,0.07537842
1601387757997,1084,-0.26098633,-1.0449829,0.042419434
1601387757997,1085,-0.21044922,-0.87750244,0.07537842
1601387757998,1086,-0.21044922,-0.87750244,0.07537842
1601387757999,1087,-0.21044922,-0.87750244,0.07537842
1601387758000,1088,-0.04248047,-0.9783325,0.1281128
1601387758006,1089,-0.04248047,-0.9783325,0.1281128
1601387758008,1090,-0.061035156,-1.1741333,0.1942749
1601387758008,1091,-0.04248047,-0.9783325,0.1281128
1601387758009,1092,-0.04248047,-0.9783325,0.1281128
1601387758009,1093,-0.04248047,-0.9783325,0.1281128
1601387758010,1094,0.095214844,-1.1768188,0.2255249
1601387758020,1095,0.095214844,-1.1768188,0.2255249
1601387758021,1096,-0.21044922,-0.87750244,0.07537842
1601387758022,1097,0.095214844,-1.1768188,0.2255249
1601387758023,1098,0.095214844,-1.1768188,0.2255249
1601387758024,1099,0.095214844,-1.1768188,0.2255249
1601387758025,1100,0.028808594,-0.987854,0.16766357
1601387758026,1101,0.028808594,-0.987854,0.16766357
1601387758026,1102,0.028808594,-0.987854,0.16766357
1601387758027,1103,0.056640625,-0.9011841,0.14154053
1601387758028,1104,0.056640625,-0.9011841,0.14154053
1601387758029,1105,0.028808594,-0.987854,0.16766357
1601387758029,1106,0.028808594,-0.987854,0.16766357
1601387758030,1107,0.056640625,-0.9011841,0.14154053
1601387758036,1108,0.064941406,-0.9837036,0.1593628
1601387758037,1109,-0.04248047,-0.9783325,0.1281128
1601387758038,1110,0.064941406,-0.9837036,0.1593628
1601387758039,1111,0.056640625,-0.9011841,0.14154053
1601387758039,1112,0.041015625,-0.991272,0.17669678
1601387758040,1113,0.064941406,-0.9837036,0.1593628
1601387758051,1114,0.041015625,-0.991272,0.17669678
1601387758052,1115,0.056640625,-0.9011841,0.14154053
1601387758052,1116,0.095214844,-1.1768188,0.2255249
1601387758053,1117,0.064941406,-0.9837036,0.1593628
1601387758054,1118,-0.0021972656,-0.975647,0.16766357
1601387758055,1119,0.041015625,-0.991272,0.17669678
1601387758055,1120,-0.0021972656,-0.975647,0.16766357
1601387758056,1121,0.028808594,-0.987854,0.16766357
1601387758056,1122,-0.0036621094,-0.9932251,0.16107178
1601387758059,1123,0.041015625,-0.991272,0.17669678
1601387758060,1124,-0.0021972656,-0.975647,0.16766357
1601387758060,1125,0.064941406,-0.9837036,0.1593628
1601387758064,1126,-0.0036621094,-0.9932251,0.16107178
1601387758064,1127,0.056640625,-0.9011841,0.14154053
1601387758065,1128,0.0017089844,-1.0908813,0.19232178
1601387758065,1129,-0.0021972656,-0.975647,0.16766357
1601387758066,1130,-0.0036621094,-0.9932251,0.16107178
1601387758067,1131,0.041015625,-0.991272,0.17669678
1601387758069,1132,0.0017089844,-1.0908813,0.19232178
1601387758070,1133,-0.10180664,-1.3230591,0.11932373
1601387758076,1134,-0.0036621094,-0.9932251,0.16107178
1601387758077,1135,-0.0021972656,-0.975647,0.16766357
1601387758077,1136,0.064941406,-0.9837036,0.1593628
1601387758077,1137,-0.10180664,-1.3230591,0.11932373
1601387758078,1138,0.0017089844,-1.0908813,0.19232178
1601387758081,1139,-0.095214844,-1.0877075,-0.0037231445
1601387758081,1140,0.0017089844,-1.0908813,0.19232178
1601387758086,1141,0.041015625,-0.991272,0.17669678
1601387758086,1142,-0.1538086,-0.7905884,-0.06427002
1601387758086,1143,-0.095214844,-1.0877075,-0.0037231445
1601387758086,1144,-0.10180664,-1.3230591,0.11932373
1601387758086,1145,-0.0036621094,-0.9932251,0.16107178
1601387758087,1146,-0.10180664,-1.3230591,0.11932373
1601387758088,1147,-0.0021972656,-0.975647,0.16766357
1601387758090,1148,-0.1538086,-0.7905884,-0.06427002
1601387758097,1149,-0.095214844,-1.0877075,-0.0037231445
1601387758097,1150,-0.095214844,-1.0877075,-0.0037231445
1601387758098,1151,-0.1538086,-0.7905884,-0.06427002
1601387758098,1152,-0.1538086,-0.7905884,-0.06427002
1601387758100,1153,0.0017089844,-1.0908813,0.19232178
1601387758101,1154,-0.0036621094,-0.9932251,0.16107178
1601387758115,1155,-0.18408203,-1.1182251,0.07147217
1601387758115,1156,-0.18408203,-1.1182251,0.07147217
1601387758115,1157,0.0017089844,-1.0908813,0.19232178
1601387758117,1158,-0.18408203,-1.1182251,0.07147217
1601387758118,1159,-0.10180664,-1.3230591,0.11932373
1601387758121,1160,-0.18408203,-1.1182251,0.07147217
1601387758122,1161,-0.10180664,-1.3230591,0.11932373
1601387758122,1162,-0.20898438,-1.0012817,0.093688965
1601387758136,1163,-0.20898438,-1.0012817,0.093688965
1601387758136,1164,-0.095214844,-1.0877075,-0.0037231445
1601387758136,1165,-0.095214844,-1.0877075,-0.0037231445
1601387758139,1166,-0.20898438,-1.0012817,0.093688965
1601387758139,1167,-0.20898438,-1.0012817,0.093688965
1601387758139,1168,-0.19995117,-0.96661377,0.08050537
1601387758140,1169,-0.1538086,-0.7905884,-0.06427002
1601387758141,1170,-0.19995117,-0.96661377,0.08050537
1601387758141,1171,-0.18408203,-1.1182251,0.07147217
1601387758142,1172,-0.19995117,-0.96661377,0.08050537
1601387758143,1173,-0.19995117,-0.96661377,0.08050537
1601387758145,1174,-0.17553711,-0.9649048,0.08929443
1601387758145,1175,-0.1538086,-0.7905884,-0.06427002
1601387758147,1176,-0.17553711,-0.9649048,0.08929443
1601387758149,1177,-0.16992188,-0.9729614,0.09857178
1601387758150,1178,-0.17553711,-0.9649048,0.08929443
1601387758158,1179,-0.18408203,-1.1182251,0.07147217
1601387758158,1180,-0.20898438,-1.0012817,0.093688965
1601387758159,1181,-0.17553711,-0.9649048,0.08929443
1601387758161,1182,-0.16992188,-0.9729614,0.09857178
1601387758161,1183,-0.19506836,-1.0010376,0.13275146
1601387758161,1184,-0.19506836,-1.0010376,0.13275146
1601387758171,1185,-0.20898438,-1.0012817,0.093688965
1601387758172,1186,-0.16992188,-0.9729614,0.09857178
1601387758172,1187,-0.16992188,-0.9729614,0.09857178
1601387758172,1188,-0.19995117,-0.96661377,0.08050537
1601387758172,1189,-0.19995117,-0.96661377,0.08050537
1601387758173,1190,-0.10498047,-1.2398071,0.23553467
1601387758173,1191,-0.19506836,-1.0010376,0.13275146
1601387758173,1192,-0.10498047,-1.2398071,0.23553467
1601387758173,1193,-0.17553711,-0.9649048,0.08929443
1601387758173,1194,0.08935547,-1.3027954,0.14935303
1601387758174,1195,-0.16992188,-0.9729614,0.09857178
1601387758179,1196,-0.10498047,-1.2398071,0.23553467
1601387758179,1197,-0.19506836,-1.0010376,0.13275146
1601387758182,1198,-0.17553711,-0.9649048,0.08929443
1601387758183,1199,0.018798828,-0.7432251,-0.10235596
1601387758187,1200,0.08935547,-1.3027954,0.14935303
1601387758195,1201,-0.10498047,-1.2398071,0.23553467
1601387758195,1202,-0.19506836,-1.0010376,0.13275146
1601387758196,1203,-0.16992188,-0.9729614,0.09857178
1601387758197,1204,-0.10498047,-1.2398071,0.23553467
1601387758197,1205,0.08935547,-1.3027954,0.14935303
1601387758199,1206,0.08935547,-1.3027954,0.14935303
1601387758208,1207,-0.19506836,-1.0010376,0.13275146
1601387758209,1208,0.042236328,-0.9614868,0.11395264
1601387758210,1209,0.08935547,-1.3027954,0.14935303
1601387758210,1210,0.018798828,-0.7432251,-0.10235596
1601387758211,1211,0.018798828,-0.7432251,-0.10235596
1601387758211,1212,0.018798828,-0.7432251,-0.10235596
1601387758211,1213,0.042236328,-0.9614868,0.11395264
1601387758212,1214,-0.10498047,-1.2398071,0.23553467
1601387758212,1215,0.018798828,-1.09552,0.277771
1601387758212,1216,0.018798828,-0.7432251,-0.10235596
1601387758213,1217,0.042236328,-0.9614868,0.11395264
1601387758213,1218,0.042236328,-0.9614868,0.11395264
1601387758213,1219,0.018798828,-1.09552,0.277771
1601387758228,1220,0.08935547,-1.3027954,0.14935303
1601387758229,1221,-0.056152344,-0.9229126,0.22113037
1601387758229,1222,0.042236328,-0.9614868,0.11395264
1601387758229,1223,0.018798828,-1.09552,0.277771
1601387758230,1224,0.018798828,-1.09552,0.277771
1601387758230,1225,-0.056152344,-0.9229126,0.22113037
1601387758231,1226,-0.013183594,-0.8897095,0.24285889
1601387758231,1227,0.018798828,-0.7432251,-0.10235596
1601387758231,1228,-0.053466797,-0.94610596,0.22918701
1601387758231,1229,-0.013183594,-0.8897095,0.24285889
1601387758232,1230,-0.08886719,-1.0303345,0.19281006
1601387758232,1231,-0.056152344,-0.9229126,0.22113037
1601387758232,1232,-0.0949707,-1.0964966,0.2579956
1601387758233,1233,0.018798828,-1.09552,0.277771
1601387758233,1234,-0.080078125,-1.3049927,0.13739014
1601387758233,1235,-0.053466797,-0.94610596,0.22918701
1601387758235,1236,-0.056152344,-0.9229126,0.22113037
1601387758248,1237,-0.013183594,-0.8897095,0.24285889
1601387758248,1238,0.042236328,-0.9614868,0.11395264
1601387758249,1239,-0.08886719,-1.0303345,0.19281006
1601387758249,1240,-0.056152344,-0.9229126,0.22113037
1601387758250,1241,-0.0949707,-1.0964966,0.2579956
1601387758250,1242,-0.013183594,-0.8897095,0.24285889
1601387758251,1243,-0.013183594,-0.8897095,0.24285889
1601387758251,1244,-0.053466797,-0.94610596,0.22918701
1601387758252,1245,0.018798828,-1.09552,0.277771
1601387758252,1246,-0.053466797,-0.94610596,0.22918701
1601387758252,1247,-0.056152344,-0.9229126,0.22113037
1601387758253,1248,-0.080078125,-1.3049927,0.13739014
1601387758253,1249,-0.053466797,-0.94610596,0.22918701
1601387758254,1250,-0.08886719,-1.0303345,0.19281006
1601387758254,1251,-0.08886719,-1.0303345,0.19281006
1601387758256,1252,-0.013183594,-0.8897095,0.24285889
1601387758258,1253,-0.0949707,-1.0964966,0.2579956
1601387758260,1254,-0.08886719,-1.0303345,0.19281006
1601387758261,1255,-0.0949707,-1.0964966,0.2579956
1601387758263,1256,-0.080078125,-1.3049927,0.13739014
1601387758264,1257,-0.053466797,-0.94610596,0.22918701
1601387758270,1258,-0.0949707,-1.0964966,0.2579956
1601387758271,1259,-0.080078125,-1.3049927,0.13739014
1601387758271,1260,-0.08886719,-1.0303345,0.19281006
1601387758271,1261,-0.080078125,-1.3049927,0.13739014
1601387758272,1262,-0.0949707,-1.0964966,0.2579956
1601387758274,1263,-0.080078125,-1.3049927,0.13739014
1601387760670,1264,-0.080566406,-0.98443604,0.066833496
1601387760671,1265,-0.080566406,-0.98443604,0.066833496
1601387760676,1266,-0.080566406,-0.98443604,0.066833496
1601387760677,1267,-0.080566406,-0.98443604,0.066833496
1601387760677,1268,-0.13354492,-0.91192627,0.020690918
1601387760695,1269,-0.080566406,-0.98443604,0.066833496
1601387760696,1270,-0.13354492,-0.91192627,0.020690918
1601387760697,1271,-0.13354492,-0.91192627,0.020690918
1601387760698,1272,-0.080566406,-0.98443604,0.066833496
1601387760700,1273,-0.16992188,-1.092102,0.098083496
1601387760700,1274,-0.16992188,-1.092102,0.098083496
1601387760701,1275,-0.13354492,-0.91192627,0.020690918
1601387760701,1276,-0.13354492,-0.91192627,0.020690918
1601387760701,1277,-0.16992188,-1.092102,0.098083496
1601387760702,1278,-0.13354492,-0.91192627,0.020690918
1601387760703,1279,-0.2084961,-0.97198486,0.15814209
1601387760704,1280,-0.2084961,-0.97198486,0.15814209
1601387760704,1281,-0.16992188,-1.092102,0.098083496
1601387760706,1282,-0.16992188,-1.092102,0.098083496
1601387760707,1283,-0.16992188,-1.092102,0.098083496
1601387760707,1284,-0.2084961,-0.97198486,0.15814209
1601387760708,1285,-0.1784668,-0.9536743,0.1618042
1601387760713,1286,-0.1784668,-0.9536743,0.1618042
1601387760713,1287,-0.2084961,-0.97198486,0.15814209
1601387760714,1288,-0.2084961,-0.97198486,0.15814209
1601387760716,1289,-0.17260742,-0.96221924,0.17645264
1601387760729,1290,-0.2084961,-0.97198486,0.15814209
1601387760729,1291,-0.1784668,-0.9536743,0.1618042
1601387760730,1292,-0.17260742,-0.96221924,0.17645264
1601387760731,1293,-0.1784668,-0.9536743,0.1618042
1601387760733,1294,-0.1784668,-0.9536743,0.1618042
1601387760734,1295,-0.19458008,-0.98565674,0.1876831
1601387760735,1296,-0.1394043,-1.0869751,0.24920654
1601387760735,1297,-0.1784668,-0.9536743,0.1618042
1601387760735,1298,-0.19458008,-0.98565674,0.1876831
1601387760735,1299,-0.17260742,-0.96221924,0.17645264
1601387760736,1300,-0.17260742,-0.96221924,0.17645264
1601387760738,1301,-0.17260742,-0.96221924,0.17645264
1601387760742,1302,-0.19458008,-0.98565674,0.1876831
1601387760744,1303,-0.1394043,-1.0869751,0.24920654
1601387760750,1304,-0.19458008,-0.98565674,0.1876831
1601387760750,1305,-0.19458008,-0.98565674,0.1876831
1601387760750,1306,-0.17260742,-0.96221924,0.17645264
1601387760751,1307,-0.01953125,-1.2241821,0.21575928
1601387760752,1308,-0.1394043,-1.0869751,0.24920654
1601387760752,1309,-0.1394043,-1.0869751,0.24920654
1601387760757,1310,-0.1394043,-1.0869751,0.24920654
1601387760757,1311,-0.19458008,-0.98565674,0.1876831
1601387760758,1312,-0.01953125,-1.2241821,0.21575928
1601387760758,1313,0.034423828,-0.9800415,0.074645996
1601387760759,1314,-0.01953125,-1.2241821,0.21575928
1601387760760,1315,-0.01953125,-1.2241821,0.21575928
1601387760767,1316,-0.1394043,-1.0869751,0.24920654
1601387760767,1317,-0.01953125,-1.2241821,0.21575928
1601387760767,1318,0.034423828,-0.9800415,0.074645996
1601387760767,1319,0.017089844,-0.8538208,0.038269043
1601387760768,1320,0.034423828,-0.9800415,0.074645996
1601387760768,1321,0.034423828,-0.9800415,0.074645996
1601387760771,1322,-0.01953125,-1.2241821,0.21575928
1601387760772,1323,0.034423828,-0.9800415,0.074645996
1601387760772,1324,0.017089844,-0.8538208,0.038269043
1601387760778,1325,0.017089844,-0.8538208,0.038269043
1601387760779,1326,0.017089844,-0.8538208,0.038269043
1601387760781,1327,0.017089844,-0.8538208,0.038269043
1601387760781,1328,0.032958984,-1.229065,0.22650146
1601387760781,1329,0.032958984,-1.229065,0.22650146
1601387760783,1330,0.034423828,-0.9800415,0.074645996
1601387760794,1331,0.032958984,-1.229065,0.22650146
1601387760794,1332,0.032958984,-1.229065,0.22650146
1601387760794,1333,0.032958984,-1.229065,0.22650146
1601387760794,1334,-0.025634766,-0.9151001,0.20233154
1601387760795,1335,-0.025634766,-0.9151001,0.20233154
1601387760795,1336,0.017089844,-0.8538208,0.038269043
1601387760795,1337,0.0031738281,-0.9517212,0.2501831
1601387760796,1338,-0.025634766,-0.9151001,0.20233154
1601387760796,1339,-0.025634766,-0.9151001,0.20233154
1601387760796,1340,-0.025634766,-0.9151001,0.20233154
1601387760797,1341,0.0031738281,-0.9517212,0.2501831
1601387760804,1342,0.032958984,-1.229065,0.22650146
1601387760804,1343,-0.0014648438,-0.9487915,0.22454834
1601387760804,1344,0.0031738281,-0.9517212,0.2501831
1601387760805,1345,0.0031738281,-0.9517212,0.2501831
1601387760805,1346,0.0031738281,-0.9517212,0.2501831
1601387760805,1347,-0.0014648438,-0.9487915,0.22454834
1601387760814,1348,-0.025634766,-0.9151001,0.20233154
1601387760815,1349,-0.0014648438,-0.9487915,0.22454834
1601387760815,1350,-0.013183594,-0.96954346,0.20257568
1601387760816,1351,-0.0014648438,-0.9487915,0.22454834
1601387760816,1352,-0.0014648438,-0.9487915,0.22454834
1601387760816,1353,-0.013183594,-0.96954346,0.20257568
1601387760821,1354,0.0031738281,-0.9517212,0.2501831
1601387760827,1355,0.01171875,-0.98101807,0.20037842
1601387760828,1356,-0.013183594,-0.96954346,0.20257568
1601387760828,1357,-0.013183594,-0.96954346,0.20257568
1601387760829,1358,0.01171875,-0.98101807,0.20037842
1601387760830,1359,-0.013183594,-0.96954346,0.20257568
1601387760831,1360,-0.0014648438,-0.9487915,0.22454834
1601387760837,1361,-0.02368164,-1.0042114,0.26556396
1601387760837,1362,0.01171875,-0.98101807,0.20037842
1601387760838,1363,0.01171875,-0.98101807,0.20037842
1601387760839,1364,-0.02368164,-1.0042114,0.26556396
1601387760839,1365,-0.013183594,-0.96954346,0.20257568
1601387760840,1366,0.01171875,-0.98101807,0.20037842
1601387760847,1367,-0.0073242188,-1.1887817,0.19476318
1601387760849,1368,-0.02368164,-1.0042114,0.26556396
1601387760849,1369,-0.0073242188,-1.1887817,0.19476318
1601387760850,1370,-0.02368164,-1.0042114,0.26556396
1601387760851,1371,-0.02368164,-1.0042114,0.26556396
1601387760851,1372,0.01171875,-0.98101807,0.20037842
1601387760852,1373,-0.0073242188,-1.1887817,0.19476318
1601387760856,1374,-0.09399414,-1.053772,0.2514038
1601387760856,1375,-0.14526367,-0.8760376,0.1005249
1601387760863,1376,-0.0073242188,-1.1887817,0.19476318
1601387760863,1377,-0.0073242188,-1.1887817,0.19476318
1601387760864,1378,-0.09399414,-1.053772,0.2514038
1601387760866,1379,-0.09399414,-1.053772,0.2514038
1601387760866,1380,-0.02368164,-1.0042114,0.26556396
1601387760866,1381,-0.14526367,-0.8760376,0.1005249
1601387760869,1382,-0.09399414,-1.053772,0.2514038
1601387760874,1383,-0.14526367,-0.8760376,0.1005249
1601387760875,1384,-0.14526367,-0.8760376,0.1005249
1601387760875,1385,-0.23803711,-1.0352173,0.0758667
1601387760875,1386,-0.23803711,-1.0352173,0.0758667
1601387760875,1387,-0.09399414,-1.053772,0.2514038
1601387760876,1388,-0.0073242188,-1.1887817,0.19476318
1601387760885,1389,-0.23803711,-1.0352173,0.0758667
1601387760886,1390,-0.23803711,-1.0352173,0.0758667
1601387760887,1391,-0.2529297,-1.1314087,0.184021
1601387760887,1392,-0.2529297,-1.1314087,0.184021
1601387760888,1393,-0.14526367,-0.8760376,0.1005249
1601387760889,1394,-0.09399414,-1.053772,0.2514038
1601387760890,1395,-0.19311523,-0.92437744,0.12030029
1601387760891,1396,-0.2529297,-1.1314087,0.184021
1601387760892,1397,-0.2529297,-1.1314087,0.184021
1601387760892,1398,-0.19311523,-0.92437744,0.12030029
1601387760893,1399,-0.19311523,-0.92437744,0.12030029
1601387760896,1400,-0.14526367,-0.8760376,0.1005249
1601387760902,1401,-0.20166016,-0.9702759,0.11590576
1601387760903,1402,-0.23803711,-1.0352173,0.0758667
1601387760904,1403,-0.20166016,-0.9702759,0.11590576
1601387760905,1404,-0.19311523,-0.92437744,0.12030029
1601387760905,1405,-0.20166016,-0.9702759,0.11590576
1601387760907,1406,-0.23803711,-1.0352173,0.0758667
1601387760909,1407,-0.20117188,-0.98272705,0.070739746
1601387760936,1408,-0.23339844,-1.0183716,0.13909912
1601387760936,1409,-0.20117188,-0.98272705,0.070739746
1601387760937,1410,-0.20166016,-0.9702759,0.11590576
1601387760938,1411,-0.2529297,-1.1314087,0.184021
1601387760939,1412,-0.2529297,-1.1314087,0.184021
1601387760940,1413,-0.20117188,-0.98272705,0.070739746
1601387760940,1414,-0.19311523,-0.92437744,0.12030029
1601387760941,1415,-0.03491211,-1.2227173,0.22894287
1601387760942,1416,-0.23339844,-1.0183716,0.13909912
1601387760942,1417,-0.20117188,-0.98272705,0.070739746
1601387760943,1418,-0.03491211,-1.2227173,0.22894287
1601387760944,1419,-0.23339844,-1.0183716,0.13909912
1601387760945,1420,-0.051513672,-0.94195557,0.12298584
1601387760945,1421,-0.20166016,-0.9702759,0.11590576
1601387760947,1422,-0.051513672,-0.94195557,0.12298584
1601387760949,1423,-0.20117188,-0.98272705,0.070739746
1601387760950,1424,-0.19311523,-0.92437744,0.12030029
1601387760951,1425,-0.23339844,-1.0183716,0.13909912
1601387760952,1426,-0.03491211,-1.2227173,0.22894287
1601387760952,1427,-0.23339844,-1.0183716,0.13909912
1601387760963,1428,0.043701172,-0.93218994,0.11248779
1601387760964,1429,-0.20166016,-0.9702759,0.11590576
1601387760965,1430,0.043701172,-0.93218994,0.11248779
1601387760966,1431,0.1003418,-0.9981079,0.04925537
1601387760966,1432,-0.20117188,-0.98272705,0.070739746
1601387760968,1433,-0.03491211,-1.2227173,0.22894287
1601387760968,1434,-0.23339844,-1.0183716,0.13909912
1601387760969,1435,-0.051513672,-0.94195557,0.12298584
1601387760970,1436,0.1003418,-0.9981079,0.04925537
1601387760971,1437,-0.03491211,-1.2227173,0.22894287
1601387760971,1438,0.080322266,-1.1812134,0.14593506
1601387760976,1439,-0.051513672,-0.94195557,0.12298584
1601387760980,1440,0.043701172,-0.93218994,0.11248779
1601387760980,1441,-0.051513672,-0.94195557,0.12298584
1601387760980,1442,0.1003418,-0.9981079,0.04925537
1601387760981,1443,-0.03491211,-1.2227173,0.22894287
1601387760981,1444,0.043701172,-0.93218994,0.11248779
1601387760982,1445,0.043701172,-0.93218994,0.11248779
1601387760988,1446,0.080322266,-1.1812134,0.14593506
1601387760988,1447,0.1003418,-0.9981079,0.04925537
1601387760988,1448,0.080322266,-1.1812134,0.14593506
1601387760988,1449,0.1003418,-0.9981079,0.04925537
1601387760990,1450,0.080322266,-1.1812134,0.14593506
1601387760994,1451,-0.051513672,-0.94195557,0.12298584
1601387760994,1452,0.080322266,-1.1812134,0.14593506
1601387760996,1453,0.043701172,-0.93218994,0.11248779
1601387761000,1454,0.1003418,-0.9981079,0.04925537
1601387761002,1455,0.080322266,-1.1812134,0.14593506
1601387763280,1456,-0.037109375,-0.9631958,0.16595459
1601387763281,1457,-0.037109375,-0.9631958,0.16595459
1601387763282,1458,-0.037109375,-0.9631958,0.16595459
1601387763283,1459,-0.037109375,-0.9631958,0.16595459
1601387763284,1460,-0.025634766,-0.9348755,0.199646
1601387763285,1461,-0.025634766,-0.9348755,0.199646
1601387763286,1462,-0.037109375,-0.9631958,0.16595459
1601387763287,1463,-0.025634766,-0.9348755,0.199646
1601387763288,1464,-0.025634766,-0.9348755,0.199646
1601387763289,1465,-0.025634766,-0.9348755,0.199646
1601387763292,1466,0.030029297,-1.0603638,0.2033081
1601387763295,1467,-0.037109375,-0.9631958,0.16595459
1601387763295,1468,0.030029297,-1.0603638,0.2033081
1601387763297,1469,0.030029297,-1.0603638,0.2033081
1601387763300,1470,0.00390625,-1.0164185,0.20550537
1601387763301,1471,0.030029297,-1.0603638,0.2033081
1601387763307,1472,0.00390625,-1.0164185,0.20550537
1601387763307,1473,0.00390625,-1.0164185,0.20550537
1601387763307,1474,-0.025634766,-0.9348755,0.199646
1601387763308,1475,-7.324219E-4,-0.98443604,0.18597412
1601387763309,1476,0.00390625,-1.0164185,0.20550537
1601387763311,1477,-7.324219E-4,-0.98443604,0.18597412
1601387763314,1478,0.030029297,-1.0603638,0.2033081
1601387763316,1479,-0.009033203,-1.048645,0.16815186
1601387763318,1480,-0.10620117,-1.1323853,0.18719482
1601387763319,1481,-0.009033203,-1.048645,0.16815186
1601387763328,1482,-7.324219E-4,-0.98443604,0.18597412
1601387763329,1483,-7.324219E-4,-0.98443604,0.18597412
1601387763329,1484,0.030029297,-1.0603638,0.2033081
1601387763330,1485,-0.009033203,-1.048645,0.16815186
1601387763331,1486,0.00390625,-1.0164185,0.20550537
1601387763332,1487,-7.324219E-4,-0.98443604,0.18597412
1601387763334,1488,-0.009033203,-1.048645,0.16815186
1601387763341,1489,-0.10620117,-1.1323853,0.18719482
1601387763343,1490,0.00390625,-1.0164185,0.20550537
1601387763344,1491,-0.10620117,-1.1323853,0.18719482
1601387763345,1492,-7.324219E-4,-0.98443604,0.18597412
1601387763346,1493,-0.10473633,-0.9319458,0.14788818
1601387763347,1494,-0.10620117,-1.1323853,0.18719482
1601387763348,1495,-0.009033203,-1.048645,0.16815186
1601387763351,1496,-0.10473633,-0.9319458,0.14788818
1601387763353,1497,-0.099121094,-1.0117798,0.07366943
1601387763355,1498,-0.23413086,-1.0684204,0.078552246
1601387763357,1499,-0.21533203,-1.0361938,0.06976318
1601387763359,1500,-0.24951172,-1.0015259,0.07904053
1601387763374,1501,-0.10620117,-1.1323853,0.18719482
1601387763375,1502,-0.009033203,-1.048645,0.16815186
1601387763375,1503,-0.099121094,-1.0117798,0.07366943
1601387763376,1504,-0.10473633,-0.9319458,0.14788818
1601387763377,1505,-0.10473633,-0.9319458,0.14788818
1601387763377,1506,-0.21704102,-0.9956665,0.04901123
1601387763377,1507,-0.099121094,-1.0117798,0.07366943
1601387763379,1508,-0.10473633,-0.9319458,0.14788818
1601387763379,1509,-0.10620117,-1.1323853,0.18719482
1601387763380,1510,-0.099121094,-1.0117798,0.07366943
1601387763381,1511,-0.10473633,-0.9319458,0.14788818
1601387763382,1512,-0.19213867,-1.0488892,0.06561279
1601387763383,1513,-0.099121094,-1.0117798,0.07366943
1601387763385,1514,-0.099121094,-1.0117798,0.07366943
1601387763385,1515,-0.23413086,-1.0684204,0.078552246
1601387763403,1516,-0.16845703,-1.0169067,0.08782959
1601387763403,1517,-0.23413086,-1.0684204,0.078552246
1601387763404,1518,-0.23413086,-1.0684204,0.078552246
1601387763405,1519,-0.17382812,-0.99835205,0.08270264
1601387763406,1520,-0.23413086,-1.0684204,0.078552246
1601387763407,1521,-0.12890625,-1.1231079,0.10076904
1601387763408,1522,-0.23413086,-1.0684204,0.078552246
1601387763408,1523,-0.21533203,-1.0361938,0.06976318
1601387763409,1524,-0.078125,-1.1011353,0.14593506
1601387763412,1525,-0.21533203,-1.0361938,0.06976318
1601387763413,1526,-0.21533203,-1.0361938,0.06976318
1601387763413,1527,-0.21533203,-1.0361938,0.06976318
1601387763413,1528,-0.21533203,-1.0361938,0.06976318
1601387763413,1529,-0.049316406,-0.9192505,0.082214355
1601387763413,1530,-0.24951172,-1.0015259,0.07904053
1601387763413,1531,-0.24951172,-1.0015259,0.07904053
1601387763414,1532,-0.24951172,-1.0015259,0.07904053
1601387763415,1533,-0.24951172,-1.0015259,0.07904053
1601387763422,1534,-0.24951172,-1.0015259,0.07904053
1601387763422,1535,0.023925781,-0.99420166,0.10028076
1601387763422,1536,-0.21704102,-0.9956665,0.04901123
1601387763423,1537,-0.21704102,-0.9956665,0.04901123
1601387763423,1538,-0.21704102,-0.9956665,0.04901123
1601387763424,1539,-0.21704102,-0.9956665,0.04901123
1601387763433,1540,0.063964844,-1.0686646,0.121032715
1601387763434,1541,-0.19213867,-1.0488892,0.06561279
1601387763435,1542,-0.21704102,-0.9956665,0.04901123
1601387763437,1543,0.046142578,-0.94781494,0.14642334
1601387763437,1544,-0.19213867,-1.0488892,0.06561279
1601387763437,1545,-0.19213867,-1.0488892,0.06561279
1601387763438,1546,-0.19213867,-1.0488892,0.06561279
1601387763438,1547,-0.16845703,-1.0169067,0.08782959
1601387763439,1548,-0.19213867,-1.0488892,0.06561279
1601387763439,1549,-0.17382812,-0.99835205,0.08270264
1601387763441,1550,0.07739258,-1.0303345,0.19866943
1601387763443,1551,-0.16845703,-1.0169067,0.08782959
1601387763446,1552,-0.17382812,-0.99835205,0.08270264
1601387763468,1553,-0.16845703,-1.0169067,0.08782959
1601387763469,1554,0.06567383,-0.9783325,0.18353271
1601387763469,1555,-0.16845703,-1.0169067,0.08782959
1601387763469,1556,-0.16845703,-1.0169067,0.08782959
1601387763470,1557,-0.12890625,-1.1231079,0.10076904
1601387763470,1558,-0.12890625,-1.1231079,0.10076904
1601387763471,1559,-0.078125,-1.1011353,0.14593506
1601387763472,1560,-0.078125,-1.1011353,0.14593506
1601387763472,1561,0.052490234,-0.9505005,0.18890381
1601387763473,1562,-0.17382812,-0.99835205,0.08270264
1601387763473,1563,-0.17382812,-0.99835205,0.08270264
1601387763475,1564,-0.12890625,-1.1231079,0.10076904
1601387763475,1565,-0.17382812,-0.99835205,0.08270264
1601387763478,1566,-0.078125,-1.1011353,0.14593506
1601387763480,1567,-0.049316406,-0.9192505,0.082214355
1601387763480,1568,-0.049316406,-0.9192505,0.082214355
1601387763480,1569,-0.12890625,-1.1231079,0.10076904
1601387763480,1570,0.04663086,-0.9932251,0.1437378
1601387763480,1571,-0.049316406,-0.9192505,0.082214355
1601387763480,1572,-0.12890625,-1.1231079,0.10076904
1601387763484,1573,0.023925781,-0.99420166,0.10028076
1601387763486,1574,-0.078125,-1.1011353,0.14593506
1601387763491,1575,-0.049316406,-0.9192505,0.082214355
1601387763492,1576,0.023925781,-0.99420166,0.10028076
1601387763492,1577,0.063964844,-1.0686646,0.121032715
1601387763504,1578,-0.078125,-1.1011353,0.14593506
1601387763505,1579,0.023925781,-0.99420166,0.10028076
1601387763506,1580,0.023925781,-0.99420166,0.10028076
1601387763506,1581,0.063964844,-1.0686646,0.121032715
1601387763507,1582,-0.01928711,-1.2007446,0.16668701
1601387763508,1583,0.046142578,-0.94781494,0.14642334
1601387763508,1584,-0.24658203,-0.99786377,0.077819824
1601387763509,1585,-0.049316406,-0.9192505,0.082214355
1601387763511,1586,0.063964844,-1.0686646,0.121032715
1601387763511,1587,0.063964844,-1.0686646,0.121032715
1601387763513,1588,0.07739258,-1.0303345,0.19866943
1601387763515,1589,0.06567383,-0.9783325,0.18353271
1601387763516,1590,0.052490234,-0.9505005,0.18890381
1601387763518,1591,0.04663086,-0.9932251,0.1437378
1601387763520,1592,0.023925781,-0.99420166,0.10028076
1601387763522,1593,0.063964844,-1.0686646,0.121032715
1601387763528,1594,0.046142578,-0.94781494,0.14642334
1601387763529,1595,-0.01928711,-1.2007446,0.16668701
1601387763530,1596,0.046142578,-0.94781494,0.14642334
1601387763531,1597,0.046142578,-0.94781494,0.14642334
1601387763532,1598,0.046142578,-0.94781494,0.14642334
1601387763532,1599,-0.21606445,-0.819397,-0.01373291
1601387763533,1600,0.07739258,-1.0303345,0.19866943
1601387763536,1601,-0.24658203,-0.99786377,0.077819824
1601387763541,1602,0.06567383,-0.9783325,0.18353271
1601387763541,1603,0.07739258,-1.0303345,0.19866943
1601387763541,1604,-0.24291992,-1.1438599,-0.05670166
1601387763543,1605,0.06567383,-0.9783325,0.18353271
1601387763544,1606,0.07739258,-1.0303345,0.19866943
1601387763544,1607,-0.21606445,-0.819397,-0.01373291
1601387763561,1608,0.07739258,-1.0303345,0.19866943
1601387763561,1609,-0.2409668,-1.1240845,0.09320068
1601387763561,1610,0.052490234,-0.9505005,0.18890381
1601387763562,1611,-0.26220703,-0.9146118,0.015808105
1601387763562,1612,0.06567383,-0.9783325,0.18353271
1601387763562,1613,-0.24291992,-1.1438599,-0.05670166
1601387763563,1614,0.052490234,-0.9505005,0.18890381
1601387763563,1615,0.052490234,-0.9505005,0.18890381
1601387763563,1616,0.04663086,-0.9932251,0.1437378
1601387763563,1617,0.04663086,-0.9932251,0.1437378
1601387763564,1618,-0.01928711,-1.2007446,0.16668701
1601387763564,1619,-0.2409668,-1.1240845,0.09320068
1601387763565,1620,0.06567383,-0.9783325,0.18353271
1601387763565,1621,0.04663086,-0.9932251,0.1437378
1601387763565,1622,-0.24658203,-0.99786377,0.077819824
1601387763575,1623,-0.26220703,-0.9146118,0.015808105
1601387763579,1624,-0.01928711,-1.2007446,0.16668701
1601387763579,1625,-0.01928711,-1.2007446,0.16668701
1601387763580,1626,0.052490234,-0.9505005,0.18890381
1601387763580,1627,-0.21606445,-0.819397,-0.01373291
1601387763580,1628,0.04663086,-0.9932251,0.1437378
1601387763580,1629,-0.24658203,-0.99786377,0.077819824
1601387763582,1630,-0.24291992,-1.1438599,-0.05670166
1601387763582,1631,-0.24658203,-0.99786377,0.077819824
1601387763583,1632,-0.01928711,-1.2007446,0.16668701
1601387763585,1633,-0.24658203,-0.99786377,0.077819824
1601387763588,1634,-0.21606445,-0.819397,-0.01373291
1601387763590,1635,-0.21606445,-0.819397,-0.01373291
1601387763593,1636,-0.2409668,-1.1240845,0.09320068
1601387763593,1637,-0.24291992,-1.1438599,-0.05670166
1601387763596,1638,-0.24291992,-1.1438599,-0.05670166
1601387763598,1639,-0.2409668,-1.1240845,0.09320068
1601387763600,1640,-0.26220703,-0.9146118,0.015808105
1601387763603,1641,-0.21606445,-0.819397,-0.01373291
1601387763609,1642,-0.24291992,-1.1438599,-0.05670166
1601387763610,1643,-0.26220703,-0.9146118,0.015808105
1601387763611,1644,-0.2409668,-1.1240845,0.09320068
1601387763611,1645,-0.26220703,-0.9146118,0.015808105
1601387763614,1646,-0.2409668,-1.1240845,0.09320068
1601387763617,1647,-0.26220703,-0.9146118,0.015808105
1601387765873,1648,-0.24633789,-1.0188599,0.005065918
1601387765873,1649,-0.24633789,-1.0188599,0.005065918
1601387765873,1650,-0.24633789,-1.0188599,0.005065918
1601387765874,1651,-0.25341797,-1.1240845,0.027038574
1601387765876,1652,-0.25341797,-1.1240845,0.027038574
1601387765878,1653,-0.24633789,-1.0188599,0.005065918
1601387765880,1654,-0.25341797,-1.1240845,0.027038574
1601387765883,1655,-0.16210938,-1.1953735,0.047546387
1601387765885,1656,-0.25341797,-1.1240845,0.027038574
1601387765887,1657,-0.16210938,-1.1953735,0.047546387
1601387765888,1658,-0.16210938,-1.1953735,0.047546387
1601387765900,1659,-0.24633789,-1.0188599,0.005065918
1601387765902,1660,-0.24633789,-1.0188599,0.005065918
1601387765902,1661,-0.16210938,-1.1953735,0.047546387
1601387765902,1662,0.001953125,-0.85284424,-0.06817627
1601387765903,1663,0.001953125,-0.85284424,-0.06817627
1601387765904,1664,0.001953125,-0.85284424,-0.06817627
1601387765906,1665,0.06738281,-1.0603638,0.004333496
1601387765906,1666,-0.25341797,-1.1240845,0.027038574
1601387765907,1667,0.001953125,-0.85284424,-0.06817627
1601387765908,1668,-0.25341797,-1.1240845,0.027038574
1601387765908,1669,0.06738281,-1.0603638,0.004333496
1601387765909,1670,0.06738281,-1.0603638,0.004333496
1601387765912,1671,-0.051757812,-1.1089478,0.12884521
1601387765919,1672,0.0031738281,-0.91485596,0.11956787
1601387765919,1673,-0.16210938,-1.1953735,0.047546387
1601387765920,1674,-0.051757812,-1.1089478,0.12884521
1601387765922,1675,-0.16210938,-1.1953735,0.047546387
1601387765922,1676,0.06738281,-1.0603638,0.004333496
1601387765923,1677,0.001953125,-0.85284424,-0.06817627
1601387765933,1678,0.036376953,-0.940979,0.15179443
1601387765934,1679,0.001953125,-0.85284424,-0.06817627
1601387765934,1680,0.0031738281,-0.91485596,0.11956787
1601387765937,1681,-0.051757812,-1.1089478,0.12884521
1601387765937,1682,-0.051757812,-1.1089478,0.12884521
1601387765937,1683,0.06738281,-1.0603638,0.004333496
1601387765941,1684,0.06738281,-1.0603638,0.004333496
1601387765948,1685,0.018066406,-0.9590454,0.16693115
1601387765948,1686,0.036376953,-0.940979,0.15179443
1601387765948,1687,0.0031738281,-0.91485596,0.11956787
1601387765949,1688,-0.051757812,-1.1089478,0.12884521
1601387765949,1689,0.0031738281,-0.91485596,0.11956787
1601387765951,1690,-0.051757812,-1.1089478,0.12884521
1601387765953,1691,-0.0026855469,-1.0093384,0.13470459
1601387765954,1692,-0.0029296875,-1.1223755,0.14569092
1601387765972,1693,0.036376953,-0.940979,0.15179443
1601387765972,1694,0.0031738281,-0.91485596,0.11956787
1601387765973,1695,0.018066406,-0.9590454,0.16693115
1601387765974,1696,0.036376953,-0.940979,0.15179443
1601387765975,1697,0.0031738281,-0.91485596,0.11956787
1601387765976,1698,-0.0026855469,-1.0093384,0.13470459
1601387765976,1699,0.036376953,-0.940979,0.15179443
1601387765977,1700,0.018066406,-0.9590454,0.16693115
1601387765978,1701,-0.0029296875,-1.1223755,0.14569092
1601387765979,1702,0.018066406,-0.9590454,0.16693115
1601387765979,1703,-0.08081055,-1.2737427,0.04486084
1601387765980,1704,-0.0026855469,-1.0093384,0.13470459
1601387765981,1705,0.036376953,-0.940979,0.15179443
1601387765982,1706,-0.0026855469,-1.0093384,0.13470459
1601387765983,1707,-0.08081055,-1.2737427,0.04486084
1601387765983,1708,0.018066406,-0.9590454,0.16693115
1601387765984,1709,-0.049560547,-1.0337524,-0.043518066
1601387765987,1710,-0.0029296875,-1.1223755,0.14569092
1601387766002,1711,0.018066406,-0.9590454,0.16693115
1601387766002,1712,-0.0026855469,-1.0093384,0.13470459
1601387766003,1713,-0.0029296875,-1.1223755,0.14569092
1601387766004,1714,-0.0026855469,-1.0093384,0.13470459
1601387766005,1715,-0.049560547,-1.0337524,-0.043518066
1601387766006,1716,-0.08081055,-1.2737427,0.04486084
1601387766007,1717,-0.12939453,-0.94122314,-0.13970947
1601387766007,1718,-0.12939453,-0.94122314,-0.13970947
1601387766008,1719,-0.0029296875,-1.1223755,0.14569092
1601387766009,1720,-0.20092773,-1.0838013,0.002380371
1601387766009,1721,-0.20092773,-1.0838013,0.002380371
1601387766011,1722,-0.1850586,-0.9607544,-3.0517578E-4
1601387766011,1723,-0.049560547,-1.0337524,-0.043518066
1601387766012,1724,-0.08081055,-1.2737427,0.04486084
1601387766015,1725,-0.1850586,-0.9607544,-3.0517578E-4
1601387766018,1726,-0.08081055,-1.2737427,0.04486084
1601387766019,1727,-0.1940918,-1.0088501,0.01727295
1601387766019,1728,-0.0029296875,-1.1223755,0.14569092
1601387766019,1729,-0.049560547,-1.0337524,-0.043518066
1601387766020,1730,-0.049560547,-1.0337524,-0.043518066
1601387766020,1731,-0.1940918,-1.0088501,0.01727295
1601387766026,1732,-0.12939453,-0.94122314,-0.13970947
1601387766026,1733,-0.20385742,-1.0154419,0.066833496
1601387766026,1734,-0.08081055,-1.2737427,0.04486084
1601387766026,1735,-0.12939453,-0.94122314,-0.13970947
1601387766027,1736,-0.12939453,-0.94122314,-0.13970947
1601387766027,1737,-0.20385742,-1.0154419,0.066833496
1601387766031,1738,-0.21826172,-1.0205688,0.08758545
1601387766037,1739,-0.20092773,-1.0838013,0.002380371
1601387766037,1740,-0.20092773,-1.0838013,0.002380371
1601387766037,1741,-0.21826172,-1.0205688,0.08758545
1601387766039,1742,-0.1850586,-0.9607544,-3.0517578E-4
1601387766039,1743,-0.049560547,-1.0337524,-0.043518066
1601387766041,1744,-0.26538086,-1.0215454,0.14276123
1601387766044,1745,-0.1850586,-0.9607544,-3.0517578E-4
1601387766044,1746,-0.26538086,-1.0215454,0.14276123
1601387766047,1747,-0.12939453,-0.94122314,-0.13970947
1601387766059,1748,-0.20092773,-1.0838013,0.002380371
1601387766059,1749,-0.1940918,-1.0088501,0.01727295
1601387766059,1750,-0.1940918,-1.0088501,0.01727295
1601387766059,1751,-0.1850586,-0.9607544,-3.0517578E-4
1601387766060,1752,-0.20385742,-1.0154419,0.066833496
1601387766060,1753,-0.20385742,-1.0154419,0.066833496
1601387766061,1754,-0.21826172,-1.0205688,0.08758545
1601387766061,1755,-0.21826172,-1.0205688,0.08758545
1601387766061,1756,-0.1940918,-1.0088501,0.01727295
1601387766061,1757,-0.10180664,-1.1768188,0.15985107
1601387766062,1758,-0.10180664,-1.1768188,0.15985107
1601387766062,1759,-0.26538086,-1.0215454,0.14276123
1601387766069,1760,-0.26538086,-1.0215454,0.14276123
1601387766069,1761,-0.20092773,-1.0838013,0.002380371
1601387766070,1762,-0.20385742,-1.0154419,0.066833496
1601387766070,1763,0.076171875,-1.013977,0.086120605
1601387766071,1764,0.076171875,-1.013977,0.086120605
1601387766071,1765,-0.10180664,-1.1768188,0.15985107
1601387766095,1766,-0.10180664,-1.1768188,0.15985107
1601387766096,1767,-0.21826172,-1.0205688,0.08758545
1601387766096,1768,-0.1850586,-0.9607544,-3.0517578E-4
1601387766098,1769,0.033203125,-0.9265747,0.03338623
1601387766098,1770,0.033203125,-0.9265747,0.03338623
1601387766098,1771,0.076171875,-1.013977,0.086120605
1601387766099,1772,0.076171875,-1.013977,0.086120605
1601387766102,1773,0.033203125,-0.9265747,0.03338623
1601387766102,1774,-0.26538086,-1.0215454,0.14276123
1601387766102,1775,-0.1940918,-1.0088501,0.01727295
1601387766103,1776,0.09863281,-1.0193481,0.0770874
1601387766105,1777,0.09863281,-1.0193481,0.0770874
1601387766105,1778,0.033203125,-0.9265747,0.03338623
1601387766105,1779,0.10620117,-1.0015259,0.109802246
1601387766107,1780,0.09863281,-1.0193481,0.0770874
1601387766107,1781,0.061279297,-1.0462036,0.1251831
1601387766107,1782,-0.20385742,-1.0154419,0.066833496
1601387766108,1783,0.10620117,-1.0015259,0.109802246
1601387766108,1784,-0.21826172,-1.0205688,0.08758545
1601387766109,1785,0.09863281,-1.0193481,0.0770874
1601387766110,1786,0.10620117,-1.0015259,0.109802246
1601387766111,1787,0.10620117,-1.0015259,0.109802246
1601387766112,1788,0.056152344,-1.0327759,0.13079834
1601387766113,1789,0.061279297,-1.0462036,0.1251831
1601387766113,1790,0.061279297,-1.0462036,0.1251831
1601387766113,1791,0.063964844,-1.024231,0.12225342
1601387766114,1792,-0.10180664,-1.1768188,0.15985107
1601387766131,1793,0.061279297,-1.0462036,0.1251831
1601387766131,1794,-0.26538086,-1.0215454,0.14276123
1601387766131,1795,0.068603516,-1.005188,0.12542725
1601387766131,1796,0.056152344,-1.0327759,0.13079834
1601387766132,1797,0.076171875,-1.013977,0.086120605
1601387766132,1798,0.056152344,-1.0327759,0.13079834
1601387766132,1799,0.033203125,-0.9265747,0.03338623
1601387766132,1800,0.05444336,-0.9976196,0.13470459
1601387766132,1801,-0.10180664,-1.1768188,0.15985107
1601387766133,1802,0.063964844,-1.024231,0.12225342
1601387766133,1803,0.056152344,-1.0327759,0.13079834
1601387766133,1804,0.068603516,-1.005188,0.12542725
1601387766133,1805,0.063964844,-1.024231,0.12225342
1601387766133,1806,0.09863281,-1.0193481,0.0770874
1601387766133,1807,0.07495117,-1.0405884,0.11029053
1601387766134,1808,0.076171875,-1.013977,0.086120605
1601387766143,1809,0.05444336,-0.9976196,0.13470459
1601387766143,1810,0.063964844,-1.024231,0.12225342
1601387766144,1811,0.068603516,-1.005188,0.12542725
1601387766144,1812,0.07495117,-1.0405884,0.11029053
1601387766144,1813,-0.03930664,-1.1338501,0.109069824
1601387766144,1814,0.033203125,-0.9265747,0.03338623
1601387766145,1815,0.068603516,-1.005188,0.12542725
1601387766145,1816,0.09863281,-1.0193481,0.0770874
1601387766146,1817,0.05444336,-0.9976196,0.13470459
1601387766146,1818,-0.03930664,-1.1338501,0.109069824
1601387766152,1819,0.05444336,-0.9976196,0.13470459
1601387766153,1820,0.10620117,-1.0015259,0.109802246
1601387766154,1821,0.07495117,-1.0405884,0.11029053
1601387766155,1822,0.07495117,-1.0405884,0.11029053
1601387766160,1823,0.10620117,-1.0015259,0.109802246
1601387766161,1824,0.061279297,-1.0462036,0.1251831
1601387766161,1825,-0.03930664,-1.1338501,0.109069824
1601387766161,1826,0.056152344,-1.0327759,0.13079834
1601387766165,1827,-0.03930664,-1.1338501,0.109069824
1601387766165,1828,0.061279297,-1.0462036,0.1251831
1601387766167,1829,0.063964844,-1.024231,0.12225342
1601387766169,1830,0.056152344,-1.0327759,0.13079834
1601387766170,1831,0.068603516,-1.005188,0.12542725
1601387766173,1832,0.063964844,-1.024231,0.12225342
1601387766173,1833,0.05444336,-0.9976196,0.13470459
1601387766175,1834,0.068603516,-1.005188,0.12542725
1601387766177,1835,0.05444336,-0.9976196,0.13470459
1601387766178,1836,0.07495117,-1.0405884,0.11029053
1601387766181,1837,0.07495117,-1.0405884,0.11029053
1601387766181,1838,-0.03930664,-1.1338501,0.109069824
1601387766182,1839,-0.03930664,-1.1338501,0.109069824
1601387768471,1840,-0.037353516,-0.9505005,0.09466553
1601387768485,1841,-0.037353516,-0.9505005,0.09466553
1601387768486,1842,-0.037353516,-0.9505005,0.09466553
1601387768488,1843,-0.037353516,-0.9505005,0.09466553
1601387768489,1844,-0.037353516,-0.9505005,0.09466553
1601387768490,1845,-0.060302734,-1.0564575,0.081970215
1601387768490,1846,-0.060302734,-1.0564575,0.081970215
1601387768493,1847,-0.037353516,-0.9505005,0.09466553
1601387768493,1848,-0.060302734,-1.0564575,0.081970215
1601387768495,1849,-0.13623047,-1.010315,0.09222412
1601387768495,1850,-0.060302734,-1.0564575,0.081970215
1601387768506,1851,-0.13623047,-1.010315,0.09222412
1601387768507,1852,-0.060302734,-1.0564575,0.081970215
1601387768508,1853,-0.18408203,-1.0298462,0.08758545
1601387768508,1854,-0.13623047,-1.010315,0.09222412
1601387768509,1855,-0.18408203,-1.0298462,0.08758545
1601387768510,1856,-0.21313477,-1.0405884,0.11053467
1601387768541,1857,-0.060302734,-1.0564575,0.081970215
1601387768541,1858,-0.13623047,-1.010315,0.09222412
1601387768542,1859,-0.21313477,-1.0405884,0.11053467
1601387768542,1860,-0.18408203,-1.0298462,0.08758545
1601387768542,1861,-0.13623047,-1.010315,0.09222412
1601387768543,1862,-0.19628906,-0.9898071,0.11419678
1601387768543,1863,-0.18408203,-1.0298462,0.08758545
1601387768543,1864,-0.13623047,-1.010315,0.09222412
1601387768544,1865,-0.18408203,-1.0298462,0.08758545
1601387768544,1866,-0.19628906,-0.9898071,0.11419678
1601387768544,1867,-0.21313477,-1.0405884,0.11053467
1601387768544,1868,-0.20654297,-1.0198364,0.11444092
1601387768545,1869,-0.19628906,-0.9898071,0.11419678
1601387768545,1870,-0.21313477,-1.0405884,0.11053467
1601387768546,1871,-0.18408203,-1.0298462,0.08758545
1601387768547,1872,-0.21313477,-1.0405884,0.11053467
1601387768547,1873,-0.23706055,-1.0073853,0.120788574
1601387768548,1874,-0.20654297,-1.0198364,0.11444092
1601387768550,1875,-0.19628906,-0.9898071,0.11419678
1601387768566,1876,-0.19628906,-0.9898071,0.11419678
1601387768566,1877,-0.23706055,-1.0073853,0.120788574
1601387768567,1878,-0.20654297,-1.0198364,0.11444092
1601387768569,1879,-0.21313477,-1.0405884,0.11053467
1601387768570,1880,-0.25024414,-0.9854126,0.10736084
1601387768571,1881,-0.23706055,-1.0073853,0.120788574
1601387768572,1882,-0.25024414,-0.9854126,0.10736084
1601387768572,1883,-0.20654297,-1.0198364,0.11444092
1601387768573,1884,-0.19628906,-0.9898071,0.11419678
1601387768573,1885,-0.23706055,-1.0073853,0.120788574
1601387768574,1886,-0.28759766,-1.0254517,0.09075928
1601387768575,1887,-0.20654297,-1.0198364,0.11444092
1601387768576,1888,-0.25024414,-0.9854126,0.10736084
1601387768576,1889,-0.20654297,-1.0198364,0.11444092
1601387768576,1890,-0.28759766,-1.0254517,0.09075928
1601387768583,1891,-0.25024414,-0.9854126,0.10736084
1601387768584,1892,-0.23706055,-1.0073853,0.120788574
1601387768584,1893,-0.28759766,-1.0254517,0.09075928
1601387768584,1894,-0.23706055,-1.0073853,0.120788574
1601387768584,1895,-0.06298828,-1.2207642,0.14642334
1601387768585,1896,-0.06298828,-1.2207642,0.14642334
1601387768585,1897,-0.28759766,-1.0254517,0.09075928
1601387768585,1898,0.060058594,-0.956604,0.03363037
1601387768587,1899,-0.25024414,-0.9854126,0.10736084
1601387768593,1900,0.060058594,-0.956604,0.03363037
1601387768594,1901,-0.06298828,-1.2207642,0.14642334
1601387768595,1902,-0.06298828,-1.2207642,0.14642334
1601387768595,1903,0.071777344,-0.9175415,-0.046936035
1601387768595,1904,-0.25024414,-0.9854126,0.10736084
1601387768595,1905,0.060058594,-0.956604,0.03363037
1601387768596,1906,0.071777344,-0.9175415,-0.046936035
1601387768607,1907,0.060058594,-0.956604,0.03363037
1601387768607,1908,-0.02319336,-1.0154419,-0.0037231445
1601387768607,1909,-0.28759766,-1.0254517,0.09075928
1601387768608,1910,0.071777344,-0.9175415,-0.046936035
1601387768608,1911,-0.28759766,-1.0254517,0.09075928
1601387768608,1912,-0.02319336,-1.0154419,-0.0037231445
1601387768609,1913,-0.06298828,-1.2207642,0.14642334
1601387768609,1914,0.07885742,-1.1682739,0.06121826
1601387768609,1915,0.07885742,-1.1682739,0.06121826
1601387768609,1916,-0.06298828,-1.2207642,0.14642334
1601387768610,1917,0.1418457,-1.0310669,0.0016479492
1601387768610,1918,0.071777344,-0.9175415,-0.046936035
1601387768627,1919,0.060058594,-0.956604,0.03363037
1601387768628,1920,-0.02319336,-1.0154419,-0.0037231445
1601387768628,1921,0.060058594,-0.956604,0.03363037
1601387768628,1922,0.1418457,-1.0310669,0.0016479492
1601387768628,1923,0.119384766,-0.9746704,0.019958496
1601387768629,1924,-0.02319336,-1.0154419,-0.0037231445
1601387768629,1925,0.071777344,-0.9175415,-0.046936035
1601387768629,1926,0.07885742,-1.1682739,0.06121826
1601387768630,1927,0.071777344,-0.9175415,-0.046936035
1601387768630,1928,0.119384766,-0.9746704,0.019958496
1601387768631,1929,0.13623047,-0.99542236,0.030700684
1601387768631,1930,0.13623047,-0.99542236,0.030700684
1601387768631,1931,0.07885742,-1.1682739,0.06121826
1601387768632,1932,-0.02319336,-1.0154419,-0.0037231445
1601387768632,1933,0.09448242,-0.9734497,0.1083374
1601387768632,1934,-0.02319336,-1.0154419,-0.0037231445
1601387768632,1935,0.18286133,-0.9829712,0.073913574
1601387768646,1936,0.1418457,-1.0310669,0.0016479492
1601387768647,1937,0.1418457,-1.0310669,0.0016479492
1601387768647,1938,0.07885742,-1.1682739,0.06121826
1601387768648,1939,0.119384766,-0.9746704,0.019958496
1601387768649,1940,0.07885742,-1.1682739,0.06121826
1601387768650,1941,0.16333008,-1.0317993,0.07611084
1601387768651,1942,0.1418457,-1.0310669,0.0016479492
1601387768651,1943,0.03857422,-1.1560669,0.07196045
1601387768652,1944,0.119384766,-0.9746704,0.019958496
1601387768653,1945,-0.071777344,-0.9356079,0.0758667
1601387768653,1946,0.1418457,-1.0310669,0.0016479492
1601387768656,1947,0.13623047,-0.99542236,0.030700684
1601387768656,1948,0.09448242,-0.9734497,0.1083374
1601387768657,1949,0.119384766,-0.9746704,0.019958496
1601387768658,1950,0.13623047,-0.99542236,0.030700684
1601387768660,1951,0.119384766,-0.9746704,0.019958496
1601387768661,1952,0.13623047,-0.99542236,0.030700684
1601387768664,1953,0.09448242,-0.9734497,0.1083374
1601387768665,1954,0.09448242,-0.9734497,0.1083374
1601387768669,1955,0.13623047,-0.99542236,0.030700684
1601387768669,1956,0.18286133,-0.9829712,0.073913574
1601387768670,1957,0.09448242,-0.9734497,0.1083374
1601387768670,1958,-0.0859375,-1.0164185,0.046081543
1601387768670,1959,0.18286133,-0.9829712,0.073913574
1601387768671,1960,0.18286133,-0.9829712,0.073913574
1601387768672,1961,0.09448242,-0.9734497,0.1083374
1601387768673,1962,0.16333008,-1.0317993,0.07611084
1601387768699,1963,0.16333008,-1.0317993,0.07611084
1601387768700,1964,0.16333008,-1.0317993,0.07611084
1601387768700,1965,-0.24414062,-1.1155396,0.027770996
1601387768700,1966,0.18286133,-0.9829712,0.073913574
1601387768701,1967,0.03857422,-1.1560669,0.07196045
1601387768701,1968,0.03857422,-1.1560669,0.07196045
1601387768701,1969,-0.071777344,-0.9356079,0.0758667
1601387768701,1970,0.03857422,-1.1560669,0.07196045
1601387768702,1971,0.18286133,-0.9829712,0.073913574
1601387768702,1972,-0.071777344,-0.9356079,0.0758667
1601387768702,1973,0.16333008,-1.0317993,0.07611084
1601387768703,1974,-0.0859375,-1.0164185,0.046081543
1601387768703,1975,0.03857422,-1.1560669,0.07196045
1601387768704,1976,-0.24414062,-1.1155396,0.027770996
1601387768704,1977,-0.071777344,-0.9356079,0.0758667
1601387768704,1978,-0.2548828,-1.0396118,0.047790527
1601387768704,1979,-0.0859375,-1.0164185,0.046081543
1601387768705,1980,-0.071777344,-0.9356079,0.0758667
1601387768705,1981,-0.24414062,-1.1155396,0.027770996
1601387768705,1982,-0.0859375,-1.0164185,0.046081543
1601387768705,1983,-0.24414062,-1.1155396,0.027770996
1601387768706,1984,-0.22021484,-0.9295044,-0.0049438477
1601387768706,1985,-0.0859375,-1.0164185,0.046081543
1601387768706,1986,-0.25830078,-0.9920044,0.011657715
1601387768707,1987,-0.24414062,-1.1155396,0.027770996
1601387768707,1988,-0.2548828,-1.0396118,0.047790527
1601387768707,1989,0.16333008,-1.0317993,0.07611084
1601387768708,1990,-0.2548828,-1.0396118,0.047790527
1601387768708,1991,-0.2548828,-1.0396118,0.047790527
1601387768708,1992,-0.22021484,-0.9295044,-0.0049438477
1601387768709,1993,-0.22021484,-0.9295044,-0.0049438477
1601387768709,1994,-0.25048828,-1.0249634,-0.019836426
1601387768710,1995,-0.25830078,-0.9920044,0.011657715
1601387768710,1996,0.03857422,-1.1560669,0.07196045
1601387768715,1997,-0.2548828,-1.0396118,0.047790527
1601387768715,1998,-0.22021484,-0.9295044,-0.0049438477
1601387768716,1999,-0.17993164,-1.0166626,0.030212402
1601387768719,2000,-0.25048828,-1.0249634,-0.019836426
1601387768721,2001,-0.22021484,-0.9295044,-0.0049438477
1601387768729,2002,-0.25830078,-0.9920044,0.011657715
1601387768730,2003,-0.25830078,-0.9920044,0.011657715
1601387768730,2004,-0.071777344,-0.9356079,0.0758667
1601387768731,2005,-0.17993164,-1.0166626,0.030212402
1601387768732,2006,-0.25830078,-0.9920044,0.011657715
1601387768732,2007,-0.33740234,-1.1148071,0.089538574
1601387768735,2008,-0.25048828,-1.0249634,-0.019836426
1601387768736,2009,-0.17993164,-1.0166626,0.030212402
1601387768738,2010,-0.25048828,-1.0249634,-0.019836426
1601387768740,2011,-0.25048828,-1.0249634,-0.019836426
1601387768741,2012,-0.0859375,-1.0164185,0.046081543
1601387768754,2013,-0.11816406,-1.3445435,0.11077881
1601387768754,2014,-0.17993164,-1.0166626,0.030212402
1601387768755,2015,-0.33740234,-1.1148071,0.089538574
1601387768756,2016,-0.17993164,-1.0166626,0.030212402
1601387768756,2017,-0.33740234,-1.1148071,0.089538574
1601387768756,2018,-0.33740234,-1.1148071,0.089538574
1601387768756,2019,-0.11816406,-1.3445435,0.11077881
1601387768757,2020,-0.11816406,-1.3445435,0.11077881
1601387768758,2021,-0.33740234,-1.1148071,0.089538574
1601387768758,2022,-0.11816406,-1.3445435,0.11077881
1601387768768,2023,-0.11816406,-1.3445435,0.11077881
1601387768769,2024,-0.24414062,-1.1155396,0.027770996
1601387768770,2025,-0.2548828,-1.0396118,0.047790527
1601387768776,2026,-0.22021484,-0.9295044,-0.0049438477
1601387768777,2027,-0.25830078,-0.9920044,0.011657715
1601387768777,2028,-0.25048828,-1.0249634,-0.019836426
1601387768778,2029,-0.17993164,-1.0166626,0.030212402
1601387768778,2030,-0.33740234,-1.1148071,0.089538574
1601387768779,2031,-0.11816406,-1.3445435,0.11077881
1601387771169,2032,-0.125,-0.9221802,0.027038574
1601387771179,2033,-0.125,-0.9221802,0.027038574
1601387771180,2034,-0.125,-0.9221802,0.027038574
1601387771180,2035,-0.036621094,-0.7698364,0.050720215
1601387771181,2036,-0.036621094,-0.7698364,0.050720215
1601387771182,2037,-0.036621094,-0.7698364,0.050720215
1601387771182,2038,0.0061035156,-1.1177368,0.18475342
1601387771188,2039,-0.125,-0.9221802,0.027038574
1601387771189,2040,0.0061035156,-1.1177368,0.18475342
1601387771189,2041,-0.036621094,-0.7698364,0.050720215
1601387771190,2042,-0.079589844,-0.9829712,0.13079834
1601387771191,2043,-0.125,-0.9221802,0.027038574
1601387771192,2044,-0.05126953,-0.9507446,0.14544678
1601387771193,2045,-0.125,-0.9221802,0.027038574
1601387771195,2046,-0.036621094,-0.7698364,0.050720215
1601387771196,2047,0.0061035156,-1.1177368,0.18475342
1601387771204,2048,0.0061035156,-1.1177368,0.18475342
1601387771204,2049,0.0061035156,-1.1177368,0.18475342
1601387771205,2050,-0.036621094,-0.7698364,0.050720215
1601387771206,2051,-0.079589844,-0.9829712,0.13079834
1601387771212,2052,-0.061523438,-0.9846802,0.12835693
1601387771212,2053,-0.079589844,-0.9829712,0.13079834
1601387771212,2054,-0.05126953,-0.9507446,0.14544678
1601387771212,2055,-0.084228516,-1.0725708,0.08074951
1601387771222,2056,0.0061035156,-1.1177368,0.18475342
1601387771223,2057,-0.05126953,-0.9507446,0.14544678
1601387771224,2058,-0.079589844,-0.9829712,0.13079834
1601387771224,2059,-0.079589844,-0.9829712,0.13079834
1601387771225,2060,-0.061523438,-0.9846802,0.12835693
1601387771226,2061,-0.0024414062,-1.008606,0.016296387
1601387771226,2062,-0.084228516,-1.0725708,0.08074951
1601387771227,2063,-0.20288086,-1.0886841,0.06854248
1601387771228,2064,-0.061523438,-0.9846802,0.12835693
1601387771229,2065,-0.05126953,-0.9507446,0.14544678
1601387771229,2066,-0.05126953,-0.9507446,0.14544678
1601387771230,2067,-0.079589844,-0.9829712,0.13079834
1601387771230,2068,-0.061523438,-0.9846802,0.12835693
1601387771230,2069,-0.05126953,-0.9507446,0.14544678
1601387771231,2070,-0.26464844,-1.2224731,-0.11065674
1601387771232,2071,-0.061523438,-0.9846802,0.12835693
1601387771232,2072,-0.084228516,-1.0725708,0.08074951
1601387771233,2073,-0.0024414062,-1.008606,0.016296387
1601387771235,2074,-0.084228516,-1.0725708,0.08074951
1601387771237,2075,-0.0024414062,-1.008606,0.016296387
1601387771238,2076,-0.20288086,-1.0886841,0.06854248
1601387771240,2077,-0.061523438,-0.9846802,0.12835693
1601387771241,2078,-0.084228516,-1.0725708,0.08074951
1601387771243,2079,-0.24047852,-0.90460205,-0.1272583
1601387771244,2080,-0.171875,-0.8982544,-0.19659424
1601387771246,2081,-0.2854004,-1.0696411,-0.023986816
1601387771248,2082,-0.28930664,-1.0493774,-0.101623535
1601387771254,2083,-0.084228516,-1.0725708,0.08074951
1601387771255,2084,-0.20288086,-1.0886841,0.06854248
1601387771256,2085,-0.0024414062,-1.008606,0.016296387
1601387771256,2086,-0.26464844,-1.2224731,-0.11065674
1601387771257,2087,-0.0024414062,-1.008606,0.016296387
1601387771258,2088,-0.3112793,-1.1206665,-0.0413208
1601387771259,2089,-0.26464844,-1.2224731,-0.11065674
1601387771273,2090,-0.20288086,-1.0886841,0.06854248
1601387771274,2091,-0.24047852,-0.90460205,-0.1272583
1601387771274,2092,-0.3112793,-0.9668579,-0.013244629
1601387771275,2093,-0.20288086,-1.0886841,0.06854248
1601387771276,2094,-0.0024414062,-1.008606,0.016296387
1601387771276,2095,-0.26464844,-1.2224731,-0.11065674
1601387771277,2096,-0.24047852,-0.90460205,-0.1272583
1601387771277,2097,-0.24047852,-0.90460205,-0.1272583
1601387771278,2098,-0.171875,-0.8982544,-0.19659424
1601387771278,2099,-0.30615234,-0.972229,-0.011779785
1601387771279,2100,-0.2854004,-1.0696411,-0.023986816
1601387771280,2101,-0.20288086,-1.0886841,0.06854248
1601387771280,2102,-0.171875,-0.8982544,-0.19659424
1601387771281,2103,-0.28930664,-1.0493774,-0.101623535
1601387771283,2104,-0.171875,-0.8982544,-0.19659424
1601387771285,2105,-0.11791992,-1.1829224,0.08123779
1601387771286,2106,-0.095947266,-0.9990845,0.05731201
1601387771292,2107,-0.3112793,-1.1206665,-0.0413208
1601387771292,2108,-0.26464844,-1.2224731,-0.11065674
1601387771292,2109,-0.2854004,-1.0696411,-0.023986816
1601387771293,2110,-0.24047852,-0.90460205,-0.1272583
1601387771293,2111,-0.28930664,-1.0493774,-0.101623535
1601387771293,2112,-0.122802734,-0.98687744,0.07489014
1601387771294,2113,-0.3112793,-0.9668579,-0.013244629
1601387771297,2114,-0.171875,-0.8982544,-0.19659424
1601387771299,2115,-0.3112793,-1.1206665,-0.0413208
1601387771300,2116,-0.037597656,-0.9155884,0.08709717
1601387771306,2117,-0.30615234,-0.972229,-0.011779785
1601387771306,2118,-0.2854004,-1.0696411,-0.023986816
1601387771306,2119,-0.2854004,-1.0696411,-0.023986816
1601387771306,2120,-0.3112793,-0.9668579,-0.013244629
1601387771307,2121,0.030761719,-1.0991821,0.17669678
1601387771307,2122,-0.11791992,-1.1829224,0.08123779
1601387771308,2123,-0.26464844,-1.2224731,-0.11065674
1601387771318,2124,-0.30615234,-0.972229,-0.011779785
1601387771318,2125,0.0107421875,-1.0359497,0.16033936
1601387771319,2126,-0.24047852,-0.90460205,-0.1272583
1601387771321,2127,-0.28930664,-1.0493774,-0.101623535
1601387771321,2128,-0.28930664,-1.0493774,-0.101623535
1601387771321,2129,-0.171875,-0.8982544,-0.19659424
1601387771321,2130,-0.3112793,-1.1206665,-0.0413208
1601387771323,2131,-0.11791992,-1.1829224,0.08123779
1601387771324,2132,-0.0043945312,-0.9644165,0.16497803
1601387771324,2133,-0.095947266,-0.9990845,0.05731201
1601387771326,2134,0.022460938,-1.0027466,0.08807373
1601387771335,2135,-0.2854004,-1.0696411,-0.023986816
1601387771335,2136,-0.095947266,-0.9990845,0.05731201
1601387771336,2137,-0.3112793,-1.1206665,-0.0413208
1601387771336,2138,-0.3112793,-0.9668579,-0.013244629
1601387771336,2139,-0.3112793,-0.9668579,-0.013244629
1601387771337,2140,0.045898438,-1.0584106,0.09832764
1601387771340,2141,-0.122802734,-0.98687744,0.07489014
1601387771340,2142,-0.28930664,-1.0493774,-0.101623535
1601387771371,2143,-0.122802734,-0.98687744,0.07489014
1601387771371,2144,-0.30615234,-0.972229,-0.011779785
1601387771372,2145,0.023925781,-1.0237427,0.07098389
1601387771373,2146,-0.30615234,-0.972229,-0.011779785
1601387771374,2147,-0.037597656,-0.9155884,0.08709717
1601387771376,2148,-0.3112793,-1.1206665,-0.0413208
1601387771377,2149,0.030761719,-1.0991821,0.17669678
1601387771377,2150,-0.037597656,-0.9155884,0.08709717
1601387771378,2151,-0.11791992,-1.1829224,0.08123779
1601387771378,2152,0.096191406,-1.0576782,0.09100342
1601387771380,2153,-0.11791992,-1.1829224,0.08123779
1601387771380,2154,-0.095947266,-0.9990845,0.05731201
1601387771381,2155,-0.3112793,-0.9668579,-0.013244629
1601387771382,2156,0.0107421875,-1.0359497,0.16033936
1601387771383,2157,0.03881836,-1.1109009,0.09100342
1601387771384,2158,-0.30615234,-0.972229,-0.011779785
1601387771385,2159,0.030761719,-1.0991821,0.17669678
1601387771385,2160,-0.122802734,-0.98687744,0.07489014
1601387771386,2161,-0.095947266,-0.9990845,0.05731201
1601387771387,2162,0.0107421875,-1.0359497,0.16033936
1601387771388,2163,-0.07324219,-1.1377563,0.058532715
1601387771389,2164,-0.0043945312,-0.9644165,0.16497803
1601387771389,2165,-0.11791992,-1.1829224,0.08123779
1601387771390,2166,-0.037597656,-0.9155884,0.08709717
1601387771391,2167,-0.095947266,-0.9990845,0.05731201
1601387771391,2168,-0.122802734,-0.98687744,0.07489014
1601387771392,2169,-0.037597656,-0.9155884,0.08709717
1601387771393,2170,0.026855469,-0.94244385,-0.012756348
1601387771393,2171,0.022460938,-1.0027466,0.08807373
1601387771394,2172,0.030761719,-1.0991821,0.17669678
1601387771395,2173,0.030761719,-1.0991821,0.17669678
1601387771396,2174,0.045898438,-1.0584106,0.09832764
1601387771396,2175,-0.0043945312,-0.9644165,0.16497803
1601387771397,2176,-0.08105469,-0.9812622,-0.012023926
1601387771399,2177,0.0107421875,-1.0359497,0.16033936
1601387771401,2178,0.0107421875,-1.0359497,0.16033936
1601387771403,2179,-0.0043945312,-0.9644165,0.16497803
1601387771405,2180,0.022460938,-1.0027466,0.08807373
1601387771407,2181,0.045898438,-1.0584106,0.09832764
1601387771408,2182,0.022460938,-1.0027466,0.08807373
1601387771420,2183,-0.122802734,-0.98687744,0.07489014
1601387771420,2184,-0.0043945312,-0.9644165,0.16497803
1601387771420,2185,0.023925781,-1.0237427,0.07098389
1601387771420,2186,0.023925781,-1.0237427,0.07098389
1601387771421,2187,0.096191406,-1.0576782,0.09100342
1601387771421,2188,0.022460938,-1.0027466,0.08807373
1601387771421,2189,-0.037597656,-0.9155884,0.08709717
1601387771421,2190,0.096191406,-1.0576782,0.09100342
1601387771422,2191,0.045898438,-1.0584106,0.09832764
1601387771432,2192,0.03881836,-1.1109009,0.09100342
1601387771433,2193,0.045898438,-1.0584106,0.09832764
1601387771433,2194,-0.07324219,-1.1377563,0.058532715
1601387771433,2195,0.023925781,-1.0237427,0.07098389
1601387771434,2196,0.03881836,-1.1109009,0.09100342
1601387771434,2197,0.026855469,-0.94244385,-0.012756348
1601387771434,2198,0.030761719,-1.0991821,0.17669678
1601387771434,2199,0.096191406,-1.0576782,0.09100342
1601387771434,2200,-0.07324219,-1.1377563,0.058532715
1601387771439,2201,0.023925781,-1.0237427,0.07098389
1601387771440,2202,-0.08105469,-0.9812622,-0.012023926
1601387771440,2203,0.03881836,-1.1109009,0.09100342
1601387771440,2204,0.026855469,-0.94244385,-0.012756348
1601387771444,2205,0.096191406,-1.0576782,0.09100342
1601387771444,2206,0.0107421875,-1.0359497,0.16033936
1601387771445,2207,-0.07324219,-1.1377563,0.058532715
1601387771445,2208,-0.08105469,-0.9812622,-0.012023926
1601387771449,2209,0.03881836,-1.1109009,0.09100342
1601387771449,2210,-0.0043945312,-0.9644165,0.16497803
1601387771450,2211,0.026855469,-0.94244385,-0.012756348
1601387771451,2212,-0.07324219,-1.1377563,0.058532715
1601387771458,2213,-0.08105469,-0.9812622,-0.012023926
1601387771458,2214,0.022460938,-1.0027466,0.08807373
1601387771459,2215,0.045898438,-1.0584106,0.09832764
1601387771460,2216,0.023925781,-1.0237427,0.07098389
1601387771460,2217,0.026855469,-0.94244385,-0.012756348
1601387771460,2218,0.096191406,-1.0576782,0.09100342
1601387771460,2219,0.03881836,-1.1109009,0.09100342
1601387771461,2220,-0.08105469,-0.9812622,-0.012023926
1601387771461,2221,-0.07324219,-1.1377563,0.058532715
1601387771463,2222,0.026855469,-0.94244385,-0.012756348
1601387771464,2223,-0.08105469,-0.9812622,-0.012023926
1601387773726,2224,-0.14453125,-1.0857544,0.017028809
1601387773727,2225,-0.14453125,-1.0857544,0.017028809
1601387773727,2226,-0.14453125,-1.0857544,0.017028809
1601387773731,2227,-0.09277344,-0.9837036,0.031677246
1601387773732,2228,-0.09277344,-0.9837036,0.031677246
1601387773733,2229,-0.14453125,-1.0857544,0.017028809
1601387773733,2230,-0.14453125,-1.0857544,0.017028809
1601387773735,2231,-0.09277344,-0.9837036,0.031677246
1601387773736,2232,-0.09643555,-1.0098267,0.04827881
1601387773736,2233,-0.09643555,-1.0098267,0.04827881
1601387773737,2234,-0.09643555,-1.0098267,0.04827881
1601387773738,2235,-0.14453125,-1.0857544,0.017028809
1601387773739,2236,-0.09277344,-0.9837036,0.031677246
1601387773740,2237,-0.09277344,-0.9837036,0.031677246
1601387773741,2238,-0.09643555,-1.0098267,0.04827881
1601387773742,2239,-0.12597656,-1.0737915,0.07757568
1601387773742,2240,-0.12597656,-1.0737915,0.07757568
1601387773743,2241,-0.12597656,-1.0737915,0.07757568
1601387773743,2242,-0.096191406,-1.0071411,0.059265137
1601387773744,2243,-0.09643555,-1.0098267,0.04827881
1601387773745,2244,-0.140625,-1.0071411,0.028503418
1601387773746,2245,-0.12597656,-1.0737915,0.07757568
1601387773746,2246,-0.096191406,-1.0071411,0.059265137
1601387773747,2247,-0.12597656,-1.0737915,0.07757568
1601387773748,2248,-0.09277344,-0.9837036,0.031677246
1601387773749,2249,-0.096191406,-1.0071411,0.059265137
1601387773749,2250,-0.096191406,-1.0071411,0.059265137
1601387773750,2251,-0.096191406,-1.0071411,0.059265137
1601387773751,2252,-0.140625,-1.0071411,0.028503418
1601387773752,2253,-0.140625,-1.0071411,0.028503418
1601387773752,2254,-0.10449219,-1.0310669,0.062194824
1601387773753,2255,-0.09643555,-1.0098267,0.04827881
1601387773753,2256,-0.13793945,-1.0842896,0.050720215
1601387773755,2257,-0.12597656,-1.0737915,0.07757568
1601387773755,2258,-0.10449219,-1.0310669,0.062194824
1601387773756,2259,-0.096191406,-1.0071411,0.059265137
1601387773757,2260,-0.10449219,-1.0310669,0.062194824
1601387773757,2261,-0.140625,-1.0071411,0.028503418
1601387773758,2262,-0.140625,-1.0071411,0.028503418
1601387773759,2263,-0.13793945,-1.0842896,0.050720215
1601387773761,2264,-0.10449219,-1.0310669,0.062194824
1601387773761,2265,-0.125,-1.013977,0.038513184
