# Sensor position: Wrist
# Sensor side: Left
# Activity type: Movement
# Activity code: 9
# Subject id: s1746788
timestamp,seq,accel_x,accel_y,accel_z
1601392416149,0,-1.3049316,0.34783936,0.31365967
1601392416151,1,-1.3049316,0.34783936,0.31365967
1601392416153,2,-1.3049316,0.34783936,0.31365967
1601392416160,3,-1.3049316,0.34783936,0.31365967
1601392416161,4,-1.267334,0.28631592,0.17938232
1601392416162,5,-1.3049316,0.34783936,0.31365967
1601392416163,6,-1.3049316,0.34783936,0.31365967
1601392416164,7,-1.267334,0.28631592,0.17938232
1601392416164,8,-1.267334,0.28631592,0.17938232
1601392416167,9,-1.267334,0.28631592,0.17938232
1601392416170,10,-0.91064453,0.27996826,0.07977295
1601392416172,11,-0.91064453,0.27996826,0.07977295
1601392416191,12,-1.267334,0.28631592,0.17938232
1601392416192,13,-0.91064453,0.27996826,0.07977295
1601392416193,14,-1.267334,0.28631592,0.17938232
1601392416193,15,-0.97216797,0.2868042,0.045837402
1601392416194,16,-0.91064453,0.27996826,0.07977295
1601392416196,17,-0.97216797,0.2868042,0.045837402
1601392416197,18,-0.97216797,0.2868042,0.045837402
1601392416198,19,-0.91064453,0.27996826,0.07977295
1601392416198,20,-0.9460449,0.25335693,0.016540527
1601392416200,21,-0.91064453,0.27996826,0.07977295
1601392416200,22,-0.97216797,0.2868042,0.045837402
1601392416200,23,-0.8625488,0.29925537,0.03753662
1601392416201,24,-0.9460449,0.25335693,0.016540527
1601392416201,25,-0.9460449,0.25335693,0.016540527
1601392416202,26,-0.97216797,0.2868042,0.045837402
1601392416211,27,-0.97216797,0.2868042,0.045837402
1601392416211,28,-0.9460449,0.25335693,0.016540527
1601392416212,29,-0.8762207,0.31829834,0.10467529
1601392416212,30,-0.9460449,0.25335693,0.016540527
1601392416213,31,-0.9460449,0.25335693,0.016540527
1601392416214,32,-0.8625488,0.29925537,0.03753662
1601392416215,33,-0.8625488,0.29925537,0.03753662
1601392416224,34,-0.8625488,0.29925537,0.03753662
1601392416225,35,-0.94091797,0.31854248,0.18109131
1601392416225,36,-0.8625488,0.29925537,0.03753662
1601392416226,37,-0.8762207,0.31829834,0.10467529
1601392416227,38,-0.8625488,0.29925537,0.03753662
1601392416227,39,-0.8762207,0.31829834,0.10467529
1601392416228,40,-0.8762207,0.31829834,0.10467529
1601392416229,41,-1.012207,0.28485107,0.23406982
1601392416229,42,-0.8762207,0.31829834,0.10467529
1601392416232,43,-0.94091797,0.31854248,0.18109131
1601392416233,44,-0.94091797,0.31854248,0.18109131
1601392416236,45,-0.94091797,0.31854248,0.18109131
1601392416238,46,-0.8762207,0.31829834,0.10467529
1601392416239,47,-0.94091797,0.31854248,0.18109131
1601392416245,48,-0.94091797,0.31854248,0.18109131
1601392416245,49,-1.012207,0.28485107,0.23406982
1601392416245,50,-1.012207,0.28485107,0.23406982
1601392416247,51,-1.012207,0.28485107,0.23406982
1601392416248,52,-1.012207,0.28485107,0.23406982
1601392416248,53,-1.012207,0.28485107,0.23406982
1601392416257,54,-1.0827637,0.27557373,0.22698975
1601392416257,55,-1.0827637,0.27557373,0.22698975
1601392416257,56,-1.0827637,0.27557373,0.22698975
1601392416258,57,-1.0827637,0.27557373,0.22698975
1601392416260,58,-1.0827637,0.27557373,0.22698975
1601392416260,59,-1.0827637,0.27557373,0.22698975
1601392416267,60,-0.9272461,0.39007568,0.38128662
1601392416268,61,-0.9272461,0.39007568,0.38128662
1601392416268,62,-0.9272461,0.39007568,0.38128662
1601392416269,63,-0.9272461,0.39007568,0.38128662
1601392416269,64,-0.9272461,0.39007568,0.38128662
1601392416270,65,-0.9272461,0.39007568,0.38128662
1601392416271,66,-0.9995117,0.18304443,0.3529663
1601392416274,67,-0.9995117,0.18304443,0.3529663
1601392416284,68,-0.9995117,0.18304443,0.3529663
1601392416285,69,-1.0019531,0.16571045,0.31732178
1601392416286,70,-0.9995117,0.18304443,0.3529663
1601392416287,71,-0.91674805,0.22064209,0.37078857
1601392416287,72,-0.9995117,0.18304443,0.3529663
1601392416288,73,-0.87768555,0.1630249,0.3468628
1601392416289,74,-1.0019531,0.16571045,0.31732178
1601392416289,75,-1.0019531,0.16571045,0.31732178
1601392416290,76,-0.9995117,0.18304443,0.3529663
1601392416291,77,-1.0019531,0.16571045,0.31732178
1601392416293,78,-1.0019531,0.16571045,0.31732178
1601392416298,79,-0.8503418,0.15789795,0.35980225
1601392416299,80,-0.91674805,0.22064209,0.37078857
1601392416299,81,-0.91674805,0.22064209,0.37078857
1601392416299,82,-0.87768555,0.1630249,0.3468628
1601392416299,83,-0.91674805,0.22064209,0.37078857
1601392416304,84,-1.0019531,0.16571045,0.31732178
1601392416309,85,-0.86035156,0.18011475,0.3793335
1601392416309,86,-0.87768555,0.1630249,0.3468628
1601392416309,87,-0.91674805,0.22064209,0.37078857
1601392416310,88,-0.8503418,0.15789795,0.35980225
1601392416311,89,-0.87768555,0.1630249,0.3468628
1601392416311,90,-0.91674805,0.22064209,0.37078857
1601392416312,91,-0.8503418,0.15789795,0.35980225
1601392416313,92,-0.87768555,0.1630249,0.3468628
1601392416314,93,-0.8503418,0.15789795,0.35980225
1601392416317,94,-0.86035156,0.18011475,0.3793335
1601392416324,95,-0.9243164,0.17913818,0.37738037
1601392416324,96,-0.86035156,0.18011475,0.3793335
1601392416326,97,-0.8503418,0.15789795,0.35980225
1601392416326,98,-0.9243164,0.17913818,0.37738037
1601392416326,99,-0.87768555,0.1630249,0.3468628
1601392416327,100,-0.9243164,0.17913818,0.37738037
1601392416339,101,-0.86035156,0.18011475,0.3793335
1601392416340,102,-0.9716797,0.1930542,0.36224365
1601392416340,103,-0.9243164,0.17913818,0.37738037
1601392416341,104,-0.9716797,0.1930542,0.36224365
1601392416341,105,-0.8503418,0.15789795,0.35980225
1601392416343,106,-0.9716797,0.1930542,0.36224365
1601392416343,107,-0.9121094,0.20257568,0.3065796
1601392416343,108,-0.86035156,0.18011475,0.3793335
1601392416344,109,-0.9716797,0.1930542,0.36224365
1601392416345,110,-0.9121094,0.20257568,0.3065796
1601392416347,111,-0.86035156,0.18011475,0.3793335
1601392416353,112,-0.9614258,0.24359131,0.28363037
1601392416353,113,-0.9121094,0.20257568,0.3065796
1601392416353,114,-0.9243164,0.17913818,0.37738037
1601392416354,115,-0.9614258,0.24359131,0.28363037
1601392416354,116,-0.9121094,0.20257568,0.3065796
1601392416354,117,-0.9243164,0.17913818,0.37738037
1601392416362,118,-0.97094727,0.2374878,0.27801514
1601392416362,119,-0.9614258,0.24359131,0.28363037
1601392416362,120,-0.9716797,0.1930542,0.36224365
1601392416363,121,-0.97094727,0.2374878,0.27801514
1601392416363,122,-0.9716797,0.1930542,0.36224365
1601392416363,123,-0.9614258,0.24359131,0.28363037
1601392416363,124,-0.9272461,0.22772217,0.26898193
1601392416370,125,-0.9121094,0.20257568,0.3065796
1601392416371,126,-0.9272461,0.22772217,0.26898193
1601392416372,127,-0.97094727,0.2374878,0.27801514
1601392416373,128,-0.9614258,0.24359131,0.28363037
1601392416373,129,-0.92578125,0.23529053,0.27069092
1601392416375,130,-0.97094727,0.2374878,0.27801514
1601392416377,131,-0.9121094,0.20257568,0.3065796
1601392416388,132,-0.97094727,0.2374878,0.27801514
1601392416388,133,-0.9272461,0.22772217,0.26898193
1601392416388,134,-0.95458984,0.24481201,0.28778076
1601392416389,135,-0.9272461,0.22772217,0.26898193
1601392416390,136,-0.9814453,0.23651123,0.29901123
1601392416391,137,-0.9614258,0.24359131,0.28363037
1601392416392,138,-0.92578125,0.23529053,0.27069092
1601392416393,139,-0.9272461,0.22772217,0.26898193
1601392416393,140,-0.97094727,0.2374878,0.27801514
1601392416394,141,-0.92578125,0.23529053,0.27069092
1601392416395,142,-0.9272461,0.22772217,0.26898193
1601392416397,143,-0.92578125,0.23529053,0.27069092
1601392416400,144,-0.92578125,0.23529053,0.27069092
1601392416406,145,-0.95458984,0.24481201,0.28778076
1601392416408,146,-0.92578125,0.23529053,0.27069092
1601392416408,147,-0.95458984,0.24481201,0.28778076
1601392416410,148,-0.95458984,0.24481201,0.28778076
1601392416411,149,-0.96777344,0.2345581,0.29437256
1601392416411,150,-0.95458984,0.24481201,0.28778076
1601392416414,151,-0.95458984,0.24481201,0.28778076
1601392416416,152,-0.9814453,0.23651123,0.29901123
1601392416428,153,-0.9814453,0.23651123,0.29901123
1601392416429,154,-0.9814453,0.23651123,0.29901123
1601392416430,155,-0.96777344,0.2345581,0.29437256
1601392416431,156,-0.9814453,0.23651123,0.29901123
1601392416433,157,-0.96777344,0.2345581,0.29437256
1601392416433,158,-0.96777344,0.2345581,0.29437256
1601392416433,159,-0.96484375,0.22528076,0.28607178
1601392416435,160,-0.9814453,0.23651123,0.29901123
1601392416436,161,-0.96484375,0.22528076,0.28607178
1601392416436,162,-0.96777344,0.2345581,0.29437256
1601392416445,163,-0.96484375,0.22528076,0.28607178
1601392416445,164,-0.96484375,0.22528076,0.28607178
1601392416445,165,-0.96777344,0.2345581,0.29437256
1601392416446,166,-0.94970703,0.23944092,0.28240967
1601392416447,167,-0.94970703,0.23944092,0.28240967
1601392416447,168,-0.96484375,0.22528076,0.28607178
1601392416447,169,-0.94970703,0.23944092,0.28240967
1601392416448,170,-0.94970703,0.23944092,0.28240967
1601392416450,171,-0.9440918,0.23040771,0.28240967
1601392416457,172,-0.9440918,0.23040771,0.28240967
1601392416458,173,-0.9440918,0.23040771,0.28240967
1601392416458,174,-0.9440918,0.23040771,0.28240967
1601392416459,175,-0.9421387,0.22723389,0.28704834
1601392416459,176,-0.96484375,0.22528076,0.28607178
1601392416460,177,-0.9421387,0.22723389,0.28704834
1601392416461,178,-0.94970703,0.23944092,0.28240967
1601392416462,179,-0.9421387,0.22723389,0.28704834
1601392416475,180,-0.9421387,0.22723389,0.28704834
1601392416476,181,-0.9350586,0.22650146,0.291687
1601392416476,182,-0.94970703,0.23944092,0.28240967
1601392416477,183,-0.9350586,0.22650146,0.291687
1601392416479,184,-0.9440918,0.23040771,0.28240967
1601392416480,185,-0.9350586,0.22650146,0.291687
1601392416480,186,-0.9350586,0.22650146,0.291687
1601392416481,187,-0.9421387,0.22723389,0.28704834
1601392416482,188,-0.9440918,0.23040771,0.28240967
1601392416487,189,-0.9350586,0.22650146,0.291687
1601392416489,190,-0.9421387,0.22723389,0.28704834
1601392416492,191,-0.9350586,0.22650146,0.291687
1601392418746,192,-0.94311523,0.2802124,0.29974365
1601392418753,193,-0.94311523,0.2802124,0.29974365
1601392418754,194,-0.94311523,0.2802124,0.29974365
1601392418754,195,-0.94311523,0.2802124,0.29974365
1601392418755,196,-0.9580078,0.2538452,0.27874756
1601392418756,197,-0.94311523,0.2802124,0.29974365
1601392418757,198,-0.94311523,0.2802124,0.29974365
1601392418758,199,-0.9580078,0.2538452,0.27874756
1601392418764,200,-0.9580078,0.2538452,0.27874756
1601392418764,201,-0.94921875,0.24359131,0.2579956
1601392418766,202,-0.9580078,0.2538452,0.27874756
1601392418766,203,-0.9580078,0.2538452,0.27874756
1601392418767,204,-0.94921875,0.24359131,0.2579956
1601392418768,205,-0.9580078,0.2538452,0.27874756
1601392418777,206,-0.94921875,0.24359131,0.2579956
1601392418777,207,-0.94921875,0.24359131,0.2579956
1601392418778,208,-0.93652344,0.2531128,0.24725342
1601392418779,209,-0.93652344,0.2531128,0.24725342
1601392418780,210,-0.94921875,0.24359131,0.2579956
1601392418785,211,-0.9387207,0.24725342,0.25335693
1601392418785,212,-0.94921875,0.24359131,0.2579956
1601392418785,213,-0.9387207,0.24725342,0.25335693
1601392418799,214,-0.93652344,0.2531128,0.24725342
1601392418800,215,-0.9382324,0.25726318,0.26312256
1601392418800,216,-0.93652344,0.2531128,0.24725342
1601392418800,217,-0.9387207,0.24725342,0.25335693
1601392418800,218,-0.93652344,0.2531128,0.24725342
1601392418802,219,-0.9382324,0.25726318,0.26312256
1601392418803,220,-0.9382324,0.25726318,0.26312256
1601392418803,221,-0.9387207,0.24725342,0.25335693
1601392418803,222,-0.9440918,0.25726318,0.27825928
1601392418804,223,-0.9387207,0.24725342,0.25335693
1601392418805,224,-0.93652344,0.2531128,0.24725342
1601392418806,225,-0.9440918,0.25726318,0.27825928
1601392418832,226,-0.9382324,0.25726318,0.26312256
1601392418833,227,-0.9440918,0.25726318,0.27825928
1601392418833,228,-0.9387207,0.24725342,0.25335693
1601392418834,229,-0.9382324,0.25726318,0.26312256
1601392418836,230,-0.92211914,0.27093506,0.2831421
1601392418836,231,-0.92211914,0.27093506,0.2831421
1601392418836,232,-0.92211914,0.27093506,0.2831421
1601392418837,233,-0.9440918,0.25726318,0.27825928
1601392418837,234,-0.9406738,0.260437,0.2850952
1601392418838,235,-0.9382324,0.25726318,0.26312256
1601392418839,236,-0.9406738,0.260437,0.2850952
1601392418840,237,-0.9440918,0.25726318,0.27825928
1601392418840,238,-0.92211914,0.27093506,0.2831421
1601392418841,239,-0.9406738,0.260437,0.2850952
1601392418842,240,-0.9477539,0.2662964,0.26116943
1601392418843,241,-0.9477539,0.2662964,0.26116943
1601392418843,242,-0.9477539,0.2662964,0.26116943
1601392418844,243,-0.92211914,0.27093506,0.2831421
1601392418845,244,-0.9406738,0.260437,0.2850952
1601392418845,245,-0.99658203,0.27044678,0.23504639
1601392418846,246,-0.9440918,0.25726318,0.27825928
1601392418847,247,-0.9831543,0.26605225,0.24383545
1601392418848,248,-0.9406738,0.260437,0.2850952
1601392418848,249,-0.99658203,0.27044678,0.23504639
1601392418849,250,-0.9477539,0.2662964,0.26116943
1601392418850,251,-0.9477539,0.2662964,0.26116943
1601392418851,252,-0.92211914,0.27093506,0.2831421
1601392418852,253,-0.99658203,0.27044678,0.23504639
1601392418852,254,-0.99658203,0.27044678,0.23504639
1601392418853,255,-0.9831543,0.26605225,0.24383545
1601392418856,256,-0.99658203,0.27044678,0.23504639
1601392418857,257,-0.9406738,0.260437,0.2850952
1601392418858,258,-0.9831543,0.26605225,0.24383545
1601392418863,259,-0.9501953,0.24383545,0.23699951
1601392418864,260,-0.9501953,0.24383545,0.23699951
1601392418864,261,-0.9831543,0.26605225,0.24383545
1601392418864,262,-0.96362305,0.25653076,0.22235107
1601392418864,263,-0.9477539,0.2662964,0.26116943
1601392418864,264,-0.9501953,0.24383545,0.23699951
1601392418869,265,-0.9831543,0.26605225,0.24383545
1601392418870,266,-0.96362305,0.25653076,0.22235107
1601392418870,267,-0.9501953,0.24383545,0.23699951
1601392418870,268,-0.9501953,0.24383545,0.23699951
1601392418870,269,-0.99658203,0.27044678,0.23504639
1601392418870,270,-0.96362305,0.25653076,0.22235107
1601392418888,271,-0.95581055,0.27679443,0.22479248
1601392418888,272,-0.95581055,0.27679443,0.22479248
1601392418889,273,-0.96362305,0.25653076,0.22235107
1601392418889,274,-0.9831543,0.26605225,0.24383545
1601392418889,275,-0.96362305,0.25653076,0.22235107
1601392418890,276,-0.93237305,0.23919678,0.24066162
1601392418890,277,-0.95581055,0.27679443,0.22479248
1601392418891,278,-0.95581055,0.27679443,0.22479248
1601392418892,279,-0.93237305,0.23919678,0.24066162
1601392418892,280,-0.93237305,0.23919678,0.24066162
1601392418893,281,-0.9501953,0.24383545,0.23699951
1601392418893,282,-0.95581055,0.27679443,0.22479248
1601392418894,283,-0.95703125,0.23602295,0.23553467
1601392418894,284,-0.93237305,0.23919678,0.24066162
1601392418895,285,-0.9567871,0.25628662,0.24407959
1601392418895,286,-0.96362305,0.25653076,0.22235107
1601392418896,287,-0.9707031,0.24700928,0.27093506
1601392418896,288,-0.95703125,0.23602295,0.23553467
1601392418897,289,-0.93237305,0.23919678,0.24066162
1601392418907,290,-0.95703125,0.23602295,0.23553467
1601392418907,291,-0.95703125,0.23602295,0.23553467
1601392418908,292,-0.95581055,0.27679443,0.22479248
1601392418909,293,-0.9655762,0.23724365,0.2748413
1601392418910,294,-0.9567871,0.25628662,0.24407959
1601392418913,295,-0.9567871,0.25628662,0.24407959
1601392418913,296,-0.9567871,0.25628662,0.24407959
1601392418913,297,-0.93237305,0.23919678,0.24066162
1601392418913,298,-0.95703125,0.23602295,0.23553467
1601392418913,299,-0.95703125,0.23602295,0.23553467
1601392418914,300,-0.9707031,0.24700928,0.27093506
1601392418914,301,-0.9707031,0.24700928,0.27093506
1601392418914,302,-0.9567871,0.25628662,0.24407959
1601392418929,303,-0.9567871,0.25628662,0.24407959
1601392418931,304,-0.9543457,0.23822021,0.2675171
1601392418931,305,-0.9707031,0.24700928,0.27093506
1601392418932,306,-0.9707031,0.24700928,0.27093506
1601392418932,307,-0.9655762,0.23724365,0.2748413
1601392418933,308,-0.9707031,0.24700928,0.27093506
1601392418934,309,-0.9543457,0.23822021,0.2675171
1601392418935,310,-0.9655762,0.23724365,0.2748413
1601392418936,311,-0.95410156,0.24383545,0.25823975
1601392418936,312,-0.9655762,0.23724365,0.2748413
1601392418937,313,-0.9428711,0.24627686,0.25604248
1601392418938,314,-0.9655762,0.23724365,0.2748413
1601392418939,315,-0.9655762,0.23724365,0.2748413
1601392418940,316,-0.9543457,0.23822021,0.2675171
1601392418940,317,-0.95410156,0.24383545,0.25823975
1601392418941,318,-0.95410156,0.24383545,0.25823975
1601392418942,319,-0.9375,0.3619995,0.2423706
1601392418942,320,-0.9428711,0.24627686,0.25604248
1601392418943,321,-0.9543457,0.23822021,0.2675171
1601392418944,322,-0.9667969,0.11395264,0.2501831
1601392418944,323,-0.9428711,0.24627686,0.25604248
1601392418946,324,-0.9543457,0.23822021,0.2675171
1601392418955,325,-0.95410156,0.24383545,0.25823975
1601392418955,326,-0.95410156,0.24383545,0.25823975
1601392418956,327,-0.94873047,0.17181396,0.27264404
1601392418957,328,-0.9375,0.3619995,0.2423706
1601392418957,329,-0.9375,0.3619995,0.2423706
1601392418958,330,-0.9543457,0.23822021,0.2675171
1601392418959,331,-0.9667969,0.11395264,0.2501831
1601392418961,332,-0.9428711,0.24627686,0.25604248
1601392418967,333,-0.95410156,0.24383545,0.25823975
1601392418968,334,-0.9667969,0.11395264,0.2501831
1601392418969,335,-0.9428711,0.24627686,0.25604248
1601392418970,336,-0.94873047,0.17181396,0.27264404
1601392418971,337,-0.94262695,0.24212646,0.26605225
1601392418972,338,-0.9375,0.3619995,0.2423706
1601392418974,339,-0.9428711,0.24627686,0.25604248
1601392418974,340,-0.9375,0.3619995,0.2423706
1601392418976,341,-0.9667969,0.11395264,0.2501831
1601392418978,342,-0.9667969,0.11395264,0.2501831
1601392418980,343,-0.94873047,0.17181396,0.27264404
1601392418982,344,-0.94262695,0.24212646,0.26605225
1601392418984,345,-0.97387695,0.23675537,0.26263428
1601392418985,346,-0.94262695,0.24212646,0.26605225
1601392418988,347,-0.97387695,0.23675537,0.26263428
1601392418989,348,-0.9626465,0.21868896,0.2543335
1601392418996,349,-0.95458984,0.23016357,0.2399292
1601392418997,350,-0.94873047,0.17181396,0.27264404
1601392418997,351,-0.97387695,0.23675537,0.26263428
1601392418997,352,-0.94873047,0.17181396,0.27264404
1601392418998,353,-0.94262695,0.24212646,0.26605225
1601392418998,354,-0.9375,0.3619995,0.2423706
1601392418998,355,-0.9453125,0.24261475,0.23822021
1601392419000,356,-0.9626465,0.21868896,0.2543335
1601392419006,357,-0.94262695,0.24212646,0.26605225
1601392419007,358,-0.97387695,0.23675537,0.26263428
1601392419007,359,-0.9667969,0.11395264,0.2501831
1601392419007,360,-0.97387695,0.23675537,0.26263428
1601392419008,361,-0.9626465,0.21868896,0.2543335
1601392419008,362,-0.9626465,0.21868896,0.2543335
1601392419014,363,-0.951416,0.24188232,0.23968506
1601392419014,364,-0.9626465,0.21868896,0.2543335
1601392419015,365,-0.94873047,0.17181396,0.27264404
1601392419016,366,-0.95458984,0.23016357,0.2399292
1601392419017,367,-0.95458984,0.23016357,0.2399292
1601392419017,368,-0.95458984,0.23016357,0.2399292
1601392419021,369,-0.95458984,0.23016357,0.2399292
1601392419033,370,-0.9453125,0.24261475,0.23822021
1601392419033,371,-0.9453125,0.24261475,0.23822021
1601392419035,372,-0.94262695,0.24212646,0.26605225
1601392419035,373,-0.9453125,0.24261475,0.23822021
1601392419036,374,-0.9453125,0.24261475,0.23822021
1601392419037,375,-0.97387695,0.23675537,0.26263428
1601392419037,376,-0.951416,0.24188232,0.23968506
1601392419038,377,-0.951416,0.24188232,0.23968506
1601392419040,378,-0.951416,0.24188232,0.23968506
1601392419041,379,-0.9626465,0.21868896,0.2543335
1601392419042,380,-0.951416,0.24188232,0.23968506
1601392419043,381,-0.95458984,0.23016357,0.2399292
1601392419048,382,-0.9453125,0.24261475,0.23822021
1601392419049,383,-0.951416,0.24188232,0.23968506
1601392421359,384,-0.9394531,0.25286865,0.24139404
1601392421359,385,-0.9394531,0.25286865,0.24139404
1601392421359,386,-0.95654297,0.26141357,0.23626709
1601392421360,387,-0.9394531,0.25286865,0.24139404
1601392421361,388,-0.95654297,0.26141357,0.23626709
1601392421362,389,-0.9394531,0.25286865,0.24139404
1601392421363,390,-0.9394531,0.25286865,0.24139404
1601392421363,391,-0.9394531,0.25286865,0.24139404
1601392421364,392,-0.97558594,0.25335693,0.25335693
1601392421365,393,-0.95654297,0.26141357,0.23626709
1601392421365,394,-0.95654297,0.26141357,0.23626709
1601392421366,395,-0.97558594,0.25335693,0.25335693
1601392421367,396,-0.95654297,0.26141357,0.23626709
1601392421368,397,-0.95654297,0.26141357,0.23626709
1601392421369,398,-0.9733887,0.22894287,0.26849365
1601392421369,399,-0.97558594,0.25335693,0.25335693
1601392421377,400,-0.97558594,0.25335693,0.25335693
1601392421378,401,-0.9733887,0.22894287,0.26849365
1601392421379,402,-0.97558594,0.25335693,0.25335693
1601392421380,403,-0.97558594,0.25335693,0.25335693
1601392421381,404,-0.9733887,0.22894287,0.26849365
1601392421381,405,-0.97265625,0.21917725,0.26556396
1601392421382,406,-0.9733887,0.22894287,0.26849365
1601392421385,407,-0.97265625,0.21917725,0.26556396
1601392421388,408,-0.9567871,0.23529053,0.24871826
1601392421393,409,-0.9733887,0.22894287,0.26849365
1601392421393,410,-0.9733887,0.22894287,0.26849365
1601392421394,411,-0.97265625,0.21917725,0.26556396
1601392421394,412,-0.97265625,0.21917725,0.26556396
1601392421394,413,-0.9567871,0.23529053,0.24871826
1601392421394,414,-0.96606445,0.24432373,0.23260498
1601392421397,415,-0.97265625,0.21917725,0.26556396
1601392421403,416,-0.9567871,0.23529053,0.24871826
1601392421403,417,-0.9567871,0.23529053,0.24871826
1601392421404,418,-0.96606445,0.24432373,0.23260498
1601392421405,419,-0.9633789,0.25750732,0.22698975
1601392421405,420,-0.97265625,0.21917725,0.26556396
1601392421406,421,-0.9633789,0.25750732,0.22698975
1601392421407,422,-0.96606445,0.24432373,0.23260498
1601392421418,423,-0.95458984,0.26361084,0.23919678
1601392421419,424,-0.95458984,0.26361084,0.23919678
1601392421420,425,-0.9567871,0.23529053,0.24871826
1601392421421,426,-0.9567871,0.23529053,0.24871826
1601392421422,427,-0.96606445,0.24432373,0.23260498
1601392421422,428,-0.9633789,0.25750732,0.22698975
1601392421423,429,-0.9309082,0.2711792,0.2501831
1601392421425,430,-0.9633789,0.25750732,0.22698975
1601392421425,431,-0.96606445,0.24432373,0.23260498
1601392421425,432,-0.9309082,0.2711792,0.2501831
1601392421427,433,-0.96606445,0.24432373,0.23260498
1601392421458,434,-0.9477539,0.26116943,0.2592163
1601392421459,435,-0.95458984,0.26361084,0.23919678
1601392421459,436,-0.95458984,0.26361084,0.23919678
1601392421460,437,-0.9633789,0.25750732,0.22698975
1601392421461,438,-0.9477539,0.26116943,0.2592163
1601392421463,439,-0.9633789,0.25750732,0.22698975
1601392421463,440,-0.9970703,0.24017334,0.2741089
1601392421463,441,-0.9970703,0.24017334,0.2741089
1601392421464,442,-0.9309082,0.2711792,0.2501831
1601392421465,443,-1.0273438,0.21844482,0.27435303
1601392421465,444,-1.0273438,0.21844482,0.27435303
1601392421466,445,-0.95458984,0.26361084,0.23919678
1601392421467,446,-0.9309082,0.2711792,0.2501831
1601392421468,447,-0.95458984,0.26361084,0.23919678
1601392421468,448,-0.9309082,0.2711792,0.2501831
1601392421469,449,-0.9477539,0.26116943,0.2592163
1601392421470,450,-0.9309082,0.2711792,0.2501831
1601392421471,451,-0.9658203,0.21014404,0.2543335
1601392421471,452,-0.9477539,0.26116943,0.2592163
1601392421472,453,-0.9658203,0.21014404,0.2543335
1601392421473,454,-0.9477539,0.26116943,0.2592163
1601392421474,455,-0.9970703,0.24017334,0.2741089
1601392421475,456,-1.0087891,0.2098999,0.23065186
1601392421476,457,-1.0087891,0.2098999,0.23065186
1601392421476,458,-0.9477539,0.26116943,0.2592163
1601392421476,459,-0.9675293,0.2453003,0.23406982
1601392421477,460,-0.9970703,0.24017334,0.2741089
1601392421478,461,-1.0273438,0.21844482,0.27435303
1601392421480,462,-1.0273438,0.21844482,0.27435303
1601392421480,463,-0.9970703,0.24017334,0.2741089
1601392421480,464,-0.9675293,0.2453003,0.23406982
1601392421481,465,-0.9658203,0.21014404,0.2543335
1601392421482,466,-0.9970703,0.24017334,0.2741089
1601392421483,467,-0.9658203,0.21014404,0.2543335
1601392421491,468,-0.86206055,0.24603271,0.28363037
1601392421491,469,-0.86206055,0.24603271,0.28363037
1601392421491,470,-0.9692383,0.21697998,0.33685303
1601392421491,471,-1.0273438,0.21844482,0.27435303
1601392421492,472,-1.0341797,0.20452881,0.3554077
1601392421492,473,-1.0273438,0.21844482,0.27435303
1601392421493,474,-1.0087891,0.2098999,0.23065186
1601392421503,475,-1.0087891,0.2098999,0.23065186
1601392421503,476,-0.9621582,0.27581787,0.35638428
1601392421504,477,-0.9658203,0.21014404,0.2543335
1601392421504,478,-0.9658203,0.21014404,0.2543335
1601392421504,479,-0.9692383,0.21697998,0.33685303
1601392421505,480,-1.0087891,0.2098999,0.23065186
1601392421505,481,-0.88623047,0.39300537,0.43084717
1601392421506,482,-0.9675293,0.2453003,0.23406982
1601392421506,483,-0.9675293,0.2453003,0.23406982
1601392421507,484,-1.0341797,0.20452881,0.3554077
1601392421507,485,-1.0087891,0.2098999,0.23065186
1601392421509,486,-0.9675293,0.2453003,0.23406982
1601392421510,487,-0.86206055,0.24603271,0.28363037
1601392421513,488,-0.9675293,0.2453003,0.23406982
1601392421515,489,-0.86206055,0.24603271,0.28363037
1601392421516,490,-0.86206055,0.24603271,0.28363037
1601392421523,491,-0.9692383,0.21697998,0.33685303
1601392421523,492,-0.81103516,0.54437256,0.5570679
1601392421524,493,-0.86206055,0.24603271,0.28363037
1601392421524,494,-0.9692383,0.21697998,0.33685303
1601392421526,495,-0.9692383,0.21697998,0.33685303
1601392421526,496,-0.9621582,0.27581787,0.35638428
1601392421532,497,-1.0341797,0.20452881,0.3554077
1601392421532,498,-0.79833984,0.6769409,0.69744873
1601392421533,499,-0.9692383,0.21697998,0.33685303
1601392421533,500,-1.0341797,0.20452881,0.3554077
1601392421533,501,-0.88623047,0.39300537,0.43084717
1601392421533,502,-1.0341797,0.20452881,0.3554077
1601392421539,503,-0.9621582,0.27581787,0.35638428
1601392421540,504,-0.5319824,0.68499756,0.7831421
1601392421540,505,-1.0341797,0.20452881,0.3554077
1601392421541,506,-0.9621582,0.27581787,0.35638428
1601392421542,507,-0.81103516,0.54437256,0.5570679
1601392421542,508,-0.9621582,0.27581787,0.35638428
1601392421544,509,-0.88623047,0.39300537,0.43084717
1601392421551,510,-0.88623047,0.39300537,0.43084717
1601392421551,511,-0.79833984,0.6769409,0.69744873
1601392421552,512,-0.9621582,0.27581787,0.35638428
1601392421552,513,-0.88623047,0.39300537,0.43084717
1601392421553,514,-0.18701172,0.4611206,0.793396
1601392421554,515,-0.81103516,0.54437256,0.5570679
1601392421557,516,-0.81103516,0.54437256,0.5570679
1601392421566,517,-0.88623047,0.39300537,0.43084717
1601392421567,518,-0.81103516,0.54437256,0.5570679
1601392421569,519,0.08544922,0.25091553,0.6893921
1601392421569,520,-0.79833984,0.6769409,0.69744873
1601392421569,521,-0.5319824,0.68499756,0.7831421
1601392421570,522,0.18261719,0.2597046,0.62005615
1601392421571,523,-0.18701172,0.4611206,0.793396
1601392421571,524,-0.81103516,0.54437256,0.5570679
1601392421572,525,-0.79833984,0.6769409,0.69744873
1601392421573,526,-0.79833984,0.6769409,0.69744873
1601392421574,527,-0.5319824,0.68499756,0.7831421
1601392421581,528,0.21582031,0.24261475,0.6161499
1601392421582,529,0.08544922,0.25091553,0.6893921
1601392421582,530,-0.5319824,0.68499756,0.7831421
1601392421582,531,0.1538086,0.2020874,0.62298584
1601392421582,532,-0.5319824,0.68499756,0.7831421
1601392421583,533,-0.18701172,0.4611206,0.793396
1601392421583,534,-0.04711914,0.45257568,0.73773193
1601392421583,535,-0.79833984,0.6769409,0.69744873
1601392421593,536,0.18261719,0.2597046,0.62005615
1601392421593,537,0.08544922,0.25091553,0.6893921
1601392421593,538,-0.18701172,0.4611206,0.793396
1601392421594,539,-0.18701172,0.4611206,0.793396
1601392421595,540,-0.21191406,0.4833374,0.7814331
1601392421596,541,-0.5319824,0.68499756,0.7831421
1601392421597,542,0.21582031,0.24261475,0.6161499
1601392421600,543,0.08544922,0.25091553,0.6893921
1601392421609,544,0.18261719,0.2597046,0.62005615
1601392421609,545,0.1538086,0.2020874,0.62298584
1601392421610,546,-0.24682617,0.48602295,0.807312
1601392421610,547,-0.18701172,0.4611206,0.793396
1601392421611,548,0.08544922,0.25091553,0.6893921
1601392421612,549,0.18261719,0.2597046,0.62005615
1601392421612,550,0.21582031,0.24261475,0.6161499
1601392421614,551,-0.04711914,0.45257568,0.73773193
1601392421616,552,0.08544922,0.25091553,0.6893921
1601392421617,553,0.21582031,0.24261475,0.6161499
1601392421629,554,0.1538086,0.2020874,0.62298584
1601392421630,555,-0.21191406,0.4833374,0.7814331
1601392421631,556,0.18261719,0.2597046,0.62005615
1601392421632,557,0.1538086,0.2020874,0.62298584
1601392421632,558,0.21582031,0.24261475,0.6161499
1601392421633,559,0.1538086,0.2020874,0.62298584
1601392421634,560,-0.04711914,0.45257568,0.73773193
1601392421634,561,-0.24682617,0.48602295,0.807312
1601392421635,562,0.18261719,0.2597046,0.62005615
1601392421637,563,0.21582031,0.24261475,0.6161499
1601392421637,564,-0.04711914,0.45257568,0.73773193
1601392421638,565,0.1538086,0.2020874,0.62298584
1601392421639,566,-0.04711914,0.45257568,0.73773193
1601392421639,567,-0.21191406,0.4833374,0.7814331
1601392421640,568,-0.21191406,0.4833374,0.7814331
1601392421641,569,-0.04711914,0.45257568,0.73773193
1601392421650,570,-0.24682617,0.48602295,0.807312
1601392421650,571,-0.24682617,0.48602295,0.807312
1601392421651,572,-0.21191406,0.4833374,0.7814331
1601392421652,573,-0.21191406,0.4833374,0.7814331
1601392421652,574,-0.24682617,0.48602295,0.807312
1601392421654,575,-0.24682617,0.48602295,0.807312
1601392423946,576,-0.26660156,0.5084839,0.77923584
1601392423952,577,-0.26660156,0.5084839,0.77923584
1601392423952,578,-0.26660156,0.5084839,0.77923584
1601392423953,579,-0.26660156,0.5084839,0.77923584
1601392423954,580,-0.26660156,0.5084839,0.77923584
1601392423954,581,-0.27661133,0.5648804,0.7506714
1601392423955,582,-0.26660156,0.5084839,0.77923584
1601392423965,583,-0.27661133,0.5648804,0.7506714
1601392423966,584,-0.27661133,0.5648804,0.7506714
1601392423966,585,-0.32202148,0.67181396,0.73114014
1601392423967,586,-0.27661133,0.5648804,0.7506714
1601392423968,587,-0.27661133,0.5648804,0.7506714
1601392423968,588,-0.32202148,0.67181396,0.73114014
1601392423969,589,-0.32202148,0.67181396,0.73114014
1601392423969,590,-0.27661133,0.5648804,0.7506714
1601392423970,591,-0.29052734,0.7081909,0.70184326
1601392423971,592,-0.29052734,0.7081909,0.70184326
1601392423971,593,-0.2109375,0.7328491,0.64764404
1601392423972,594,-0.32202148,0.67181396,0.73114014
1601392423972,595,-0.29052734,0.7081909,0.70184326
1601392423973,596,-0.32202148,0.67181396,0.73114014
1601392423975,597,-0.2109375,0.7328491,0.64764404
1601392423977,598,-0.19140625,0.7445679,0.63446045
1601392423979,599,-0.2109375,0.7328491,0.64764404
1601392423980,600,-0.19140625,0.7445679,0.63446045
1601392423982,601,-0.29052734,0.7081909,0.70184326
1601392423983,602,-0.2109375,0.7328491,0.64764404
1601392423985,603,-0.19140625,0.7445679,0.63446045
1601392423987,604,-0.15600586,0.7662964,0.57855225
1601392423988,605,-0.32202148,0.67181396,0.73114014
1601392423990,606,-0.15600586,0.7662964,0.57855225
1601392423997,607,-0.13476562,0.76483154,0.52923584
1601392423998,608,-0.13476562,0.76483154,0.52923584
1601392423998,609,-0.19140625,0.7445679,0.63446045
1601392423999,610,-0.29052734,0.7081909,0.70184326
1601392424000,611,-0.2109375,0.7328491,0.64764404
1601392424000,612,-0.29052734,0.7081909,0.70184326
1601392424002,613,-0.1237793,0.78582764,0.5582886
1601392424014,614,-0.14526367,0.7716675,0.5595093
1601392424015,615,-0.15600586,0.7662964,0.57855225
1601392424015,616,-0.19140625,0.7445679,0.63446045
1601392424016,617,-0.2109375,0.7328491,0.64764404
1601392424017,618,-0.15600586,0.7662964,0.57855225
1601392424017,619,-0.15600586,0.7662964,0.57855225
1601392424018,620,-0.19140625,0.7445679,0.63446045
1601392424019,621,-0.13476562,0.76483154,0.52923584
1601392424019,622,-0.15600586,0.7662964,0.57855225
1601392424020,623,-0.1237793,0.78582764,0.5582886
1601392424020,624,-0.13476562,0.76483154,0.52923584
1601392424021,625,-0.14526367,0.7716675,0.5595093
1601392424021,626,-0.1237793,0.78582764,0.5582886
1601392424022,627,-0.14575195,0.7728882,0.5570679
1601392424023,628,-0.1237793,0.78582764,0.5582886
1601392424028,629,-0.14575195,0.7728882,0.5570679
1601392424029,630,-0.13476562,0.76483154,0.52923584
1601392424029,631,-0.13671875,0.70306396,0.6156616
1601392424029,632,-0.14526367,0.7716675,0.5595093
1601392424030,633,-0.13671875,0.70306396,0.6156616
1601392424030,634,-0.14526367,0.7716675,0.5595093
1601392424032,635,-0.13476562,0.76483154,0.52923584
1601392424043,636,-0.13183594,0.68670654,0.66693115
1601392424043,637,-0.14575195,0.7728882,0.5570679
1601392424043,638,-0.13183594,0.68670654,0.66693115
1601392424043,639,-0.14575195,0.7728882,0.5570679
1601392424044,640,-0.1237793,0.78582764,0.5582886
1601392424044,641,-0.1237793,0.78582764,0.5582886
1601392424044,642,-0.1459961,0.68255615,0.61932373
1601392424045,643,-0.14526367,0.7716675,0.5595093
1601392424045,644,-0.1459961,0.68255615,0.61932373
1601392424045,645,-0.13671875,0.70306396,0.6156616
1601392424046,646,-0.15820312,0.70306396,0.62176514
1601392424046,647,-0.13671875,0.70306396,0.6156616
1601392424047,648,-0.17626953,0.6810913,0.65838623
1601392424053,649,-0.14575195,0.7728882,0.5570679
1601392424054,650,-0.15820312,0.70306396,0.62176514
1601392424054,651,-0.13183594,0.68670654,0.66693115
1601392424054,652,-0.14526367,0.7716675,0.5595093
1601392424055,653,-0.21459961,0.6618042,0.6744995
1601392424056,654,-0.13183594,0.68670654,0.66693115
1601392424059,655,-0.13671875,0.70306396,0.6156616
1601392424080,656,-0.17626953,0.6810913,0.65838623
1601392424080,657,-0.20410156,0.6708374,0.66400146
1601392424082,658,-0.14575195,0.7728882,0.5570679
1601392424082,659,-0.20043945,0.6757202,0.6317749
1601392424082,660,-0.13671875,0.70306396,0.6156616
1601392424083,661,-0.21166992,0.6950073,0.63983154
1601392424083,662,-0.13183594,0.68670654,0.66693115
1601392424085,663,-0.21459961,0.6618042,0.6744995
1601392424085,664,-0.1459961,0.68255615,0.61932373
1601392424086,665,-0.1459961,0.68255615,0.61932373
1601392424087,666,-0.13183594,0.68670654,0.66693115
1601392424087,667,-0.1459961,0.68255615,0.61932373
1601392424088,668,-0.25805664,0.6403198,0.66986084
1601392424089,669,-0.15820312,0.70306396,0.62176514
1601392424090,670,-0.15820312,0.70306396,0.62176514
1601392424091,671,-0.1459961,0.68255615,0.61932373
1601392424092,672,-0.15820312,0.70306396,0.62176514
1601392424093,673,-0.15820312,0.70306396,0.62176514
1601392424096,674,-0.25683594,0.6744995,0.64959717
1601392424107,675,-0.20410156,0.6708374,0.66400146
1601392424107,676,-0.17626953,0.6810913,0.65838623
1601392424107,677,-0.17626953,0.6810913,0.65838623
1601392424108,678,-0.17626953,0.6810913,0.65838623
1601392424109,679,-0.17626953,0.6810913,0.65838623
1601392424109,680,-0.21459961,0.6618042,0.6744995
1601392424110,681,-0.21459961,0.6618042,0.6744995
1601392424111,682,-0.20410156,0.6708374,0.66400146
1601392424112,683,-0.21459961,0.6618042,0.6744995
1601392424113,684,-0.24853516,0.6622925,0.6911011
1601392424114,685,-0.20043945,0.6757202,0.6317749
1601392424114,686,-0.20410156,0.6708374,0.66400146
1601392424114,687,-0.25830078,0.5543823,0.7616577
1601392424121,688,-0.20043945,0.6757202,0.6317749
1601392424121,689,-0.21459961,0.6618042,0.6744995
1601392424122,690,-0.21166992,0.6950073,0.63983154
1601392424123,691,-0.20410156,0.6708374,0.66400146
1601392424124,692,-0.20043945,0.6757202,0.6317749
1601392424125,693,-0.20043945,0.6757202,0.6317749
1601392424125,694,-0.23242188,0.4862671,0.7509155
1601392424128,695,-0.25805664,0.6403198,0.66986084
1601392424130,696,-0.25683594,0.6744995,0.64959717
1601392424132,697,-0.27783203,0.5194702,0.7406616
1601392424134,698,-0.20410156,0.6708374,0.66400146
1601392424142,699,-0.20043945,0.6757202,0.6317749
1601392424142,700,-0.24853516,0.6622925,0.6911011
1601392424143,701,-0.21166992,0.6950073,0.63983154
1601392424143,702,-0.28930664,0.5187378,0.7250366
1601392424143,703,-0.21166992,0.6950073,0.63983154
1601392424144,704,-0.21166992,0.6950073,0.63983154
1601392424144,705,-0.21166992,0.6950073,0.63983154
1601392424144,706,-0.28930664,0.5192261,0.73309326
1601392424145,707,-0.25805664,0.6403198,0.66986084
1601392424159,708,-0.25830078,0.5543823,0.7616577
1601392424159,709,-0.25805664,0.6403198,0.66986084
1601392424160,710,-0.25805664,0.6403198,0.66986084
1601392424160,711,-0.25683594,0.6744995,0.64959717
1601392424161,712,-0.25805664,0.6403198,0.66986084
1601392424162,713,-0.28295898,0.47479248,0.76483154
1601392424163,714,-0.25683594,0.6744995,0.64959717
1601392424163,715,-0.23242188,0.4862671,0.7509155
1601392424164,716,-0.25683594,0.6744995,0.64959717
1601392424165,717,-0.25683594,0.6744995,0.64959717
1601392424165,718,-0.24853516,0.6622925,0.6911011
1601392424166,719,-0.24853516,0.6622925,0.6911011
1601392424167,720,-0.27197266,0.49212646,0.7658081
1601392424168,721,-0.27783203,0.5194702,0.7406616
1601392424168,722,-0.24853516,0.6622925,0.6911011
1601392424170,723,-0.24853516,0.6622925,0.6911011
1601392424177,724,-0.25830078,0.5543823,0.7616577
1601392424177,725,-0.2590332,0.48553467,0.76727295
1601392424177,726,-0.25830078,0.5543823,0.7616577
1601392424178,727,-0.23242188,0.4862671,0.7509155
1601392424179,728,-0.25463867,0.48138428,0.78240967
1601392424180,729,-0.27783203,0.5194702,0.7406616
1601392424181,730,-0.28930664,0.5187378,0.7250366
1601392424186,731,-0.23242188,0.4862671,0.7509155
1601392424191,732,-0.25830078,0.5543823,0.7616577
1601392424191,733,-0.28930664,0.5192261,0.73309326
1601392424191,734,-0.25830078,0.5543823,0.7616577
1601392424191,735,-0.27783203,0.5194702,0.7406616
1601392424191,736,-0.28930664,0.5187378,0.7250366
1601392424195,737,-0.28930664,0.5192261,0.73309326
1601392424195,738,-0.28295898,0.47479248,0.76483154
1601392424196,739,-0.28930664,0.5187378,0.7250366
1601392424197,740,-0.23242188,0.4862671,0.7509155
1601392424200,741,-0.23242188,0.4862671,0.7509155
1601392424201,742,-0.28930664,0.5192261,0.73309326
1601392424201,743,-0.27783203,0.5194702,0.7406616
1601392424203,744,-0.28295898,0.47479248,0.76483154
1601392424204,745,-0.28295898,0.47479248,0.76483154
1601392424206,746,-0.28930664,0.5187378,0.7250366
1601392424207,747,-0.27197266,0.49212646,0.7658081
1601392424212,748,-0.27197266,0.49212646,0.7658081
1601392424212,749,-0.27197266,0.49212646,0.7658081
1601392424213,750,-0.2590332,0.48553467,0.76727295
1601392424213,751,-0.27783203,0.5194702,0.7406616
1601392424213,752,-0.2590332,0.48553467,0.76727295
1601392424215,753,-0.2590332,0.48553467,0.76727295
1601392424219,754,-0.25463867,0.48138428,0.78240967
1601392424219,755,-0.25463867,0.48138428,0.78240967
1601392424220,756,-0.28930664,0.5187378,0.7250366
1601392424220,757,-0.28930664,0.5192261,0.73309326
1601392424221,758,-0.25463867,0.48138428,0.78240967
1601392424224,759,-0.28930664,0.5192261,0.73309326
1601392424228,760,-0.28295898,0.47479248,0.76483154
1601392424229,761,-0.28295898,0.47479248,0.76483154
1601392424230,762,-0.27197266,0.49212646,0.7658081
1601392424232,763,-0.27197266,0.49212646,0.7658081
1601392424232,764,-0.2590332,0.48553467,0.76727295
1601392424234,765,-0.2590332,0.48553467,0.76727295
1601392424236,766,-0.25463867,0.48138428,0.78240967
1601392424241,767,-0.25463867,0.48138428,0.78240967
1601392426555,768,-0.23120117,0.5133667,0.7694702
1601392426557,769,-0.23120117,0.5133667,0.7694702
1601392426561,770,-0.23803711,0.52386475,0.7579956
1601392426561,771,-0.23803711,0.52386475,0.7579956
1601392426561,772,-0.23120117,0.5133667,0.7694702
1601392426566,773,-0.23120117,0.5133667,0.7694702
1601392426566,774,-0.23120117,0.5133667,0.7694702
1601392426568,775,-0.17749023,0.4857788,0.7616577
1601392426568,776,-0.23120117,0.5133667,0.7694702
1601392426570,777,-0.23803711,0.52386475,0.7579956
1601392426573,778,-0.17749023,0.4857788,0.7616577
1601392426576,779,-0.13671875,0.54803467,0.7645874
1601392426582,780,-0.083984375,0.57562256,0.8695679
1601392426582,781,-0.17749023,0.4857788,0.7616577
1601392426582,782,-0.064208984,0.35443115,0.79364014
1601392426583,783,-0.13671875,0.54803467,0.7645874
1601392426584,784,-0.23803711,0.52386475,0.7579956
1601392426584,785,-0.23803711,0.52386475,0.7579956
1601392426591,786,-0.23803711,0.52386475,0.7579956
1601392426592,787,-0.13671875,0.54803467,0.7645874
1601392426592,788,-0.06640625,0.49700928,0.8944702
1601392426593,789,-0.17749023,0.4857788,0.7616577
1601392426593,790,-0.17749023,0.4857788,0.7616577
1601392426594,791,-0.083984375,0.57562256,0.8695679
1601392426597,792,-0.17749023,0.4857788,0.7616577
1601392426599,793,-0.13671875,0.54803467,0.7645874
1601392426601,794,-0.064208984,0.35443115,0.79364014
1601392426604,795,-0.06640625,0.49700928,0.8944702
1601392426605,796,-0.13671875,0.54803467,0.7645874
1601392426608,797,-0.083984375,0.57562256,0.8695679
1601392426609,798,-0.11987305,0.5536499,0.7614136
1601392426613,799,-0.083984375,0.57562256,0.8695679
1601392426614,800,-0.064208984,0.35443115,0.79364014
1601392426617,801,-0.06640625,0.49700928,0.8944702
1601392426619,802,-0.11987305,0.5536499,0.7614136
1601392426624,803,-0.10668945,0.5236206,0.7579956
1601392426625,804,-0.11987305,0.5536499,0.7614136
1601392426625,805,-0.10668945,0.5236206,0.7579956
1601392426626,806,-0.13671875,0.54803467,0.7645874
1601392426627,807,-0.083984375,0.57562256,0.8695679
1601392426628,808,-0.10668945,0.5236206,0.7579956
1601392426657,809,-0.064208984,0.35443115,0.79364014
1601392426657,810,-0.0029296875,0.47747803,0.8168335
1601392426657,811,-0.064208984,0.35443115,0.79364014
1601392426658,812,-0.06640625,0.49700928,0.8944702
1601392426659,813,-0.083984375,0.57562256,0.8695679
1601392426660,814,-0.0029296875,0.47747803,0.8168335
1601392426661,815,-0.0029296875,0.47747803,0.8168335
1601392426661,816,0.020507812,0.4569702,0.88323975
1601392426662,817,0.020507812,0.4569702,0.88323975
1601392426663,818,-0.06640625,0.49700928,0.8944702
1601392426664,819,-0.11987305,0.5536499,0.7614136
1601392426665,820,-0.064208984,0.35443115,0.79364014
1601392426666,821,0.020507812,0.4569702,0.88323975
1601392426666,822,-0.06640625,0.49700928,0.8944702
1601392426667,823,0.027832031,0.46429443,0.8397827
1601392426668,824,0.027832031,0.46429443,0.8397827
1601392426669,825,0.010498047,0.45013428,0.8324585
1601392426670,826,-0.11987305,0.5536499,0.7614136
1601392426670,827,-0.038085938,0.41204834,0.9035034
1601392426671,828,0.027832031,0.46429443,0.8397827
1601392426672,829,-0.10668945,0.5236206,0.7579956
1601392426673,830,0.010498047,0.45013428,0.8324585
1601392426674,831,-0.0029296875,0.47747803,0.8168335
1601392426675,832,-0.038085938,0.41204834,0.9035034
1601392426676,833,-0.10668945,0.5236206,0.7579956
1601392426676,834,-0.016357422,0.5170288,0.84588623
1601392426677,835,-0.11987305,0.5536499,0.7614136
1601392426678,836,0.010498047,0.45013428,0.8324585
1601392426679,837,0.020507812,0.4569702,0.88323975
1601392426680,838,-0.016357422,0.5170288,0.84588623
1601392426682,839,-0.038085938,0.41204834,0.9035034
1601392426690,840,-0.016357422,0.5170288,0.84588623
1601392426690,841,-0.0029296875,0.47747803,0.8168335
1601392426691,842,0.027832031,0.46429443,0.8397827
1601392426692,843,0.024414062,0.45648193,0.77020264
1601392426692,844,-0.10668945,0.5236206,0.7579956
1601392426693,845,0.055664062,0.41815186,0.77215576
1601392426694,846,0.024414062,0.45648193,0.77020264
1601392426696,847,0.020507812,0.4569702,0.88323975
1601392426698,848,0.024414062,0.45648193,0.77020264
1601392426700,849,0.055664062,0.41815186,0.77215576
1601392426702,850,0.010498047,0.45013428,0.8324585
1601392426705,851,-0.038085938,0.41204834,0.9035034
1601392426706,852,-0.0029296875,0.47747803,0.8168335
1601392426707,853,0.03857422,0.3781128,0.8163452
1601392426708,854,0.055664062,0.41815186,0.77215576
1601392426713,855,-0.016357422,0.5170288,0.84588623
1601392426713,856,0.027832031,0.46429443,0.8397827
1601392426713,857,0.020507812,0.4569702,0.88323975
1601392426715,858,0.015625,0.44158936,0.807312
1601392426715,859,0.03857422,0.3781128,0.8163452
1601392426715,860,-0.005859375,0.54437256,0.8119507
1601392426718,861,0.024414062,0.45648193,0.77020264
1601392426720,862,0.055664062,0.41815186,0.77215576
1601392426729,863,0.015625,0.44158936,0.807312
1601392426730,864,0.015380859,0.5531616,0.7741089
1601392426730,865,0.027832031,0.46429443,0.8397827
1601392426730,866,0.03857422,0.3781128,0.8163452
1601392426730,867,0.010498047,0.45013428,0.8324585
1601392426730,868,0.1237793,0.58026123,0.83880615
1601392426731,869,-0.038085938,0.41204834,0.9035034
1601392426731,870,0.07104492,0.46331787,0.822937
1601392426731,871,0.010498047,0.45013428,0.8324585
1601392426736,872,0.03857422,0.3781128,0.8163452
1601392426737,873,0.015625,0.44158936,0.807312
1601392426737,874,-0.005859375,0.54437256,0.8119507
1601392426738,875,-0.005859375,0.54437256,0.8119507
1601392426739,876,-0.052734375,0.51776123,0.8222046
1601392426739,877,0.015625,0.44158936,0.807312
1601392426741,878,-0.016357422,0.5170288,0.84588623
1601392426744,879,-0.038085938,0.41204834,0.9035034
1601392426751,880,-0.005859375,0.54437256,0.8119507
1601392426752,881,0.015380859,0.5531616,0.7741089
1601392426753,882,0.015380859,0.5531616,0.7741089
1601392426754,883,0.1237793,0.58026123,0.83880615
1601392426755,884,-0.09790039,0.49749756,0.7592163
1601392426755,885,0.07104492,0.46331787,0.822937
1601392426756,886,0.015380859,0.5531616,0.7741089
1601392426757,887,0.1237793,0.58026123,0.83880615
1601392426763,888,0.024414062,0.45648193,0.77020264
1601392426765,889,-0.060791016,0.463562,0.8048706
1601392426765,890,-0.016357422,0.5170288,0.84588623
1601392426765,891,-0.052734375,0.51776123,0.8222046
1601392426765,892,-0.06713867,0.47357178,0.82977295
1601392426767,893,0.07104492,0.46331787,0.822937
1601392426767,894,-0.09790039,0.49749756,0.7592163
1601392426769,895,0.1237793,0.58026123,0.83880615
1601392426775,896,0.07104492,0.46331787,0.822937
1601392426775,897,-0.068847656,0.4081421,0.87005615
1601392426777,898,-0.052734375,0.51776123,0.8222046
1601392426777,899,-0.060791016,0.463562,0.8048706
1601392426777,900,0.024414062,0.45648193,0.77020264
1601392426780,901,-0.06713867,0.47357178,0.82977295
1601392426796,902,-0.052734375,0.51776123,0.8222046
1601392426797,903,0.0107421875,0.48431396,0.7999878
1601392426798,904,-0.09790039,0.49749756,0.7592163
1601392426799,905,0.055664062,0.41815186,0.77215576
1601392426800,906,0.055664062,0.41815186,0.77215576
1601392426800,907,-0.068847656,0.4081421,0.87005615
1601392426801,908,0.03857422,0.3781128,0.8163452
1601392426802,909,-0.09790039,0.49749756,0.7592163
1601392426803,910,0.03857422,0.3781128,0.8163452
1601392426804,911,0.0107421875,0.48431396,0.7999878
1601392426804,912,-0.060791016,0.463562,0.8048706
1601392426805,913,0.03564453,0.54193115,0.8151245
1601392426806,914,-0.060791016,0.463562,0.8048706
1601392426807,915,-0.06713867,0.47357178,0.82977295
1601392426808,916,-0.06713867,0.47357178,0.82977295
1601392426809,917,0.03564453,0.54193115,0.8151245
1601392426812,918,0.015625,0.44158936,0.807312
1601392426813,919,-0.0031738281,0.4701538,0.84295654
1601392426817,920,0.015625,0.44158936,0.807312
1601392426820,921,-0.068847656,0.4081421,0.87005615
1601392426820,922,-0.0031738281,0.4701538,0.84295654
1601392426821,923,-0.005859375,0.54437256,0.8119507
1601392426821,924,-0.068847656,0.4081421,0.87005615
1601392426821,925,-0.005859375,0.54437256,0.8119507
1601392426822,926,0.0107421875,0.48431396,0.7999878
1601392426822,927,-0.017089844,0.5014038,0.8295288
1601392426829,928,0.015380859,0.5531616,0.7741089
1601392426829,929,-0.017089844,0.5014038,0.8295288
1601392426829,930,0.015380859,0.5531616,0.7741089
1601392426829,931,0.0107421875,0.48431396,0.7999878
1601392426829,932,0.03564453,0.54193115,0.8151245
1601392426832,933,0.1237793,0.58026123,0.83880615
1601392426833,934,0.1237793,0.58026123,0.83880615
1601392426838,935,0.03564453,0.54193115,0.8151245
1601392426839,936,-0.0031738281,0.4701538,0.84295654
1601392426840,937,0.07104492,0.46331787,0.822937
1601392426840,938,0.07104492,0.46331787,0.822937
1601392426844,939,-0.0031738281,0.4701538,0.84295654
1601392426845,940,-0.017089844,0.5014038,0.8295288
1601392426846,941,-0.052734375,0.51776123,0.8222046
1601392426846,942,-0.052734375,0.51776123,0.8222046
1601392426851,943,-0.017089844,0.5014038,0.8295288
1601392426852,944,-0.09790039,0.49749756,0.7592163
1601392426853,945,-0.09790039,0.49749756,0.7592163
1601392426856,946,-0.060791016,0.463562,0.8048706
1601392426858,947,-0.06713867,0.47357178,0.82977295
1601392426860,948,-0.068847656,0.4081421,0.87005615
1601392426861,949,0.0107421875,0.48431396,0.7999878
1601392426863,950,-0.060791016,0.463562,0.8048706
1601392426865,951,-0.06713867,0.47357178,0.82977295
1601392426867,952,-0.068847656,0.4081421,0.87005615
1601392426869,953,0.0107421875,0.48431396,0.7999878
1601392426871,954,0.03564453,0.54193115,0.8151245
1601392426872,955,0.03564453,0.54193115,0.8151245
1601392426874,956,-0.0031738281,0.4701538,0.84295654
1601392426876,957,-0.0031738281,0.4701538,0.84295654
1601392426878,958,-0.017089844,0.5014038,0.8295288
1601392426879,959,-0.017089844,0.5014038,0.8295288
1601392429154,960,-0.08251953,0.5319214,0.8331909
1601392429157,961,-0.12988281,0.46868896,0.84539795
1601392429158,962,-0.08251953,0.5319214,0.8331909
1601392429161,963,-0.08251953,0.5319214,0.8331909
1601392429163,964,-0.08251953,0.5319214,0.8331909
1601392429165,965,-0.12988281,0.46868896,0.84539795
1601392429168,966,-0.17626953,0.4459839,0.83148193
1601392429169,967,-0.17626953,0.4459839,0.83148193
1601392429171,968,-0.18725586,0.4328003,0.8295288
1601392429173,969,-0.08251953,0.5319214,0.8331909
1601392429181,970,-0.12988281,0.46868896,0.84539795
1601392429181,971,-0.12988281,0.46868896,0.84539795
1601392429183,972,-0.12988281,0.46868896,0.84539795
1601392429183,973,-0.21826172,0.4069214,0.8258667
1601392429184,974,-0.18725586,0.4328003,0.8295288
1601392429184,975,-0.08251953,0.5319214,0.8331909
1601392429185,976,-0.17626953,0.4459839,0.83148193
1601392429187,977,-0.17626953,0.4459839,0.83148193
1601392429189,978,-0.18725586,0.4328003,0.8295288
1601392429195,979,-0.12988281,0.46868896,0.84539795
1601392429196,980,-0.18725586,0.4328003,0.8295288
1601392429196,981,-0.17626953,0.4459839,0.83148193
1601392429197,982,-0.20532227,0.32977295,0.82611084
1601392429198,983,-0.21826172,0.4069214,0.8258667
1601392429199,984,-0.21826172,0.4069214,0.8258667
1601392429201,985,-0.17626953,0.4459839,0.83148193
1601392429206,986,-0.18725586,0.4328003,0.8295288
1601392429207,987,-0.23388672,0.33441162,0.8788452
1601392429208,988,-0.20532227,0.32977295,0.82611084
1601392429208,989,-0.36669922,0.22161865,0.89105225
1601392429209,990,-0.21826172,0.4069214,0.8258667
1601392429210,991,-0.23388672,0.33441162,0.8788452
1601392429212,992,-0.21826172,0.4069214,0.8258667
1601392429219,993,-0.20532227,0.32977295,0.82611084
1601392429220,994,-0.20532227,0.32977295,0.82611084
1601392429220,995,-0.36669922,0.22161865,0.89105225
1601392429220,996,-0.18774414,0.14129639,0.7536011
1601392429220,997,-0.20532227,0.32977295,0.82611084
1601392429220,998,-0.18725586,0.4328003,0.8295288
1601392429226,999,-0.23388672,0.33441162,0.8788452
1601392429226,1000,-0.23388672,0.33441162,0.8788452
1601392429226,1001,-0.0068359375,-0.022033691,0.35858154
1601392429227,1002,-0.18774414,0.14129639,0.7536011
1601392429228,1003,-0.21826172,0.4069214,0.8258667
1601392429228,1004,-0.23388672,0.33441162,0.8788452
1601392429229,1005,-0.36669922,0.22161865,0.89105225
1601392429232,1006,-0.20532227,0.32977295,0.82611084
1601392429234,1007,-0.23388672,0.33441162,0.8788452
1601392429235,1008,-0.12231445,0.1281128,0.19744873
1601392429242,1009,-0.0068359375,-0.022033691,0.35858154
1601392429243,1010,-0.36669922,0.22161865,0.89105225
1601392429243,1011,-0.36669922,0.22161865,0.89105225
1601392429244,1012,-0.36669922,0.22161865,0.89105225
1601392429245,1013,-0.18774414,0.14129639,0.7536011
1601392429245,1014,-0.18774414,0.14129639,0.7536011
1601392429245,1015,-0.12231445,0.1281128,0.19744873
1601392429251,1016,-0.18774414,0.14129639,0.7536011
1601392429251,1017,-0.8640137,0.7946167,0.59954834
1601392429252,1018,-0.18774414,0.14129639,0.7536011
1601392429260,1019,-0.8640137,0.7946167,0.59954834
1601392429260,1020,-0.0068359375,-0.022033691,0.35858154
1601392429261,1021,-0.0068359375,-0.022033691,0.35858154
1601392429261,1022,-0.12231445,0.1281128,0.19744873
1601392429261,1023,-0.0068359375,-0.022033691,0.35858154
1601392429262,1024,-0.0068359375,-0.022033691,0.35858154
1601392429263,1025,-1.3925781,0.35028076,0.34075928
1601392429263,1026,-0.12231445,0.1281128,0.19744873
1601392429264,1027,-1.3925781,0.35028076,0.34075928
1601392429270,1028,-0.8640137,0.7946167,0.59954834
1601392429270,1029,-1.7189941,0.47772217,0.17767334
1601392429271,1030,-0.12231445,0.1281128,0.19744873
1601392429271,1031,-0.12231445,0.1281128,0.19744873
1601392429272,1032,-1.7189941,0.47772217,0.17767334
1601392429272,1033,-0.8640137,0.7946167,0.59954834
1601392429273,1034,-1.3925781,0.35028076,0.34075928
1601392429275,1035,-1.4423828,0.38250732,0.1071167
1601392429278,1036,-1.2270508,0.25653076,0.061462402
1601392429278,1037,-1.3925781,0.35028076,0.34075928
1601392429279,1038,-1.7189941,0.47772217,0.17767334
1601392429280,1039,-0.8640137,0.7946167,0.59954834
1601392429282,1040,-0.9873047,-0.18243408,-0.035705566
1601392429288,1041,-1.7189941,0.47772217,0.17767334
1601392429289,1042,-1.4423828,0.38250732,0.1071167
1601392429289,1043,-0.8640137,0.7946167,0.59954834
1601392429289,1044,-1.3925781,0.35028076,0.34075928
1601392429289,1045,-1.4423828,0.38250732,0.1071167
1601392429289,1046,-1.2270508,0.25653076,0.061462402
1601392429295,1047,-1.4423828,0.38250732,0.1071167
1601392429296,1048,-1.3925781,0.35028076,0.34075928
1601392429296,1049,-1.2270508,0.25653076,0.061462402
1601392429297,1050,-1.7189941,0.47772217,0.17767334
1601392429297,1051,-0.8244629,-0.09088135,0.090026855
1601392429297,1052,-1.4423828,0.38250732,0.1071167
1601392429301,1053,-0.9873047,-0.18243408,-0.035705566
1601392429307,1054,-1.2270508,0.25653076,0.061462402
1601392429308,1055,-0.9873047,-0.18243408,-0.035705566
1601392429309,1056,-0.9291992,-0.39093018,0.26068115
1601392429310,1057,-1.2270508,0.25653076,0.061462402
1601392429311,1058,-1.7189941,0.47772217,0.17767334
1601392429312,1059,-0.8244629,-0.09088135,0.090026855
1601392429319,1060,-0.9873047,-0.18243408,-0.035705566
1601392429320,1061,-0.8244629,-0.09088135,0.090026855
1601392429320,1062,-0.9873047,-0.18243408,-0.035705566
1601392429320,1063,-0.96899414,-0.54351807,0.07318115
1601392429321,1064,-1.4423828,0.38250732,0.1071167
1601392429321,1065,-0.9291992,-0.39093018,0.26068115
1601392429331,1066,-0.8244629,-0.09088135,0.090026855
1601392429331,1067,-0.9291992,-0.39093018,0.26068115
1601392429332,1068,-0.8244629,-0.09088135,0.090026855
1601392429332,1069,-0.9267578,-0.46710205,0.16448975
1601392429333,1070,-0.83984375,-0.4734497,0.21966553
1601392429336,1071,-0.96899414,-0.54351807,0.07318115
1601392429341,1072,-0.9291992,-0.39093018,0.26068115
1601392429341,1073,-0.96899414,-0.54351807,0.07318115
1601392429342,1074,-1.2270508,0.25653076,0.061462402
1601392429343,1075,-0.9291992,-0.39093018,0.26068115
1601392429343,1076,-0.96899414,-0.54351807,0.07318115
1601392429345,1077,-0.9267578,-0.46710205,0.16448975
1601392429348,1078,-0.9267578,-0.46710205,0.16448975
1601392429349,1079,-0.9267578,-0.46710205,0.16448975
1601392429355,1080,-0.96899414,-0.54351807,0.07318115
1601392429356,1081,-0.83984375,-0.4734497,0.21966553
1601392429357,1082,-0.74609375,-0.49395752,0.21356201
1601392429357,1083,-0.83984375,-0.4734497,0.21966553
1601392429358,1084,-0.71484375,-0.44195557,0.23284912
1601392429359,1085,-0.83984375,-0.4734497,0.21966553
1601392429362,1086,-0.9267578,-0.46710205,0.16448975
1601392429368,1087,-0.9873047,-0.18243408,-0.035705566
1601392429369,1088,-0.74609375,-0.49395752,0.21356201
1601392429369,1089,-0.75927734,-0.37652588,0.24822998
1601392429369,1090,-0.74609375,-0.49395752,0.21356201
1601392429369,1091,-0.74609375,-0.49395752,0.21356201
1601392429370,1092,-0.86621094,-0.30621338,0.35614014
1601392429376,1093,-0.8244629,-0.09088135,0.090026855
1601392429376,1094,-0.71484375,-0.44195557,0.23284912
1601392429377,1095,-0.9291992,-0.39093018,0.26068115
1601392429377,1096,-0.83984375,-0.4734497,0.21966553
1601392429378,1097,-0.71484375,-0.44195557,0.23284912
1601392429379,1098,-0.8708496,-0.31939697,0.42889404
1601392429382,1099,-0.75927734,-0.37652588,0.24822998
1601392429388,1100,-0.96899414,-0.54351807,0.07318115
1601392429388,1101,-0.74609375,-0.49395752,0.21356201
1601392429389,1102,-0.814209,-0.29400635,0.43621826
1601392429390,1103,-0.75927734,-0.37652588,0.24822998
1601392429390,1104,-0.71484375,-0.44195557,0.23284912
1601392429391,1105,-0.86621094,-0.30621338,0.35614014
1601392429399,1106,-0.9267578,-0.46710205,0.16448975
1601392429399,1107,-0.71484375,-0.44195557,0.23284912
1601392429400,1108,-0.7714844,-0.1795044,0.36834717
1601392429401,1109,-0.83984375,-0.4734497,0.21966553
1601392429401,1110,-0.75927734,-0.37652588,0.24822998
1601392429402,1111,-0.8708496,-0.31939697,0.42889404
1601392429403,1112,-0.86621094,-0.30621338,0.35614014
1601392429404,1113,-0.75927734,-0.37652588,0.24822998
1601392429406,1114,-0.79663086,-0.097473145,0.2387085
1601392429413,1115,-1.0795898,-0.054260254,0.11175537
1601392429414,1116,-0.814209,-0.29400635,0.43621826
1601392429415,1117,-0.8708496,-0.31939697,0.42889404
1601392429415,1118,-0.86621094,-0.30621338,0.35614014
1601392429416,1119,-0.74609375,-0.49395752,0.21356201
1601392429417,1120,-0.86621094,-0.30621338,0.35614014
1601392429417,1121,-1.3234863,-0.086242676,-0.07989502
1601392429423,1122,-0.7714844,-0.1795044,0.36834717
1601392429424,1123,-0.814209,-0.29400635,0.43621826
1601392429425,1124,-0.79663086,-0.097473145,0.2387085
1601392429425,1125,-1.0795898,-0.054260254,0.11175537
1601392429446,1126,-0.71484375,-0.44195557,0.23284912
1601392429447,1127,-0.8708496,-0.31939697,0.42889404
1601392429448,1128,-1.3234863,-0.086242676,-0.07989502
1601392429448,1129,-0.7714844,-0.1795044,0.36834717
1601392429449,1130,-0.8708496,-0.31939697,0.42889404
1601392429450,1131,-0.79663086,-0.097473145,0.2387085
1601392429450,1132,-0.75927734,-0.37652588,0.24822998
1601392429452,1133,-0.814209,-0.29400635,0.43621826
1601392429453,1134,-0.7714844,-0.1795044,0.36834717
1601392429455,1135,-0.86621094,-0.30621338,0.35614014
1601392429455,1136,-1.0795898,-0.054260254,0.11175537
1601392429456,1137,-0.814209,-0.29400635,0.43621826
1601392429456,1138,-1.3234863,-0.086242676,-0.07989502
1601392429456,1139,-0.7714844,-0.1795044,0.36834717
1601392429457,1140,-0.8708496,-0.31939697,0.42889404
1601392429459,1141,-0.79663086,-0.097473145,0.2387085
1601392429459,1142,-0.79663086,-0.097473145,0.2387085
1601392429460,1143,-1.0795898,-0.054260254,0.11175537
1601392429463,1144,-0.814209,-0.29400635,0.43621826
1601392429467,1145,-1.3234863,-0.086242676,-0.07989502
1601392429467,1146,-1.0795898,-0.054260254,0.11175537
1601392429468,1147,-0.7714844,-0.1795044,0.36834717
1601392429471,1148,-0.79663086,-0.097473145,0.2387085
1601392429471,1149,-1.3234863,-0.086242676,-0.07989502
1601392429473,1150,-1.0795898,-0.054260254,0.11175537
1601392429479,1151,-1.3234863,-0.086242676,-0.07989502
1601392431760,1152,-1.2004395,-0.12506104,-0.19586182
1601392431761,1153,-1.2004395,-0.12506104,-0.19586182
1601392431762,1154,-1.2004395,-0.12506104,-0.19586182
1601392431763,1155,-1.2004395,-0.12506104,-0.19586182
1601392431763,1156,-1.1608887,0.14007568,-0.097961426
1601392431764,1157,-1.1608887,0.14007568,-0.097961426
1601392431765,1158,-1.0324707,0.5631714,-0.01763916
1601392431765,1159,-1.1608887,0.14007568,-0.097961426
1601392431766,1160,-0.9489746,0.6532593,-0.022277832
1601392431767,1161,-1.0324707,0.5631714,-0.01763916
1601392431768,1162,-1.2004395,-0.12506104,-0.19586182
1601392431768,1163,-1.1608887,0.14007568,-0.097961426
1601392431769,1164,-1.0324707,0.5631714,-0.01763916
1601392431772,1165,-1.2004395,-0.12506104,-0.19586182
1601392431773,1166,-1.1608887,0.14007568,-0.097961426
1601392431786,1167,-0.9489746,0.6532593,-0.022277832
1601392431787,1168,-1.1608887,0.14007568,-0.097961426
1601392431788,1169,-0.82250977,0.5429077,-0.03765869
1601392431788,1170,-0.9489746,0.6532593,-0.022277832
1601392431789,1171,-1.0324707,0.5631714,-0.01763916
1601392431789,1172,-0.82250977,0.5429077,-0.03765869
1601392431790,1173,-0.82250977,0.5429077,-0.03765869
1601392431791,1174,-0.80029297,0.6239624,0.008483887
1601392431792,1175,-0.80029297,0.6239624,0.008483887
1601392431793,1176,-1.0324707,0.5631714,-0.01763916
1601392431793,1177,-1.0324707,0.5631714,-0.01763916
1601392431794,1178,-0.9489746,0.6532593,-0.022277832
1601392431796,1179,-0.80029297,0.6239624,0.008483887
1601392431797,1180,-0.78515625,0.7855835,0.09637451
1601392431805,1181,-0.78515625,0.7855835,0.09637451
1601392431805,1182,-0.9489746,0.6532593,-0.022277832
1601392431806,1183,-0.82250977,0.5429077,-0.03765869
1601392431807,1184,-0.78515625,0.7855835,0.09637451
1601392431807,1185,-0.9489746,0.6532593,-0.022277832
1601392431808,1186,-0.82250977,0.5429077,-0.03765869
1601392431808,1187,-0.67163086,0.7716675,0.050720215
1601392431811,1188,-0.82250977,0.5429077,-0.03765869
1601392431816,1189,-0.67163086,0.7716675,0.050720215
1601392431816,1190,-0.67163086,0.7716675,0.050720215
1601392431817,1191,-0.80029297,0.6239624,0.008483887
1601392431817,1192,-0.56762695,0.760437,0.042663574
1601392431818,1193,-0.78515625,0.7855835,0.09637451
1601392431818,1194,-0.6333008,0.7645874,0.047790527
1601392431820,1195,-0.56762695,0.760437,0.042663574
1601392431821,1196,-0.56762695,0.760437,0.042663574
1601392431823,1197,-0.80029297,0.6239624,0.008483887
1601392431838,1198,-0.7145996,0.7321167,0.18035889
1601392431838,1199,-0.80029297,0.6239624,0.008483887
1601392431839,1200,-0.78515625,0.7855835,0.09637451
1601392431839,1201,-0.6333008,0.7645874,0.047790527
1601392431840,1202,-0.67163086,0.7716675,0.050720215
1601392431841,1203,-0.78515625,0.7855835,0.09637451
1601392431841,1204,-0.66503906,0.5541382,0.277771
1601392431843,1205,-0.56762695,0.760437,0.042663574
1601392431844,1206,-0.67163086,0.7716675,0.050720215
1601392431844,1207,-0.56762695,0.760437,0.042663574
1601392431845,1208,-0.67163086,0.7716675,0.050720215
1601392431852,1209,-0.6254883,0.27630615,0.35662842
1601392431853,1210,-0.6333008,0.7645874,0.047790527
1601392431854,1211,-0.6333008,0.7645874,0.047790527
1601392431855,1212,-0.8041992,0.30291748,0.49212646
1601392431856,1213,-0.6333008,0.7645874,0.047790527
1601392431856,1214,-0.56762695,0.760437,0.042663574
1601392431857,1215,-0.7145996,0.7321167,0.18035889
1601392431858,1216,-0.7145996,0.7321167,0.18035889
1601392431865,1217,-0.7145996,0.7321167,0.18035889
1601392431865,1218,-0.9772949,0.27337646,0.36517334
1601392431866,1219,-0.6333008,0.7645874,0.047790527
1601392431867,1220,-0.7145996,0.7321167,0.18035889
1601392431868,1221,-0.66503906,0.5541382,0.277771
1601392431868,1222,-0.66503906,0.5541382,0.277771
1601392431871,1223,-1.5390625,0.010192871,0.45404053
1601392431872,1224,-0.66503906,0.5541382,0.277771
1601392431875,1225,-0.6254883,0.27630615,0.35662842
1601392431880,1226,-0.66503906,0.5541382,0.277771
1601392431881,1227,-0.6254883,0.27630615,0.35662842
1601392431881,1228,-1.6640625,0.40618896,0.60076904
1601392431881,1229,-0.8041992,0.30291748,0.49212646
1601392431881,1230,-0.7145996,0.7321167,0.18035889
1601392431881,1231,-0.8041992,0.30291748,0.49212646
1601392431886,1232,-0.6254883,0.27630615,0.35662842
1601392431887,1233,-0.6254883,0.27630615,0.35662842
1601392431888,1234,-0.8520508,0.27215576,0.5687866
1601392431889,1235,-0.9772949,0.27337646,0.36517334
1601392431889,1236,-0.66503906,0.5541382,0.277771
1601392431890,1237,-0.9772949,0.27337646,0.36517334
1601392431892,1238,-0.8041992,0.30291748,0.49212646
1601392431898,1239,-0.9772949,0.27337646,0.36517334
1601392431899,1240,-0.6254883,0.27630615,0.35662842
1601392431899,1241,-1.5390625,0.010192871,0.45404053
1601392431899,1242,-0.8041992,0.30291748,0.49212646
1601392431900,1243,0.020507812,0.4244995,0.49627686
1601392431900,1244,-0.9772949,0.27337646,0.36517334
1601392431902,1245,-1.5390625,0.010192871,0.45404053
1601392431908,1246,-1.6640625,0.40618896,0.60076904
1601392431908,1247,-0.6574707,1.1923218,0.26409912
1601392431909,1248,-1.5390625,0.010192871,0.45404053
1601392431910,1249,-1.5390625,0.010192871,0.45404053
1601392431911,1250,-0.8041992,0.30291748,0.49212646
1601392431912,1251,-1.6640625,0.40618896,0.60076904
1601392431912,1252,-0.8520508,0.27215576,0.5687866
1601392431915,1253,-0.8486328,0.54852295,0.5397339
1601392431927,1254,-1.6640625,0.40618896,0.60076904
1601392431927,1255,-0.9772949,0.27337646,0.36517334
1601392431928,1256,-0.8520508,0.27215576,0.5687866
1601392431928,1257,0.020507812,0.4244995,0.49627686
1601392431928,1258,-1.6640625,0.40618896,0.60076904
1601392431929,1259,-0.6230469,-0.13653564,0.6102905
1601392431929,1260,0.020507812,0.4244995,0.49627686
1601392431929,1261,-1.5390625,0.010192871,0.45404053
1601392431930,1262,-0.6574707,1.1923218,0.26409912
1601392431930,1263,-0.6574707,1.1923218,0.26409912
1601392431931,1264,-0.8520508,0.27215576,0.5687866
1601392431931,1265,-0.8520508,0.27215576,0.5687866
1601392431931,1266,-0.8486328,0.54852295,0.5397339
1601392431931,1267,-1.6640625,0.40618896,0.60076904
1601392431938,1268,-0.5900879,0.16204834,0.3649292
1601392431939,1269,0.020507812,0.4244995,0.49627686
1601392431939,1270,-0.8486328,0.54852295,0.5397339
1601392431939,1271,0.020507812,0.4244995,0.49627686
1601392431940,1272,-0.6574707,1.1923218,0.26409912
1601392431940,1273,-0.6230469,-0.13653564,0.6102905
1601392431940,1274,-0.7368164,0.16473389,0.29974365
1601392431941,1275,-0.8520508,0.27215576,0.5687866
1601392431941,1276,-0.5900879,0.16204834,0.3649292
1601392431944,1277,-0.6574707,1.1923218,0.26409912
1601392431944,1278,-0.8486328,0.54852295,0.5397339
1601392431959,1279,-0.77685547,0.2819214,0.21356201
1601392431959,1280,0.020507812,0.4244995,0.49627686
1601392431960,1281,-1.1152344,0.18011475,0.05340576
1601392431961,1282,-0.8486328,0.54852295,0.5397339
1601392431962,1283,-0.6230469,-0.13653564,0.6102905
1601392431963,1284,-0.6230469,-0.13653564,0.6102905
1601392431963,1285,-0.5900879,0.16204834,0.3649292
1601392431964,1286,-0.7368164,0.16473389,0.29974365
1601392431965,1287,-0.6574707,1.1923218,0.26409912
1601392431965,1288,-0.5900879,0.16204834,0.3649292
1601392431966,1289,-0.6230469,-0.13653564,0.6102905
1601392431968,1290,-0.7368164,0.16473389,0.29974365
1601392431970,1291,-0.77685547,0.2819214,0.21356201
1601392431974,1292,-0.7368164,0.16473389,0.29974365
1601392431975,1293,-0.5900879,0.16204834,0.3649292
1601392431975,1294,-1.6987305,0.38153076,0.43328857
1601392431975,1295,-0.8486328,0.54852295,0.5397339
1601392431976,1296,-0.77685547,0.2819214,0.21356201
1601392431976,1297,-0.6230469,-0.13653564,0.6102905
1601392431989,1298,-0.77685547,0.2819214,0.21356201
1601392431989,1299,-0.7368164,0.16473389,0.29974365
1601392431989,1300,-1.0769043,0.70111084,0.27166748
1601392431990,1301,-0.77685547,0.2819214,0.21356201
1601392431991,1302,-1.1152344,0.18011475,0.05340576
1601392431991,1303,-0.5900879,0.16204834,0.3649292
1601392431992,1304,-1.6987305,0.38153076,0.43328857
1601392431992,1305,-1.1152344,0.18011475,0.05340576
1601392431992,1306,-1.1152344,0.18011475,0.05340576
1601392431993,1307,-0.53686523,-0.08111572,0.4923706
1601392431993,1308,-1.1152344,0.18011475,0.05340576
1601392431994,1309,-0.6904297,0.37371826,0.29925537
1601392431994,1310,-1.6987305,0.38153076,0.43328857
1601392431995,1311,-0.84814453,-0.26446533,-0.013977051
1601392431995,1312,-1.6987305,0.38153076,0.43328857
1601392431996,1313,-1.6987305,0.38153076,0.43328857
1601392431996,1314,-0.7368164,0.16473389,0.29974365
1601392431996,1315,-1.0769043,0.70111084,0.27166748
1601392431997,1316,-1.0769043,0.70111084,0.27166748
1601392431998,1317,-1.5471191,0.67474365,0.4105835
1601392432000,1318,-0.77685547,0.2819214,0.21356201
1601392432001,1319,-0.53686523,-0.08111572,0.4923706
1601392432002,1320,-1.0769043,0.70111084,0.27166748
1601392432006,1321,-1.1152344,0.18011475,0.05340576
1601392432006,1322,-1.0769043,0.70111084,0.27166748
1601392432007,1323,-0.53686523,-0.08111572,0.4923706
1601392432007,1324,-0.6904297,0.37371826,0.29925537
1601392432007,1325,-0.53686523,-0.08111572,0.4923706
1601392432009,1326,-1.6987305,0.38153076,0.43328857
1601392432011,1327,-0.6904297,0.37371826,0.29925537
1601392432012,1328,-0.6904297,0.37371826,0.29925537
1601392432013,1329,-1.0769043,0.70111084,0.27166748
1601392432014,1330,-0.84814453,-0.26446533,-0.013977051
1601392432016,1331,-0.84814453,-0.26446533,-0.013977051
1601392432017,1332,-0.53686523,-0.08111572,0.4923706
1601392432018,1333,-1.5471191,0.67474365,0.4105835
1601392432021,1334,-0.6904297,0.37371826,0.29925537
1601392432022,1335,-1.5471191,0.67474365,0.4105835
1601392432028,1336,-0.84814453,-0.26446533,-0.013977051
1601392432028,1337,-0.84814453,-0.26446533,-0.013977051
1601392432028,1338,-0.53686523,-0.08111572,0.4923706
1601392432029,1339,-0.6904297,0.37371826,0.29925537
1601392432029,1340,-1.5471191,0.67474365,0.4105835
1601392432030,1341,-1.5471191,0.67474365,0.4105835
1601392432034,1342,-0.84814453,-0.26446533,-0.013977051
1601392432036,1343,-1.5471191,0.67474365,0.4105835
1601392434264,1344,-1.3913574,0.44158936,0.33441162
1601392434265,1345,-1.3913574,0.44158936,0.33441162
1601392434265,1346,-1.3913574,0.44158936,0.33441162
1601392434266,1347,-0.6784668,0.030944824,0.3456421
1601392434267,1348,-0.6784668,0.030944824,0.3456421
1601392434268,1349,-1.3913574,0.44158936,0.33441162
1601392434269,1350,-0.6784668,0.030944824,0.3456421
1601392434269,1351,-1.3913574,0.44158936,0.33441162
1601392434270,1352,-1.3913574,0.44158936,0.33441162
1601392434271,1353,-0.40771484,-0.28570557,0.3624878
1601392434274,1354,-0.40771484,-0.28570557,0.3624878
1601392434275,1355,-1.1242676,0.43499756,-0.1494751
1601392434278,1356,-1.1242676,0.43499756,-0.1494751
1601392434280,1357,-0.6784668,0.030944824,0.3456421
1601392434288,1358,-0.6784668,0.030944824,0.3456421
1601392434289,1359,-1.7033691,0.32318115,0.059020996
1601392434289,1360,-0.6784668,0.030944824,0.3456421
1601392434290,1361,-1.7033691,0.32318115,0.059020996
1601392434291,1362,-0.40771484,-0.28570557,0.3624878
1601392434292,1363,-1.3461914,0.018981934,0.17816162
1601392434299,1364,-1.3461914,0.018981934,0.17816162
1601392434300,1365,-0.40771484,-0.28570557,0.3624878
1601392434300,1366,-0.40771484,-0.28570557,0.3624878
1601392434300,1367,-1.1242676,0.43499756,-0.1494751
1601392434302,1368,-0.40771484,-0.28570557,0.3624878
1601392434302,1369,-0.97924805,-0.19122314,0.6383667
1601392434302,1370,-1.7033691,0.32318115,0.059020996
1601392434305,1371,-1.1242676,0.43499756,-0.1494751
1601392434312,1372,-1.7033691,0.32318115,0.059020996
1601392434312,1373,-1.1242676,0.43499756,-0.1494751
1601392434312,1374,-0.4987793,-0.016174316,0.34783936
1601392434313,1375,-1.3461914,0.018981934,0.17816162
1601392434314,1376,-1.7033691,0.32318115,0.059020996
1601392434314,1377,-1.1242676,0.43499756,-0.1494751
1601392434316,1378,-1.3461914,0.018981934,0.17816162
1601392434318,1379,-0.97924805,-0.19122314,0.6383667
1601392434321,1380,-1.7033691,0.32318115,0.059020996
1601392434322,1381,-0.69189453,-0.44830322,0.3427124
1601392434324,1382,-1.3461914,0.018981934,0.17816162
1601392434333,1383,-0.97924805,-0.19122314,0.6383667
1601392434334,1384,-1.3461914,0.018981934,0.17816162
1601392434334,1385,-0.97924805,-0.19122314,0.6383667
1601392434334,1386,-1.2456055,-0.023498535,0.37298584
1601392434335,1387,-0.4987793,-0.016174316,0.34783936
1601392434336,1388,-0.4987793,-0.016174316,0.34783936
1601392434339,1389,-0.4987793,-0.016174316,0.34783936
1601392434351,1390,-0.97924805,-0.19122314,0.6383667
1601392434351,1391,-0.69189453,-0.44830322,0.3427124
1601392434351,1392,-0.69189453,-0.44830322,0.3427124
1601392434351,1393,-1.2841797,0.27801514,0.2670288
1601392434352,1394,-0.97924805,-0.19122314,0.6383667
1601392434352,1395,-1.0654297,0.2868042,0.17669678
1601392434352,1396,-0.69189453,-0.44830322,0.3427124
1601392434353,1397,-0.4987793,-0.016174316,0.34783936
1601392434353,1398,-1.2456055,-0.023498535,0.37298584
1601392434353,1399,-0.69189453,-0.44830322,0.3427124
1601392434375,1400,-1.2456055,-0.023498535,0.37298584
1601392434376,1401,-0.70703125,0.24554443,0.0993042
1601392434377,1402,-1.2456055,-0.023498535,0.37298584
1601392434377,1403,-1.2841797,0.27801514,0.2670288
1601392434378,1404,-0.83740234,0.2579956,0.16790771
1601392434379,1405,-1.2456055,-0.023498535,0.37298584
1601392434380,1406,-1.0654297,0.2868042,0.17669678
1601392434380,1407,-0.94018555,0.35980225,0.031188965
1601392434381,1408,-0.4987793,-0.016174316,0.34783936
1601392434382,1409,-1.2841797,0.27801514,0.2670288
1601392434383,1410,-0.69189453,-0.44830322,0.3427124
1601392434383,1411,-1.2841797,0.27801514,0.2670288
1601392434384,1412,-1.2456055,-0.023498535,0.37298584
1601392434385,1413,-0.70703125,0.24554443,0.0993042
1601392434385,1414,-0.99438477,0.3703003,0.018981934
1601392434386,1415,-0.83740234,0.2579956,0.16790771
1601392434388,1416,-1.0654297,0.2868042,0.17669678
1601392434389,1417,-1.2841797,0.27801514,0.2670288
1601392434389,1418,-1.0654297,0.2868042,0.17669678
1601392434390,1419,-1.0654297,0.2868042,0.17669678
1601392434400,1420,-0.94018555,0.35980225,0.031188965
1601392434401,1421,-0.9277344,0.21697998,0.058044434
1601392434401,1422,-0.70703125,0.24554443,0.0993042
1601392434402,1423,-1.2841797,0.27801514,0.2670288
1601392434403,1424,-0.70703125,0.24554443,0.0993042
1601392434403,1425,-0.70703125,0.24554443,0.0993042
1601392434405,1426,-0.83740234,0.2579956,0.16790771
1601392434406,1427,-0.99438477,0.3703003,0.018981934
1601392434406,1428,-0.83740234,0.2579956,0.16790771
1601392434407,1429,-0.9277344,0.21697998,0.058044434
1601392434413,1430,-0.99072266,0.29803467,-0.0015258789
1601392434414,1431,-0.94018555,0.35980225,0.031188965
1601392434415,1432,-0.83740234,0.2579956,0.16790771
1601392434415,1433,-1.0654297,0.2868042,0.17669678
1601392434416,1434,-0.94018555,0.35980225,0.031188965
1601392434417,1435,-0.99072266,0.29803467,-0.0015258789
1601392434418,1436,-0.99438477,0.3703003,0.018981934
1601392434424,1437,-0.99438477,0.3703003,0.018981934
1601392434425,1438,-0.94018555,0.35980225,0.031188965
1601392434425,1439,-0.70703125,0.24554443,0.0993042
1601392434426,1440,-0.9914551,0.40863037,0.06365967
1601392434427,1441,-0.9914551,0.40863037,0.06365967
1601392434427,1442,-0.83740234,0.2579956,0.16790771
1601392434428,1443,-0.9277344,0.21697998,0.058044434
1601392434432,1444,-0.9277344,0.21697998,0.058044434
1601392434436,1445,-0.99438477,0.3703003,0.018981934
1601392434437,1446,-0.94018555,0.35980225,0.031188965
1601392434437,1447,-1.0673828,0.3925171,0.094177246
1601392434439,1448,-0.99072266,0.29803467,-0.0015258789
1601392434440,1449,-1.0673828,0.3925171,0.094177246
1601392434440,1450,-0.99072266,0.29803467,-0.0015258789
1601392434445,1451,-0.9277344,0.21697998,0.058044434
1601392434446,1452,-0.99438477,0.3703003,0.018981934
1601392434447,1453,-0.9914551,0.40863037,0.06365967
1601392434447,1454,-1.0114746,0.37738037,0.12957764
1601392434448,1455,-1.0114746,0.37738037,0.12957764
1601392434449,1456,-0.9914551,0.40863037,0.06365967
1601392434451,1457,-0.99072266,0.29803467,-0.0015258789
1601392434452,1458,-0.9560547,0.054138184,0.17718506
1601392434455,1459,-1.0471191,0.22088623,0.18695068
1601392434457,1460,-0.9277344,0.21697998,0.058044434
1601392434468,1461,-0.9914551,0.40863037,0.06365967
1601392434469,1462,-1.0673828,0.3925171,0.094177246
1601392434470,1463,-1.0673828,0.3925171,0.094177246
1601392434471,1464,-1.0644531,0.13616943,0.16546631
1601392434471,1465,-0.99072266,0.29803467,-0.0015258789
1601392434472,1466,-1.0673828,0.3925171,0.094177246
1601392434473,1467,-0.9560547,0.054138184,0.17718506
1601392434475,1468,-1.0114746,0.37738037,0.12957764
1601392434483,1469,-1.0036621,0.07220459,0.124938965
1601392434484,1470,-1.0471191,0.22088623,0.18695068
1601392434485,1471,-1.0114746,0.37738037,0.12957764
1601392434486,1472,-0.9914551,0.40863037,0.06365967
1601392434487,1473,-1.0114746,0.37738037,0.12957764
1601392434488,1474,-0.9560547,0.054138184,0.17718506
1601392434493,1475,-0.9301758,0.054870605,0.03265381
1601392434493,1476,-1.0644531,0.13616943,0.16546631
1601392434493,1477,-0.8925781,0.15765381,-0.07623291
1601392434494,1478,-1.0036621,0.07220459,0.124938965
1601392434494,1479,-0.9560547,0.054138184,0.17718506
1601392434494,1480,-1.0471191,0.22088623,0.18695068
1601392434497,1481,-0.9560547,0.054138184,0.17718506
1601392434498,1482,-1.0673828,0.3925171,0.094177246
1601392434498,1483,-0.89501953,0.28582764,-0.17071533
1601392434505,1484,-1.0471191,0.22088623,0.18695068
1601392434505,1485,-1.0644531,0.13616943,0.16546631
1601392434505,1486,-1.0471191,0.22088623,0.18695068
1601392434505,1487,-0.9301758,0.054870605,0.03265381
1601392434506,1488,-1.0236816,0.33343506,-0.20880127
1601392434506,1489,-0.8925781,0.15765381,-0.07623291
1601392434513,1490,-1.0644531,0.13616943,0.16546631
1601392434513,1491,-1.0114746,0.37738037,0.12957764
1601392434513,1492,-1.0036621,0.07220459,0.124938965
1601392434513,1493,-1.0302734,0.3163452,-0.27301025
1601392434514,1494,-0.89501953,0.28582764,-0.17071533
1601392434514,1495,-1.0644531,0.13616943,0.16546631
1601392434514,1496,-1.0036621,0.07220459,0.124938965
1601392434519,1497,-0.9560547,0.054138184,0.17718506
1601392434519,1498,-0.9301758,0.054870605,0.03265381
1601392434519,1499,-0.9707031,0.23382568,-0.23980713
1601392434520,1500,-1.0236816,0.33343506,-0.20880127
1601392434520,1501,-1.0036621,0.07220459,0.124938965
1601392434520,1502,-0.99609375,0.24481201,-0.23052979
1601392434525,1503,-1.0471191,0.22088623,0.18695068
1601392434526,1504,-0.9301758,0.054870605,0.03265381
1601392434526,1505,-1.0302734,0.3163452,-0.27301025
1601392434526,1506,-0.8925781,0.15765381,-0.07623291
1601392434527,1507,-0.9301758,0.054870605,0.03265381
1601392434534,1508,-1.0644531,0.13616943,0.16546631
1601392434534,1509,-0.8925781,0.15765381,-0.07623291
1601392434534,1510,-0.89501953,0.28582764,-0.17071533
1601392434535,1511,-0.9707031,0.23382568,-0.23980713
1601392434535,1512,-0.8925781,0.15765381,-0.07623291
1601392434535,1513,-0.99609375,0.24481201,-0.23052979
1601392434536,1514,-1.0236816,0.33343506,-0.20880127
1601392434536,1515,-0.89501953,0.28582764,-0.17071533
1601392434536,1516,-1.0302734,0.3163452,-0.27301025
1601392434537,1517,-1.0236816,0.33343506,-0.20880127
1601392434538,1518,-1.0036621,0.07220459,0.124938965
1601392434543,1519,-0.89501953,0.28582764,-0.17071533
1601392434544,1520,-0.9707031,0.23382568,-0.23980713
1601392434545,1521,-0.9301758,0.054870605,0.03265381
1601392434546,1522,-1.0302734,0.3163452,-0.27301025
1601392434551,1523,-1.0236816,0.33343506,-0.20880127
1601392434551,1524,-0.8925781,0.15765381,-0.07623291
1601392434552,1525,-0.99609375,0.24481201,-0.23052979
1601392434553,1526,-0.9707031,0.23382568,-0.23980713
1601392434560,1527,-1.0302734,0.3163452,-0.27301025
1601392434560,1528,-0.89501953,0.28582764,-0.17071533
1601392434561,1529,-0.99609375,0.24481201,-0.23052979
1601392434564,1530,-1.0236816,0.33343506,-0.20880127
1601392434567,1531,-0.9707031,0.23382568,-0.23980713
1601392434567,1532,-1.0302734,0.3163452,-0.27301025
1601392434572,1533,-0.99609375,0.24481201,-0.23052979
1601392434572,1534,-0.9707031,0.23382568,-0.23980713
1601392434573,1535,-0.99609375,0.24481201,-0.23052979
1601392436853,1536,-1.0292969,0.369812,-0.27593994
1601392436861,1537,-1.0292969,0.369812,-0.27593994
1601392436861,1538,-1.0292969,0.369812,-0.27593994
1601392436862,1539,-1.0292969,0.369812,-0.27593994
1601392436863,1540,-1.046875,0.22894287,-0.23931885
1601392436863,1541,-1.046875,0.22894287,-0.23931885
1601392436864,1542,-1.0292969,0.369812,-0.27593994
1601392436865,1543,-1.0292969,0.369812,-0.27593994
1601392436867,1544,-1.046875,0.22894287,-0.23931885
1601392436869,1545,-1.046875,0.22894287,-0.23931885
1601392436873,1546,-1.0102539,0.08099365,-0.31573486
1601392436874,1547,-1.046875,0.22894287,-0.23931885
1601392436880,1548,-1.0102539,0.08099365,-0.31573486
1601392436880,1549,-1.0102539,0.08099365,-0.31573486
1601392436881,1550,-1.046875,0.22894287,-0.23931885
1601392436882,1551,-0.9567871,0.061950684,-0.37750244
1601392436883,1552,-1.0102539,0.08099365,-0.31573486
1601392436883,1553,-1.0102539,0.08099365,-0.31573486
1601392436886,1554,-0.9567871,0.061950684,-0.37750244
1601392436892,1555,-1.0102539,0.08099365,-0.31573486
1601392436893,1556,-0.8937988,0.090270996,-0.4661255
1601392436894,1557,-0.9567871,0.061950684,-0.37750244
1601392436895,1558,-0.9567871,0.061950684,-0.37750244
1601392436896,1559,-0.9567871,0.061950684,-0.37750244
1601392436897,1560,-0.8937988,0.090270996,-0.4661255
1601392436897,1561,-0.9567871,0.061950684,-0.37750244
1601392436898,1562,-0.8845215,0.14935303,-0.46783447
1601392436904,1563,-0.8937988,0.090270996,-0.4661255
1601392436905,1564,-0.8937988,0.090270996,-0.4661255
1601392436906,1565,-0.8937988,0.090270996,-0.4661255
1601392436907,1566,-0.8937988,0.090270996,-0.4661255
1601392436907,1567,-1.0036621,0.06585693,-0.30499268
1601392436908,1568,-0.8845215,0.14935303,-0.46783447
1601392436909,1569,-0.8845215,0.14935303,-0.46783447
1601392436911,1570,-0.8845215,0.14935303,-0.46783447
1601392436913,1571,-1.0036621,0.06585693,-0.30499268
1601392436914,1572,-0.9499512,0.039245605,-0.3352661
1601392436916,1573,-0.8881836,0.27874756,-0.48394775
1601392436918,1574,-0.93310547,0.28167725,-0.34332275
1601392436924,1575,-1.0036621,0.06585693,-0.30499268
1601392436924,1576,-0.8845215,0.14935303,-0.46783447
1601392436925,1577,-0.8845215,0.14935303,-0.46783447
1601392436925,1578,-0.9499512,0.039245605,-0.3352661
1601392436926,1579,-1.0036621,0.06585693,-0.30499268
1601392436927,1580,-0.94433594,0.24261475,-0.3743286
1601392436929,1581,-0.9499512,0.039245605,-0.3352661
1601392436931,1582,-1.0036621,0.06585693,-0.30499268
1601392436942,1583,-0.9499512,0.039245605,-0.3352661
1601392436942,1584,-0.9499512,0.039245605,-0.3352661
1601392436942,1585,-1.0036621,0.06585693,-0.30499268
1601392436942,1586,-0.8881836,0.27874756,-0.48394775
1601392436943,1587,-0.8881836,0.27874756,-0.48394775
1601392436943,1588,-0.93310547,0.28167725,-0.34332275
1601392436943,1589,-0.93310547,0.28167725,-0.34332275
1601392436944,1590,-0.8881836,0.27874756,-0.48394775
1601392436944,1591,-0.8881836,0.27874756,-0.48394775
1601392436944,1592,-0.93310547,0.28167725,-0.34332275
1601392436945,1593,-0.892334,0.022155762,-0.5720825
1601392436945,1594,-0.94433594,0.24261475,-0.3743286
1601392436947,1595,-0.94433594,0.24261475,-0.3743286
1601392436949,1596,-0.93310547,0.28167725,-0.34332275
1601392436954,1597,-0.8967285,0.24383545,-0.46514893
1601392436955,1598,-0.892334,0.022155762,-0.5720825
1601392436955,1599,-0.9499512,0.039245605,-0.3352661
1601392436956,1600,-0.98876953,0.08441162,-0.14483643
1601392436956,1601,-0.892334,0.022155762,-0.5720825
1601392436957,1602,-0.94433594,0.24261475,-0.3743286
1601392436959,1603,-0.8967285,0.24383545,-0.46514893
1601392436966,1604,-0.8881836,0.27874756,-0.48394775
1601392436966,1605,-1.2668457,-0.059631348,-0.25201416
1601392436966,1606,-0.8967285,0.24383545,-0.46514893
1601392436967,1607,-0.892334,0.022155762,-0.5720825
1601392436968,1608,-0.94433594,0.24261475,-0.3743286
1601392436968,1609,-0.98876953,0.08441162,-0.14483643
1601392436972,1610,-0.93310547,0.28167725,-0.34332275
1601392436984,1611,-0.98876953,0.08441162,-0.14483643
1601392436985,1612,-0.8967285,0.24383545,-0.46514893
1601392436985,1613,-1.2668457,-0.059631348,-0.25201416
1601392436985,1614,-0.98876953,0.08441162,-0.14483643
1601392436985,1615,-1.4377441,-0.21612549,0.023620605
1601392436985,1616,-0.94433594,0.24261475,-0.3743286
1601392436986,1617,-1.3103027,-0.062072754,0.15545654
1601392436986,1618,-0.892334,0.022155762,-0.5720825
1601392436986,1619,-1.2668457,-0.059631348,-0.25201416
1601392436987,1620,-0.8967285,0.24383545,-0.46514893
1601392436987,1621,-1.2668457,-0.059631348,-0.25201416
1601392436988,1622,-0.892334,0.022155762,-0.5720825
1601392436994,1623,-1.4377441,-0.21612549,0.023620605
1601392436994,1624,-1.4377441,-0.21612549,0.023620605
1601392436995,1625,-0.98876953,0.08441162,-0.14483643
1601392436995,1626,-1.4377441,-0.21612549,0.023620605
1601392436995,1627,-1.0266113,0.16107178,0.10760498
1601392436995,1628,-0.8967285,0.24383545,-0.46514893
1601392437021,1629,-1.3103027,-0.062072754,0.15545654
1601392437021,1630,-1.3103027,-0.062072754,0.15545654
1601392437022,1631,-1.2668457,-0.059631348,-0.25201416
1601392437022,1632,-0.8996582,0.50286865,0.023376465
1601392437023,1633,-0.98876953,0.08441162,-0.14483643
1601392437024,1634,-1.4377441,-0.21612549,0.023620605
1601392437024,1635,-1.2668457,-0.059631348,-0.25201416
1601392437025,1636,-0.8210449,0.4623413,-0.12799072
1601392437025,1637,-1.4377441,-0.21612549,0.023620605
1601392437026,1638,-1.0266113,0.16107178,0.10760498
1601392437026,1639,-1.3103027,-0.062072754,0.15545654
1601392437027,1640,-1.0266113,0.16107178,0.10760498
1601392437027,1641,-1.0266113,0.16107178,0.10760498
1601392437028,1642,-0.8996582,0.50286865,0.023376465
1601392437029,1643,-0.9099121,0.35882568,-0.12701416
1601392437029,1644,-0.8210449,0.4623413,-0.12799072
1601392437030,1645,-0.8996582,0.50286865,0.023376465
1601392437030,1646,-0.9099121,0.35882568,-0.12701416
1601392437031,1647,-1.3103027,-0.062072754,0.15545654
1601392437031,1648,-0.8996582,0.50286865,0.023376465
1601392437032,1649,-1.3103027,-0.062072754,0.15545654
1601392437033,1650,-1.1171875,0.22039795,-0.22613525
1601392437033,1651,-0.8210449,0.4623413,-0.12799072
1601392437034,1652,-0.8210449,0.4623413,-0.12799072
1601392437034,1653,-0.9099121,0.35882568,-0.12701416
1601392437035,1654,-1.0266113,0.16107178,0.10760498
1601392437037,1655,-1.4599609,-0.47784424,0.3805542
1601392437037,1656,-0.8996582,0.50286865,0.023376465
1601392437037,1657,-1.0373535,-0.1716919,0.9203491
1601392437039,1658,-1.1171875,0.22039795,-0.22613525
1601392437039,1659,-0.9099121,0.35882568,-0.12701416
1601392437039,1660,-1.1171875,0.22039795,-0.22613525
1601392437040,1661,-1.0266113,0.16107178,0.10760498
1601392437040,1662,-0.8210449,0.4623413,-0.12799072
1601392437042,1663,-0.9099121,0.35882568,-0.12701416
1601392437042,1664,-0.8679199,0.3961792,0.71258545
1601392437042,1665,-1.4599609,-0.47784424,0.3805542
1601392437043,1666,-1.1171875,0.22039795,-0.22613525
1601392437044,1667,-1.4599609,-0.47784424,0.3805542
1601392437046,1668,-0.8996582,0.50286865,0.023376465
1601392437048,1669,-0.73583984,0.42010498,0.38153076
1601392437059,1670,-0.9013672,-0.09283447,0.3554077
1601392437059,1671,-1.0373535,-0.1716919,0.9203491
1601392437059,1672,-1.1171875,0.22039795,-0.22613525
1601392437060,1673,-0.8210449,0.4623413,-0.12799072
1601392437060,1674,-1.0373535,-0.1716919,0.9203491
1601392437060,1675,-1.4599609,-0.47784424,0.3805542
1601392437060,1676,-0.923584,-0.21124268,0.43060303
1601392437060,1677,-1.0373535,-0.1716919,0.9203491
1601392437061,1678,-0.8679199,0.3961792,0.71258545
1601392437061,1679,-1.4599609,-0.47784424,0.3805542
1601392437061,1680,-0.8679199,0.3961792,0.71258545
1601392437066,1681,-0.9099121,0.35882568,-0.12701416
1601392437066,1682,-0.8774414,-0.13677979,0.61395264
1601392437067,1683,-1.1171875,0.22039795,-0.22613525
1601392437067,1684,-0.84765625,-0.09234619,0.82733154
1601392437067,1685,-1.0373535,-0.1716919,0.9203491
1601392437067,1686,-0.9604492,0.28704834,0.49310303
1601392437077,1687,-0.73583984,0.42010498,0.38153076
1601392437078,1688,-0.8679199,0.3961792,0.71258545
1601392437079,1689,-1.4599609,-0.47784424,0.3805542
1601392437080,1690,-0.73583984,0.42010498,0.38153076
1601392437080,1691,-0.8679199,0.3961792,0.71258545
1601392437080,1692,-1.161377,0.42059326,0.3571167
1601392437081,1693,-0.73583984,0.42010498,0.38153076
1601392437082,1694,-0.9013672,-0.09283447,0.3554077
1601392437084,1695,-1.0373535,-0.1716919,0.9203491
1601392437084,1696,-0.9013672,-0.09283447,0.3554077
1601392437085,1697,-0.73583984,0.42010498,0.38153076
1601392437087,1698,-0.9013672,-0.09283447,0.3554077
1601392437093,1699,-0.923584,-0.21124268,0.43060303
1601392437093,1700,-0.8679199,0.3961792,0.71258545
1601392437094,1701,-0.923584,-0.21124268,0.43060303
1601392437095,1702,-0.9013672,-0.09283447,0.3554077
1601392437096,1703,-0.8774414,-0.13677979,0.61395264
1601392437096,1704,-0.923584,-0.21124268,0.43060303
1601392437099,1705,-0.73583984,0.42010498,0.38153076
1601392437105,1706,-0.8774414,-0.13677979,0.61395264
1601392437105,1707,-0.923584,-0.21124268,0.43060303
1601392437105,1708,-0.84765625,-0.09234619,0.82733154
1601392437105,1709,-0.8774414,-0.13677979,0.61395264
1601392437106,1710,-0.9013672,-0.09283447,0.3554077
1601392437121,1711,-0.84765625,-0.09234619,0.82733154
1601392437121,1712,-0.8774414,-0.13677979,0.61395264
1601392437123,1713,-0.9604492,0.28704834,0.49310303
1601392437123,1714,-0.84765625,-0.09234619,0.82733154
1601392437125,1715,-0.9604492,0.28704834,0.49310303
1601392437125,1716,-0.923584,-0.21124268,0.43060303
1601392437125,1717,-0.9604492,0.28704834,0.49310303
1601392437125,1718,-0.84765625,-0.09234619,0.82733154
1601392437127,1719,-1.161377,0.42059326,0.3571167
1601392437128,1720,-0.9604492,0.28704834,0.49310303
1601392437128,1721,-1.161377,0.42059326,0.3571167
1601392437129,1722,-1.161377,0.42059326,0.3571167
1601392437136,1723,-0.8774414,-0.13677979,0.61395264
1601392437137,1724,-1.161377,0.42059326,0.3571167
1601392437140,1725,-0.84765625,-0.09234619,0.82733154
1601392437142,1726,-0.9604492,0.28704834,0.49310303
1601392437143,1727,-1.161377,0.42059326,0.3571167
1601392439554,1728,-0.63427734,0.2579956,0.4520874
1601392439554,1729,-0.63427734,0.2579956,0.4520874
1601392439555,1730,-0.63427734,0.2579956,0.4520874
1601392439557,1731,-0.63427734,0.2579956,0.4520874
1601392439557,1732,-0.63427734,0.2579956,0.4520874
1601392439557,1733,-0.52783203,-0.17218018,0.043395996
1601392439558,1734,-0.63427734,0.2579956,0.4520874
1601392439566,1735,-0.52783203,-0.17218018,0.043395996
1601392439568,1736,-0.52783203,-0.17218018,0.043395996
1601392439569,1737,-1.3442383,-0.5967407,-0.3982544
1601392439572,1738,-0.52783203,-0.17218018,0.043395996
1601392439572,1739,-1.6340332,-0.26593018,0.8746948
1601392439572,1740,-0.52783203,-0.17218018,0.043395996
1601392439577,1741,-1.3442383,-0.5967407,-0.3982544
1601392439577,1742,-1.3442383,-0.5967407,-0.3982544
1601392439580,1743,-1.2253418,-0.22491455,0.2838745
1601392439581,1744,-0.52783203,-0.17218018,0.043395996
1601392439584,1745,-1.3442383,-0.5967407,-0.3982544
1601392439587,1746,-1.3442383,-0.5967407,-0.3982544
1601392439587,1747,-1.0622559,0.22747803,1.0690308
1601392439590,1748,-1.3442383,-0.5967407,-0.3982544
1601392439592,1749,-1.6340332,-0.26593018,0.8746948
1601392439593,1750,-1.6340332,-0.26593018,0.8746948
1601392439593,1751,-1.6340332,-0.26593018,0.8746948
1601392439600,1752,-0.8093262,0.16864014,0.6144409
1601392439601,1753,-1.6340332,-0.26593018,0.8746948
1601392439601,1754,-1.6340332,-0.26593018,0.8746948
1601392439602,1755,-1.2253418,-0.22491455,0.2838745
1601392439603,1756,-1.2253418,-0.22491455,0.2838745
1601392439603,1757,-1.2253418,-0.22491455,0.2838745
1601392439605,1758,-0.66064453,0.2970581,0.24407959
1601392439607,1759,-0.76904297,0.06365967,-0.049621582
1601392439609,1760,-0.9375,-0.13360596,0.044128418
1601392439612,1761,-1.2253418,-0.22491455,0.2838745
1601392439613,1762,-1.0622559,0.22747803,1.0690308
1601392439615,1763,-0.8093262,0.16864014,0.6144409
1601392439617,1764,-0.66064453,0.2970581,0.24407959
1601392439619,1765,-0.76904297,0.06365967,-0.049621582
1601392439624,1766,-1.2358398,-0.17803955,0.559021
1601392439625,1767,-1.2253418,-0.22491455,0.2838745
1601392439625,1768,-1.0622559,0.22747803,1.0690308
1601392439626,1769,-1.0622559,0.22747803,1.0690308
1601392439627,1770,-1.0622559,0.22747803,1.0690308
1601392439627,1771,-0.8093262,0.16864014,0.6144409
1601392439630,1772,-1.1936035,0.011169434,0.31195068
1601392439632,1773,-0.9375,-0.13360596,0.044128418
1601392439633,1774,-0.66064453,0.2970581,0.24407959
1601392439635,1775,-1.0622559,0.22747803,1.0690308
1601392439637,1776,-0.8093262,0.16864014,0.6144409
1601392439648,1777,-0.8093262,0.16864014,0.6144409
1601392439648,1778,-0.76904297,0.06365967,-0.049621582
1601392439649,1779,-1.1276855,0.07147217,0.24383545
1601392439650,1780,-0.8093262,0.16864014,0.6144409
1601392439650,1781,-1.2358398,-0.17803955,0.559021
1601392439651,1782,-0.66064453,0.2970581,0.24407959
1601392439652,1783,-1.1936035,0.011169434,0.31195068
1601392439653,1784,-0.66064453,0.2970581,0.24407959
1601392439653,1785,-1.1276855,0.07147217,0.24383545
1601392439654,1786,-0.76904297,0.06365967,-0.049621582
1601392439655,1787,-1.1083984,0.13323975,0.4550171
1601392439656,1788,-0.76904297,0.06365967,-0.049621582
1601392439658,1789,-1.1083984,0.13323975,0.4550171
1601392439660,1790,-1.0405273,0.047302246,0.42132568
1601392439661,1791,-1.0405273,0.047302246,0.42132568
1601392439675,1792,-0.9375,-0.13360596,0.044128418
1601392439676,1793,-0.66064453,0.2970581,0.24407959
1601392439677,1794,-0.9375,-0.13360596,0.044128418
1601392439677,1795,-0.89501953,0.015563965,0.2543335
1601392439679,1796,-1.2358398,-0.17803955,0.559021
1601392439680,1797,-0.89501953,0.015563965,0.2543335
1601392439680,1798,-0.6555176,-0.082092285,0.14984131
1601392439681,1799,-1.2358398,-0.17803955,0.559021
1601392439681,1800,-0.8078613,-0.22393799,0.12030029
1601392439682,1801,-1.1936035,0.011169434,0.31195068
1601392439683,1802,-1.1982422,-0.023742676,0.3258667
1601392439684,1803,-1.1936035,0.011169434,0.31195068
1601392439685,1804,-0.6555176,-0.082092285,0.14984131
1601392439686,1805,-1.1276855,0.07147217,0.24383545
1601392439686,1806,-0.76904297,0.06365967,-0.049621582
1601392439687,1807,-1.1083984,0.13323975,0.4550171
1601392439688,1808,-1.1276855,0.07147217,0.24383545
1601392439697,1809,-0.9375,-0.13360596,0.044128418
1601392439698,1810,-0.8078613,-0.22393799,0.12030029
1601392439698,1811,-1.0405273,0.047302246,0.42132568
1601392439699,1812,-1.3022461,-0.22613525,-0.062316895
1601392439700,1813,-1.1083984,0.13323975,0.4550171
1601392439701,1814,-0.9375,-0.13360596,0.044128418
1601392439702,1815,-0.89501953,0.015563965,0.2543335
1601392439703,1816,-1.2358398,-0.17803955,0.559021
1601392439707,1817,-1.1982422,-0.023742676,0.3258667
1601392439712,1818,-1.0405273,0.047302246,0.42132568
1601392439712,1819,-1.2111816,-0.7515259,0.10662842
1601392439713,1820,-1.2358398,-0.17803955,0.559021
1601392439714,1821,-0.6555176,-0.082092285,0.14984131
1601392439714,1822,-1.3022461,-0.22613525,-0.062316895
1601392439715,1823,-1.1936035,0.011169434,0.31195068
1601392439716,1824,-0.89501953,0.015563965,0.2543335
1601392439717,1825,-1.1674805,-0.4590454,-0.030578613
1601392439720,1826,-1.107666,-0.1506958,-0.03253174
1601392439721,1827,-1.1276855,0.07147217,0.24383545
1601392439724,1828,-1.1083984,0.13323975,0.4550171
1601392439743,1829,-1.2111816,-0.7515259,0.10662842
1601392439745,1830,-1.0200195,-0.42608643,0.09832764
1601392439745,1831,-0.6555176,-0.082092285,0.14984131
1601392439745,1832,-1.1936035,0.011169434,0.31195068
1601392439746,1833,-0.8078613,-0.22393799,0.12030029
1601392439747,1834,-1.1276855,0.07147217,0.24383545
1601392439748,1835,-1.1982422,-0.023742676,0.3258667
1601392439749,1836,-1.1674805,-0.4590454,-0.030578613
1601392439750,1837,-1.0214844,-0.32330322,0.002380371
1601392439750,1838,-0.8078613,-0.22393799,0.12030029
1601392439750,1839,-1.107666,-0.1506958,-0.03253174
1601392439751,1840,-1.1982422,-0.023742676,0.3258667
1601392439752,1841,-1.1083984,0.13323975,0.4550171
1601392439752,1842,-1.3022461,-0.22613525,-0.062316895
1601392439753,1843,-1.0405273,0.047302246,0.42132568
1601392439754,1844,-0.9909668,-0.19073486,0.2501831
1601392439755,1845,-1.0405273,0.047302246,0.42132568
1601392439755,1846,-1.0200195,-0.42608643,0.09832764
1601392439756,1847,-1.3022461,-0.22613525,-0.062316895
1601392439757,1848,-1.2111816,-0.7515259,0.10662842
1601392439758,1849,-0.89501953,0.015563965,0.2543335
1601392439761,1850,-0.82470703,-0.21539307,0.39764404
1601392439763,1851,-0.89501953,0.015563965,0.2543335
1601392439774,1852,-0.83984375,-0.18414307,0.4142456
1601392439775,1853,-0.6555176,-0.082092285,0.14984131
1601392439775,1854,-0.9494629,-0.2366333,0.2843628
1601392439775,1855,-0.8078613,-0.22393799,0.12030029
1601392439776,1856,-1.1674805,-0.4590454,-0.030578613
1601392439776,1857,-1.1982422,-0.023742676,0.3258667
1601392439776,1858,-1.107666,-0.1506958,-0.03253174
1601392439777,1859,-1.0214844,-0.32330322,0.002380371
1601392439777,1860,-1.2111816,-0.7515259,0.10662842
1601392439777,1861,-0.9909668,-0.19073486,0.2501831
1601392439780,1862,-0.6555176,-0.082092285,0.14984131
1601392439782,1863,-0.8078613,-0.22393799,0.12030029
1601392439787,1864,-1.0544434,-0.24615479,0.18182373
1601392439788,1865,-0.82470703,-0.21539307,0.39764404
1601392439789,1866,-1.1674805,-0.4590454,-0.030578613
1601392439789,1867,-1.3022461,-0.22613525,-0.062316895
1601392439790,1868,-1.0200195,-0.42608643,0.09832764
1601392439791,1869,-1.1982422,-0.023742676,0.3258667
1601392439805,1870,-1.0698242,-0.3098755,0.046081543
1601392439805,1871,-0.83984375,-0.18414307,0.4142456
1601392439806,1872,-1.107666,-0.1506958,-0.03253174
1601392439807,1873,-1.0214844,-0.32330322,0.002380371
1601392439807,1874,-1.0200195,-0.42608643,0.09832764
1601392439808,1875,-0.9909668,-0.19073486,0.2501831
1601392439809,1876,-1.0214844,-0.32330322,0.002380371
1601392439809,1877,-1.0385742,-0.24591064,0.010925293
1601392439810,1878,-0.9909668,-0.19073486,0.2501831
1601392439811,1879,-1.3022461,-0.22613525,-0.062316895
1601392439811,1880,-1.2111816,-0.7515259,0.10662842
1601392439812,1881,-1.2111816,-0.7515259,0.10662842
1601392439813,1882,-1.1674805,-0.4590454,-0.030578613
1601392439813,1883,-0.9494629,-0.2366333,0.2843628
1601392439815,1884,-1.107666,-0.1506958,-0.03253174
1601392439815,1885,-0.82470703,-0.21539307,0.39764404
1601392439820,1886,-1.1674805,-0.4590454,-0.030578613
1601392439820,1887,-1.0200195,-0.42608643,0.09832764
1601392439821,1888,-1.0544434,-0.24615479,0.18182373
1601392439822,1889,-0.82470703,-0.21539307,0.39764404
1601392439822,1890,-0.83984375,-0.18414307,0.4142456
1601392439827,1891,-1.0214844,-0.32330322,0.002380371
1601392439828,1892,-1.107666,-0.1506958,-0.03253174
1601392439829,1893,-0.9909668,-0.19073486,0.2501831
1601392439829,1894,-0.9494629,-0.2366333,0.2843628
1601392439830,1895,-1.0698242,-0.3098755,0.046081543
1601392439836,1896,-1.0200195,-0.42608643,0.09832764
1601392439836,1897,-0.83984375,-0.18414307,0.4142456
1601392439837,1898,-1.0544434,-0.24615479,0.18182373
1601392439837,1899,-1.0385742,-0.24591064,0.010925293
1601392439837,1900,-0.82470703,-0.21539307,0.39764404
1601392439840,1901,-1.0214844,-0.32330322,0.002380371
1601392439841,1902,-1.0698242,-0.3098755,0.046081543
1601392439846,1903,-0.83984375,-0.18414307,0.4142456
1601392439847,1904,-0.9494629,-0.2366333,0.2843628
1601392439847,1905,-0.9909668,-0.19073486,0.2501831
1601392439847,1906,-1.0385742,-0.24591064,0.010925293
1601392439853,1907,-0.9494629,-0.2366333,0.2843628
1601392439853,1908,-1.0544434,-0.24615479,0.18182373
1601392439853,1909,-0.82470703,-0.21539307,0.39764404
1601392439856,1910,-1.0698242,-0.3098755,0.046081543
1601392439857,1911,-0.83984375,-0.18414307,0.4142456
1601392439859,1912,-1.0385742,-0.24591064,0.010925293
1601392439863,1913,-1.0544434,-0.24615479,0.18182373
1601392439863,1914,-0.9494629,-0.2366333,0.2843628
1601392439865,1915,-1.0544434,-0.24615479,0.18182373
1601392439866,1916,-1.0698242,-0.3098755,0.046081543
1601392439868,1917,-1.0698242,-0.3098755,0.046081543
1601392439868,1918,-1.0385742,-0.24591064,0.010925293
1601392439870,1919,-1.0385742,-0.24591064,0.010925293
1601392442051,1920,-1.0366211,-0.07354736,0.027770996
1601392442061,1921,-1.0366211,-0.07354736,0.027770996
1601392442061,1922,-1.0366211,-0.07354736,0.027770996
1601392442062,1923,-1.0366211,-0.07354736,0.027770996
1601392442063,1924,-1.0366211,-0.07354736,0.027770996
1601392442063,1925,-1.0366211,-0.07354736,0.027770996
1601392442064,1926,-0.9465332,0.1774292,0.005554199
1601392442076,1927,-0.9465332,0.1774292,0.005554199
1601392442076,1928,-0.9465332,0.1774292,0.005554199
1601392442077,1929,-0.9465332,0.1774292,0.005554199
1601392442079,1930,-0.9465332,0.1774292,0.005554199
1601392442079,1931,-0.82177734,0.5006714,0.27850342
1601392442079,1932,-0.82177734,0.5006714,0.27850342
1601392442080,1933,-0.9465332,0.1774292,0.005554199
1601392442080,1934,-0.82177734,0.5006714,0.27850342
1601392442081,1935,-0.82177734,0.5006714,0.27850342
1601392442082,1936,-0.82177734,0.5006714,0.27850342
1601392442082,1937,-0.82177734,0.5006714,0.27850342
1601392442086,1938,-0.9604492,0.31658936,0.6298218
1601392442087,1939,-0.9604492,0.31658936,0.6298218
1601392442089,1940,-0.9604492,0.31658936,0.6298218
1601392442089,1941,-0.8679199,0.61273193,0.6066284
1601392442091,1942,-0.9604492,0.31658936,0.6298218
1601392442093,1943,-0.8679199,0.61273193,0.6066284
1601392442096,1944,-0.970459,0.7872925,0.5512085
1601392442097,1945,-0.8679199,0.61273193,0.6066284
1601392442097,1946,-0.9604492,0.31658936,0.6298218
1601392442100,1947,-0.970459,0.7872925,0.5512085
1601392442102,1948,-0.9277344,0.99261475,0.6559448
1601392442104,1949,-0.43188477,1.0140991,0.5072632
1601392442106,1950,0.026367188,0.49993896,0.22723389
1601392442108,1951,-0.970459,0.7872925,0.5512085
1601392442110,1952,-0.9277344,0.99261475,0.6559448
1601392442112,1953,-0.43188477,1.0140991,0.5072632
1601392442119,1954,-0.9604492,0.31658936,0.6298218
1601392442121,1955,-0.8679199,0.61273193,0.6066284
1601392442121,1956,-0.8679199,0.61273193,0.6066284
1601392442121,1957,-0.9277344,0.99261475,0.6559448
1601392442122,1958,0.40063477,0.42962646,-6.1035156E-5
1601392442123,1959,0.026367188,0.49993896,0.22723389
1601392442126,1960,-0.8679199,0.61273193,0.6066284
1601392442135,1961,-0.970459,0.7872925,0.5512085
1601392442136,1962,-0.43188477,1.0140991,0.5072632
1601392442137,1963,0.48095703,0.51434326,0.031921387
1601392442138,1964,0.40063477,0.42962646,-6.1035156E-5
1601392442139,1965,-0.970459,0.7872925,0.5512085
1601392442140,1966,-0.970459,0.7872925,0.5512085
1601392442140,1967,-0.9277344,0.99261475,0.6559448
1601392442141,1968,-0.9277344,0.99261475,0.6559448
1601392442142,1969,0.5444336,0.3222046,0.27093506
1601392442143,1970,-0.9277344,0.99261475,0.6559448
1601392442144,1971,0.026367188,0.49993896,0.22723389
1601392442145,1972,0.48095703,0.51434326,0.031921387
1601392442146,1973,-0.43188477,1.0140991,0.5072632
1601392442149,1974,0.40063477,0.42962646,-6.1035156E-5
1601392442151,1975,0.6726074,0.807312,0.4076538
1601392442153,1976,-0.43188477,1.0140991,0.5072632
1601392442160,1977,0.026367188,0.49993896,0.22723389
1601392442160,1978,0.48095703,0.51434326,0.031921387
1601392442160,1979,-0.43188477,1.0140991,0.5072632
1601392442161,1980,0.58203125,0.51605225,0.34368896
1601392442161,1981,0.5444336,0.3222046,0.27093506
1601392442161,1982,0.026367188,0.49993896,0.22723389
1601392442167,1983,0.5444336,0.3222046,0.27093506
1601392442167,1984,0.026367188,0.49993896,0.22723389
1601392442167,1985,0.6726074,0.807312,0.4076538
1601392442167,1986,0.6726074,0.807312,0.4076538
1601392442167,1987,0.40063477,0.42962646,-6.1035156E-5
1601392442167,1988,0.49316406,0.7653198,0.3390503
1601392442172,1989,0.40063477,0.42962646,-6.1035156E-5
1601392442173,1990,0.40063477,0.42962646,-6.1035156E-5
1601392442173,1991,0.58203125,0.51605225,0.34368896
1601392442173,1992,0.69140625,0.66619873,0.33709717
1601392442174,1993,0.58203125,0.51605225,0.34368896
1601392442174,1994,0.48095703,0.51434326,0.031921387
1601392442192,1995,0.48095703,0.51434326,0.031921387
1601392442192,1996,0.48095703,0.51434326,0.031921387
1601392442193,1997,0.49316406,0.7653198,0.3390503
1601392442194,1998,0.5444336,0.3222046,0.27093506
1601392442195,1999,0.49316406,0.7653198,0.3390503
1601392442196,2000,0.8708496,0.6234741,0.38226318
1601392442196,2001,0.69140625,0.66619873,0.33709717
1601392442197,2002,0.69140625,0.66619873,0.33709717
1601392442198,2003,0.5444336,0.3222046,0.27093506
1601392442199,2004,0.6726074,0.807312,0.4076538
1601392442200,2005,0.6726074,0.807312,0.4076538
1601392442200,2006,0.5444336,0.3222046,0.27093506
1601392442201,2007,0.5065918,0.28997803,0.24798584
1601392442202,2008,0.58203125,0.51605225,0.34368896
1601392442203,2009,0.29663086,-0.40020752,0.36956787
1601392442203,2010,0.58203125,0.51605225,0.34368896
1601392442204,2011,0.8708496,0.6234741,0.38226318
1601392442205,2012,0.8708496,0.6234741,0.38226318
1601392442205,2013,0.6726074,0.807312,0.4076538
1601392442212,2014,0.49316406,0.7653198,0.3390503
1601392442212,2015,0.5217285,-0.3032837,0.65667725
1601392442213,2016,0.49316406,0.7653198,0.3390503
1601392442214,2017,0.5065918,0.28997803,0.24798584
1601392442215,2018,0.5065918,0.28997803,0.24798584
1601392442216,2019,0.58203125,0.51605225,0.34368896
1601392442219,2020,0.69140625,0.66619873,0.33709717
1601392442223,2021,0.8708496,0.6234741,0.38226318
1601392442225,2022,0.49316406,0.7653198,0.3390503
1601392442226,2023,0.29663086,-0.40020752,0.36956787
1601392442226,2024,0.748291,-0.21295166,0.8060913
1601392442227,2025,0.69140625,0.66619873,0.33709717
1601392442228,2026,0.29663086,-0.40020752,0.36956787
1601392442230,2027,0.5065918,0.28997803,0.24798584
1601392442232,2028,0.5217285,-0.3032837,0.65667725
1601392442237,2029,0.748291,-0.21295166,0.8060913
1601392442237,2030,0.5217285,-0.3032837,0.65667725
1601392442237,2031,0.77978516,-0.36627197,0.79608154
1601392442237,2032,0.29663086,-0.40020752,0.36956787
1601392442238,2033,0.69140625,0.66619873,0.33709717
1601392442238,2034,0.8708496,0.6234741,0.38226318
1601392442244,2035,0.77978516,-0.36627197,0.79608154
1601392442245,2036,0.748291,-0.21295166,0.8060913
1601392442245,2037,0.5217285,-0.3032837,0.65667725
1601392442246,2038,0.77490234,-0.21343994,0.74334717
1601392442247,2039,0.8708496,0.6234741,0.38226318
1601392442247,2040,0.5065918,0.28997803,0.24798584
1601392442249,2041,0.77978516,-0.36627197,0.79608154
1601392442252,2042,0.29663086,-0.40020752,0.36956787
1601392442254,2043,0.5217285,-0.3032837,0.65667725
1601392442255,2044,0.748291,-0.21295166,0.8060913
1601392442267,2045,0.77978516,-0.36627197,0.79608154
1601392442267,2046,0.71899414,-0.23834229,0.33758545
1601392442267,2047,0.77490234,-0.21343994,0.74334717
1601392442268,2048,0.78149414,-0.10284424,0.23577881
1601392442268,2049,0.77490234,-0.21343994,0.74334717
1601392442268,2050,1.0268555,-0.051818848,0.3270874
1601392442268,2051,0.77490234,-0.21343994,0.74334717
1601392442269,2052,0.5065918,0.28997803,0.24798584
1601392442269,2053,0.71899414,-0.23834229,0.33758545
1601392442269,2054,0.748291,-0.21295166,0.8060913
1601392442269,2055,0.29663086,-0.40020752,0.36956787
1601392442270,2056,0.77978516,-0.36627197,0.79608154
1601392442270,2057,0.71899414,-0.23834229,0.33758545
1601392442270,2058,0.77490234,-0.21343994,0.74334717
1601392442271,2059,0.78149414,-0.10284424,0.23577881
1601392442276,2060,0.5217285,-0.3032837,0.65667725
1601392442277,2061,0.78149414,-0.10284424,0.23577881
1601392442277,2062,0.9616699,-0.120910645,0.5170288
1601392442278,2063,0.71899414,-0.23834229,0.33758545
1601392442278,2064,0.71899414,-0.23834229,0.33758545
1601392442280,2065,1.0268555,-0.051818848,0.3270874
1601392442293,2066,0.748291,-0.21295166,0.8060913
1601392442293,2067,1.0268555,-0.051818848,0.3270874
1601392442293,2068,0.77978516,-0.36627197,0.79608154
1601392442294,2069,0.78149414,-0.10284424,0.23577881
1601392442294,2070,0.78149414,-0.10284424,0.23577881
1601392442294,2071,0.77490234,-0.21343994,0.74334717
1601392442294,2072,1.0268555,-0.051818848,0.3270874
1601392442295,2073,0.8586426,-0.16143799,0.34539795
1601392442295,2074,0.9616699,-0.120910645,0.5170288
1601392442295,2075,0.9616699,-0.120910645,0.5170288
1601392442296,2076,0.71899414,-0.23834229,0.33758545
1601392442296,2077,0.9616699,-0.120910645,0.5170288
1601392442296,2078,0.8586426,-0.16143799,0.34539795
1601392442300,2079,0.8586426,-0.16143799,0.34539795
1601392442300,2080,1.0268555,-0.051818848,0.3270874
1601392442303,2081,0.8586426,-0.16143799,0.34539795
1601392442303,2082,0.75634766,-0.24078369,0.38226318
1601392442310,2083,0.78149414,-0.10284424,0.23577881
1601392442312,2084,0.75634766,-0.24078369,0.38226318
1601392442312,2085,1.0268555,-0.051818848,0.3270874
1601392442312,2086,0.75634766,-0.24078369,0.38226318
1601392442313,2087,0.75634766,-0.24078369,0.38226318
1601392442314,2088,0.83032227,-0.105041504,0.49822998
1601392442331,2089,0.83032227,-0.105041504,0.49822998
1601392442332,2090,0.9616699,-0.120910645,0.5170288
1601392442332,2091,0.9616699,-0.120910645,0.5170288
1601392442333,2092,0.83032227,-0.105041504,0.49822998
1601392442334,2093,0.8586426,-0.16143799,0.34539795
1601392442334,2094,0.85180664,-0.2637329,0.60931396
1601392442335,2095,0.75634766,-0.24078369,0.38226318
1601392442335,2096,0.8586426,-0.16143799,0.34539795
1601392442336,2097,0.85180664,-0.2637329,0.60931396
1601392442337,2098,0.83032227,-0.105041504,0.49822998
1601392442338,2099,0.6828613,-0.36016846,0.5519409
1601392442339,2100,0.85180664,-0.2637329,0.60931396
1601392442340,2101,0.6828613,-0.36016846,0.5519409
1601392442341,2102,0.83032227,-0.105041504,0.49822998
1601392442342,2103,0.75634766,-0.24078369,0.38226318
1601392442343,2104,0.85180664,-0.2637329,0.60931396
1601392442349,2105,0.83032227,-0.105041504,0.49822998
1601392442353,2106,0.85180664,-0.2637329,0.60931396
1601392442353,2107,0.6828613,-0.36016846,0.5519409
1601392442354,2108,0.6828613,-0.36016846,0.5519409
1601392442354,2109,0.85180664,-0.2637329,0.60931396
1601392442356,2110,0.6828613,-0.36016846,0.5519409
1601392442360,2111,0.6828613,-0.36016846,0.5519409
1601392444660,2112,0.48876953,-0.37652588,0.5524292
1601392444661,2113,0.48876953,-0.37652588,0.5524292
1601392444661,2114,0.48876953,-0.37652588,0.5524292
1601392444662,2115,0.48876953,-0.37652588,0.5524292
1601392444664,2116,0.48876953,-0.37652588,0.5524292
1601392444664,2117,0.5539551,-0.3057251,0.5385132
1601392444665,2118,0.48876953,-0.37652588,0.5524292
1601392444676,2119,0.5539551,-0.3057251,0.5385132
1601392444677,2120,0.5539551,-0.3057251,0.5385132
1601392444679,2121,0.5539551,-0.3057251,0.5385132
1601392444680,2122,0.67871094,-0.40093994,0.44281006
1601392444681,2123,0.5539551,-0.3057251,0.5385132
1601392444681,2124,0.5539551,-0.3057251,0.5385132
1601392444682,2125,0.6230469,-0.4024048,0.38128662
1601392444682,2126,0.67871094,-0.40093994,0.44281006
1601392444688,2127,0.67871094,-0.40093994,0.44281006
1601392444689,2128,0.67871094,-0.40093994,0.44281006
1601392444689,2129,0.67871094,-0.40093994,0.44281006
1601392444689,2130,0.53149414,-0.27886963,0.28240967
1601392444692,2131,0.6230469,-0.4024048,0.38128662
1601392444694,2132,0.67871094,-0.40093994,0.44281006
1601392444697,2133,0.6230469,-0.4024048,0.38128662
1601392444700,2134,0.53149414,-0.27886963,0.28240967
1601392444702,2135,0.6230469,-0.4024048,0.38128662
1601392444709,2136,0.53149414,-0.27886963,0.28240967
1601392444710,2137,0.53149414,-0.27886963,0.28240967
1601392444710,2138,0.6230469,-0.4024048,0.38128662
1601392444712,2139,-0.13085938,0.27044678,0.2789917
1601392444712,2140,0.6230469,-0.4024048,0.38128662
1601392444713,2141,-0.13085938,0.27044678,0.2789917
1601392444719,2142,-0.13085938,0.27044678,0.2789917
1601392444720,2143,-0.13085938,0.27044678,0.2789917
1601392444722,2144,0.53149414,-0.27886963,0.28240967
1601392444722,2145,0.53149414,-0.27886963,0.28240967
1601392444736,2146,-0.21655273,1.1171265,0.44329834
1601392444738,2147,-0.21655273,1.1171265,0.44329834
1601392444738,2148,-0.13085938,0.27044678,0.2789917
1601392444739,2149,-0.21655273,1.1171265,0.44329834
1601392444740,2150,-0.13085938,0.27044678,0.2789917
1601392444741,2151,-0.21655273,1.1171265,0.44329834
1601392444742,2152,-0.21655273,1.1171265,0.44329834
1601392444742,2153,-0.21655273,1.1171265,0.44329834
1601392444744,2154,-0.45336914,1.3392944,0.5680542
1601392444744,2155,-0.45336914,1.3392944,0.5680542
1601392444745,2156,-0.45336914,1.3392944,0.5680542
1601392444746,2157,-0.5539551,1.1090698,0.64056396
1601392444747,2158,-0.45336914,1.3392944,0.5680542
1601392444754,2159,-0.45336914,1.3392944,0.5680542
1601392444755,2160,-0.5539551,1.1090698,0.64056396
1601392444756,2161,-0.45336914,1.3392944,0.5680542
1601392444757,2162,-0.5539551,1.1090698,0.64056396
1601392444757,2163,-0.42456055,0.7345581,0.5890503
1601392444759,2164,-0.5539551,1.1090698,0.64056396
1601392444761,2165,-0.5539551,1.1090698,0.64056396
1601392444763,2166,-0.42456055,0.7345581,0.5890503
1601392444766,2167,-0.48583984,0.34906006,0.5319214
1601392444773,2168,-0.71240234,0.08050537,0.39056396
1601392444774,2169,-0.48583984,0.34906006,0.5319214
1601392444775,2170,-0.5539551,1.1090698,0.64056396
1601392444777,2171,-0.71240234,0.08050537,0.39056396
1601392444778,2172,-0.42456055,0.7345581,0.5890503
1601392444778,2173,-0.42456055,0.7345581,0.5890503
1601392444782,2174,-1.1394043,0.101745605,0.31195068
1601392444784,2175,-1.3283691,0.090270996,0.17425537
1601392444791,2176,-0.48583984,0.34906006,0.5319214
1601392444792,2177,-1.1394043,0.101745605,0.31195068
1601392444792,2178,-0.42456055,0.7345581,0.5890503
1601392444793,2179,-0.42456055,0.7345581,0.5890503
1601392444793,2180,-0.48583984,0.34906006,0.5319214
1601392444794,2181,-0.9819336,-0.13287354,0.41375732
1601392444796,2182,-1.3283691,0.090270996,0.17425537
1601392444798,2183,-0.48583984,0.34906006,0.5319214
1601392444801,2184,-0.71240234,0.08050537,0.39056396
1601392444803,2185,-0.48583984,0.34906006,0.5319214
1601392444805,2186,-0.71240234,0.08050537,0.39056396
1601392444807,2187,-1.3518066,-0.19781494,0.2230835
1601392444810,2188,-1.154541,-0.31817627,0.117126465
1601392444811,2189,-0.99780273,-0.08404541,0.16571045
1601392444814,2190,-0.98046875,-0.019104004,0.21209717
1601392444815,2191,-0.99243164,0.10882568,0.14959717
1601392444817,2192,-1.0270996,0.1618042,0.18060303
1601392444820,2193,-0.9819336,-0.13287354,0.41375732
1601392444825,2194,-0.71240234,0.08050537,0.39056396
1601392444826,2195,-1.1394043,0.101745605,0.31195068
1601392444826,2196,-1.1394043,0.101745605,0.31195068
1601392444826,2197,-0.89086914,0.19281006,0.24993896
1601392444826,2198,-0.71240234,0.08050537,0.39056396
1601392444826,2199,-1.3518066,-0.19781494,0.2230835
1601392444832,2200,-1.3283691,0.090270996,0.17425537
1601392444832,2201,-1.1394043,0.101745605,0.31195068
1601392444833,2202,-1.3283691,0.090270996,0.17425537
1601392444833,2203,-0.9604492,0.023620605,0.3114624
1601392444833,2204,-1.3283691,0.090270996,0.17425537
1601392444833,2205,-1.154541,-0.31817627,0.117126465
1601392444833,2206,-0.9819336,-0.13287354,0.41375732
1601392444839,2207,-1.0556641,0.2682495,0.26190186
1601392444839,2208,-1.1394043,0.101745605,0.31195068
1601392444840,2209,-0.9819336,-0.13287354,0.41375732
1601392444841,2210,-0.99780273,-0.08404541,0.16571045
1601392444841,2211,-0.9819336,-0.13287354,0.41375732
1601392444842,2212,-0.98046875,-0.019104004,0.21209717
1601392444845,2213,-0.5373535,0.5700073,0.43450928
1601392444847,2214,-1.3518066,-0.19781494,0.2230835
1601392444848,2215,-1.3518066,-0.19781494,0.2230835
1601392444850,2216,-1.154541,-0.31817627,0.117126465
1601392444853,2217,-1.3518066,-0.19781494,0.2230835
1601392444858,2218,-0.99243164,0.10882568,0.14959717
1601392444859,2219,-1.3283691,0.090270996,0.17425537
1601392444859,2220,-0.8449707,0.84661865,0.50994873
1601392444859,2221,-0.99780273,-0.08404541,0.16571045
1601392444860,2222,-1.154541,-0.31817627,0.117126465
1601392444861,2223,-1.154541,-0.31817627,0.117126465
1601392444872,2224,-1.0270996,0.1618042,0.18060303
1601392444875,2225,-0.9819336,-0.13287354,0.41375732
1601392444875,2226,-0.8190918,0.41522217,0.3361206
1601392444875,2227,-0.98046875,-0.019104004,0.21209717
1601392444876,2228,-0.99780273,-0.08404541,0.16571045
1601392444877,2229,-0.99780273,-0.08404541,0.16571045
1601392444878,2230,-0.89086914,0.19281006,0.24993896
1601392444879,2231,-0.98046875,-0.019104004,0.21209717
1601392444880,2232,-0.5974121,0.5465698,0.4225464
1601392444882,2233,-0.99243164,0.10882568,0.14959717
1601392444882,2234,-0.99243164,0.10882568,0.14959717
1601392444882,2235,-1.0270996,0.1618042,0.18060303
1601392444893,2236,-0.9604492,0.023620605,0.3114624
1601392444894,2237,-0.98046875,-0.019104004,0.21209717
1601392444894,2238,-1.3518066,-0.19781494,0.2230835
1601392444895,2239,-0.31958008,0.83929443,0.4869995
1601392444895,2240,-1.0270996,0.1618042,0.18060303
1601392444896,2241,-0.89086914,0.19281006,0.24993896
1601392444897,2242,-1.0556641,0.2682495,0.26190186
1601392444897,2243,-0.9604492,0.023620605,0.3114624
1601392444898,2244,-0.23242188,0.7470093,0.6137085
1601392444899,2245,-1.0556641,0.2682495,0.26190186
1601392444907,2246,-0.5373535,0.5700073,0.43450928
1601392444908,2247,-0.99243164,0.10882568,0.14959717
1601392444908,2248,-1.154541,-0.31817627,0.117126465
1601392444909,2249,-0.5373535,0.5700073,0.43450928
1601392444910,2250,-0.89086914,0.19281006,0.24993896
1601392444911,2251,-0.2861328,0.6791382,0.6322632
1601392444911,2252,-0.8449707,0.84661865,0.50994873
1601392444912,2253,-0.99780273,-0.08404541,0.16571045
1601392444919,2254,-0.25170898,0.67840576,0.68670654
1601392444920,2255,-0.8449707,0.84661865,0.50994873
1601392444920,2256,-0.9604492,0.023620605,0.3114624
1601392444921,2257,-0.8190918,0.41522217,0.3361206
1601392444921,2258,-0.98046875,-0.019104004,0.21209717
1601392444925,2259,-1.0270996,0.1618042,0.18060303
1601392444930,2260,-1.0556641,0.2682495,0.26190186
1601392444931,2261,-0.5974121,0.5465698,0.4225464
1601392444931,2262,-0.99243164,0.10882568,0.14959717
1601392444931,2263,-0.8190918,0.41522217,0.3361206
1601392444932,2264,-1.0270996,0.1618042,0.18060303
1601392444938,2265,-0.5373535,0.5700073,0.43450928
1601392444939,2266,-0.31958008,0.83929443,0.4869995
1601392444939,2267,-0.5974121,0.5465698,0.4225464
1601392444939,2268,-0.8449707,0.84661865,0.50994873
1601392444940,2269,-0.23242188,0.7470093,0.6137085
1601392444953,2270,-0.89086914,0.19281006,0.24993896
1601392444954,2271,-0.89086914,0.19281006,0.24993896
1601392444954,2272,-0.31958008,0.83929443,0.4869995
1601392444956,2273,-0.8190918,0.41522217,0.3361206
1601392444956,2274,-0.2861328,0.6791382,0.6322632
1601392444956,2275,-0.9604492,0.023620605,0.3114624
1601392444957,2276,-0.25170898,0.67840576,0.68670654
1601392444958,2277,-0.23242188,0.7470093,0.6137085
1601392444959,2278,-0.5974121,0.5465698,0.4225464
1601392444960,2279,-0.9604492,0.023620605,0.3114624
1601392444960,2280,-1.0556641,0.2682495,0.26190186
1601392444961,2281,-0.31958008,0.83929443,0.4869995
1601392444964,2282,-1.0556641,0.2682495,0.26190186
1601392444966,2283,-0.23242188,0.7470093,0.6137085
1601392444969,2284,-0.2861328,0.6791382,0.6322632
1601392444970,2285,-0.25170898,0.67840576,0.68670654
1601392444976,2286,-0.5373535,0.5700073,0.43450928
1601392444977,2287,-0.2861328,0.6791382,0.6322632
1601392444977,2288,-0.5373535,0.5700073,0.43450928
1601392444979,2289,-0.25170898,0.67840576,0.68670654
1601392444981,2290,-0.8449707,0.84661865,0.50994873
1601392444983,2291,-0.8190918,0.41522217,0.3361206
1601392444989,2292,-0.5974121,0.5465698,0.4225464
1601392444989,2293,-0.8449707,0.84661865,0.50994873
1601392444990,2294,-0.31958008,0.83929443,0.4869995
1601392444990,2295,-0.8190918,0.41522217,0.3361206
1601392444992,2296,-0.5974121,0.5465698,0.4225464
1601392444994,2297,-0.23242188,0.7470093,0.6137085
1601392444996,2298,-0.31958008,0.83929443,0.4869995
1601392444999,2299,-0.2861328,0.6791382,0.6322632
1601392445005,2300,-0.25170898,0.67840576,0.68670654
1601392445022,2301,-0.23242188,0.7470093,0.6137085
1601392445024,2302,-0.2861328,0.6791382,0.6322632
1601392445028,2303,-0.25170898,0.67840576,0.68670654
1601392447088,2304,-0.18017578,0.6820679,0.67352295
1601392447089,2305,-0.18017578,0.6820679,0.67352295
1601392447090,2306,-0.18017578,0.6820679,0.67352295
1601392447090,2307,-0.18017578,0.6820679,0.67352295
1601392447091,2308,-0.18017578,0.6820679,0.67352295
1601392447092,2309,-0.22070312,0.44573975,0.7719116
1601392447093,2310,-0.22070312,0.44573975,0.7719116
1601392447094,2311,-0.22070312,0.44573975,0.7719116
1601392447095,2312,-0.40185547,0.44036865,0.7262573
1601392447095,2313,-0.18017578,0.6820679,0.67352295
1601392447096,2314,-0.5187988,0.57489014,0.635437
1601392447096,2315,-0.40185547,0.44036865,0.7262573
1601392447098,2316,-0.22070312,0.44573975,0.7719116
