# Sensor position: Wrist
# Sensor side: Right
# Activity type: Movement
# Activity code: 9
# Subject id: s1746788
timestamp,seq,accel_x,accel_y,accel_z
1601392980452,0,-0.828125,-0.425354,0.42523193
1601392980453,1,-0.828125,-0.425354,0.42523193
1601392980453,2,-0.828125,-0.425354,0.42523193
1601392980453,3,-0.828125,-0.425354,0.42523193
1601392980459,4,-0.828125,-0.425354,0.42523193
1601392980459,5,-0.828125,-0.425354,0.42523193
1601392980459,6,-0.82543945,-0.43463135,0.41400146
1601392980470,7,-0.82543945,-0.43463135,0.41400146
1601392980471,8,-0.828125,-0.43170166,0.4232788
1601392980473,9,-0.82543945,-0.43463135,0.41400146
1601392980473,10,-0.82543945,-0.43463135,0.41400146
1601392980474,11,-0.82543945,-0.43463135,0.41400146
1601392980475,12,-0.828125,-0.43170166,0.4232788
1601392980475,13,-0.828125,-0.43170166,0.4232788
1601392980476,14,-0.82543945,-0.43463135,0.41400146
1601392980478,15,-0.8330078,-0.4451294,0.42791748
1601392980478,16,-0.828125,-0.43170166,0.4232788
1601392980479,17,-0.8376465,-0.42877197,0.44085693
1601392980481,18,-0.828125,-0.43170166,0.4232788
1601392980483,19,-0.828125,-0.43170166,0.4232788
1601392980485,20,-0.8330078,-0.4451294,0.42791748
1601392980486,21,-0.8376465,-0.42877197,0.44085693
1601392980489,22,-0.8330078,-0.4451294,0.42791748
1601392980496,23,-0.8334961,-0.40777588,0.44989014
1601392980496,24,-0.8330078,-0.4451294,0.42791748
1601392980496,25,-0.83618164,-0.442688,0.41351318
1601392980497,26,-0.8334961,-0.40777588,0.44989014
1601392980497,27,-0.8330078,-0.4451294,0.42791748
1601392980498,28,-0.8312988,-0.4336548,0.42181396
1601392980504,29,-0.8330078,-0.4451294,0.42791748
1601392980505,30,-0.8376465,-0.42877197,0.44085693
1601392980505,31,-0.8376465,-0.42877197,0.44085693
1601392980506,32,-0.83618164,-0.442688,0.41351318
1601392980508,33,-0.8334961,-0.40777588,0.44989014
1601392980510,34,-0.8376465,-0.42877197,0.44085693
1601392980512,35,-0.8334961,-0.40777588,0.44989014
1601392980514,36,-0.83618164,-0.442688,0.41351318
1601392980516,37,-0.86376953,-0.27911377,0.5126343
1601392980518,38,-0.8112793,-0.5095825,0.40838623
1601392980519,39,-0.83618164,-0.442688,0.41351318
1601392980521,40,-0.8312988,-0.4336548,0.42181396
1601392980524,41,-0.8376465,-0.42877197,0.44085693
1601392980529,42,-0.8312988,-0.4336548,0.42181396
1601392980529,43,-0.8334961,-0.40777588,0.44989014
1601392980530,44,-0.8312988,-0.4336548,0.42181396
1601392980531,45,-0.86376953,-0.27911377,0.5126343
1601392980532,46,-0.8305664,-0.4751587,0.38201904
1601392980533,47,-0.86376953,-0.27911377,0.5126343
1601392980536,48,-0.86376953,-0.27911377,0.5126343
1601392980537,49,-0.8112793,-0.5095825,0.40838623
1601392980539,50,-0.8305664,-0.4751587,0.38201904
1601392980542,51,-0.8334961,-0.40777588,0.44989014
1601392980542,52,-0.8112793,-0.5095825,0.40838623
1601392980547,53,-0.83618164,-0.442688,0.41351318
1601392980547,54,-0.8112793,-0.5095825,0.40838623
1601392980547,55,-0.83691406,-0.43145752,0.4171753
1601392980550,56,-0.83618164,-0.442688,0.41351318
1601392980553,57,-0.8312988,-0.4336548,0.42181396
1601392980555,58,-0.826416,-0.43585205,0.42596436
1601392980561,59,-0.8293457,-0.4356079,0.42596436
1601392980562,60,-0.8312988,-0.4336548,0.42181396
1601392980563,61,-0.83691406,-0.43145752,0.4171753
1601392980563,62,-0.86376953,-0.27911377,0.5126343
1601392980564,63,-0.8305664,-0.4751587,0.38201904
1601392980565,64,-0.8305664,-0.4751587,0.38201904
1601392980571,65,-0.82373047,-0.48101807,0.42767334
1601392980573,66,-0.86376953,-0.27911377,0.5126343
1601392980573,67,-0.826416,-0.43585205,0.42596436
1601392980573,68,-0.8112793,-0.5095825,0.40838623
1601392980574,69,-0.83691406,-0.43145752,0.4171753
1601392980575,70,-0.83691406,-0.43145752,0.4171753
1601392980578,71,-0.8112793,-0.5095825,0.40838623
1601392980588,72,-0.8305664,-0.4751587,0.38201904
1601392980590,73,-0.81347656,-0.4800415,0.3925171
1601392980590,74,-0.826416,-0.43585205,0.42596436
1601392980590,75,-0.826416,-0.43585205,0.42596436
1601392980591,76,-0.8293457,-0.4356079,0.42596436
1601392980593,77,-0.8293457,-0.4356079,0.42596436
1601392980593,78,-0.82373047,-0.48101807,0.42767334
1601392980593,79,-0.83691406,-0.43145752,0.4171753
1601392980594,80,-0.81347656,-0.4800415,0.3925171
1601392980595,81,-0.8305664,-0.4751587,0.38201904
1601392980595,82,-0.8293457,-0.4356079,0.42596436
1601392980605,83,-0.82373047,-0.48101807,0.42767334
1601392980605,84,-0.86499023,-0.3352661,0.4537964
1601392980606,85,-0.826416,-0.43585205,0.42596436
1601392980607,86,-0.86499023,-0.3352661,0.4537964
1601392980608,87,-0.82373047,-0.48101807,0.42767334
1601392980609,88,-0.83691406,-0.43145752,0.4171753
1601392980610,89,-0.8371582,-0.40997314,0.44036865
1601392980612,90,-0.8371582,-0.40997314,0.44036865
1601392980626,91,-0.8330078,-0.4151001,0.43719482
1601392980627,92,-0.826416,-0.43585205,0.42596436
1601392980628,93,-0.81347656,-0.4800415,0.3925171
1601392980628,94,-0.81347656,-0.4800415,0.3925171
1601392980629,95,-0.8293457,-0.4356079,0.42596436
1601392980630,96,-0.8330078,-0.4151001,0.43719482
1601392980630,97,-0.86499023,-0.3352661,0.4537964
1601392980631,98,-0.8388672,-0.40264893,0.44110107
1601392980632,99,-0.8293457,-0.4356079,0.42596436
1601392980633,100,-0.86499023,-0.3352661,0.4537964
1601392980634,101,-0.82373047,-0.48101807,0.42767334
1601392980635,102,-0.8371582,-0.40997314,0.44036865
1601392980635,103,-0.8388672,-0.40264893,0.44110107
1601392980636,104,-0.8330078,-0.4151001,0.43719482
1601392980637,105,-0.84814453,-0.38482666,0.4508667
1601392980640,106,-0.82373047,-0.48101807,0.42767334
1601392980647,107,-0.84814453,-0.38482666,0.4508667
1601392980648,108,-0.81347656,-0.4800415,0.3925171
1601392980648,109,-0.8388672,-0.40264893,0.44110107
1601392980648,110,-0.8352051,-0.39996338,0.44036865
1601392980649,111,-0.8371582,-0.40997314,0.44036865
1601392980649,112,-0.8354492,-0.39190674,0.45184326
1601392980658,113,-0.86499023,-0.3352661,0.4537964
1601392980658,114,-0.8352051,-0.39996338,0.44036865
1601392980659,115,-0.84814453,-0.38482666,0.4508667
1601392980659,116,-0.81347656,-0.4800415,0.3925171
1601392980659,117,-0.8330078,-0.4151001,0.43719482
1601392980659,118,-0.8359375,-0.41607666,0.4586792
1601392980660,119,-0.8371582,-0.40997314,0.44036865
1601392980660,120,-0.8388672,-0.40264893,0.44110107
1601392980668,121,-0.8364258,-0.38824463,0.44769287
1601392980668,122,-0.86499023,-0.3352661,0.4537964
1601392980668,123,-0.8354492,-0.39190674,0.45184326
1601392980669,124,-0.8352051,-0.39996338,0.44036865
1601392980670,125,-0.8330078,-0.4151001,0.43719482
1601392980671,126,-0.84814453,-0.38482666,0.4508667
1601392980676,127,-0.8413086,-0.39874268,0.44256592
1601392980676,128,-0.8359375,-0.41607666,0.4586792
1601392980679,129,-0.8354492,-0.39190674,0.45184326
1601392980685,130,-0.8388672,-0.40264893,0.44110107
1601392980685,131,-0.8371582,-0.40997314,0.44036865
1601392980685,132,-0.8364258,-0.38824463,0.44769287
1601392980686,133,-0.8215332,-0.394104,0.44281006
1601392980687,134,-0.8352051,-0.39996338,0.44036865
1601392980688,135,-0.8359375,-0.41607666,0.4586792
1601392980690,136,-0.84814453,-0.38482666,0.4508667
1601392980692,137,-0.8413086,-0.39874268,0.44256592
1601392980697,138,-0.8215332,-0.394104,0.44281006
1601392980697,139,-0.8354492,-0.39190674,0.45184326
1601392980697,140,-0.8330078,-0.4151001,0.43719482
1601392980700,141,-0.8273926,-0.4360962,0.4064331
1601392980711,142,-0.8273926,-0.4360962,0.4064331
1601392980711,143,-0.8388672,-0.40264893,0.44110107
1601392980711,144,-0.8359375,-0.41607666,0.4586792
1601392980712,145,-0.84814453,-0.38482666,0.4508667
1601392980712,146,-0.8364258,-0.38824463,0.44769287
1601392980712,147,-0.8703613,-0.31280518,0.5075073
1601392980713,148,-0.8352051,-0.39996338,0.44036865
1601392980713,149,-0.8703613,-0.31280518,0.5075073
1601392980713,150,-0.8352051,-0.39996338,0.44036865
1601392980715,151,-0.8364258,-0.38824463,0.44769287
1601392980734,152,-0.86694336,-0.41241455,0.4520874
1601392980734,153,-0.8413086,-0.39874268,0.44256592
1601392980734,154,-0.8354492,-0.39190674,0.45184326
1601392980735,155,-0.86694336,-0.41241455,0.4520874
1601392980736,156,-0.8413086,-0.39874268,0.44256592
1601392980737,157,-0.8354492,-0.39190674,0.45184326
1601392980739,158,-0.8359375,-0.41607666,0.4586792
1601392980739,159,-0.8215332,-0.394104,0.44281006
1601392980739,160,-0.80615234,-0.4500122,0.42547607
1601392980740,161,-0.80615234,-0.4500122,0.42547607
1601392980741,162,-0.8215332,-0.394104,0.44281006
1601392980742,163,-0.8359375,-0.41607666,0.4586792
1601392980742,164,-0.84228516,-0.4505005,0.3600464
1601392980742,165,-0.8364258,-0.38824463,0.44769287
1601392980743,166,-0.8273926,-0.4360962,0.4064331
1601392980744,167,-0.8273926,-0.4360962,0.4064331
1601392980745,168,-0.8413086,-0.39874268,0.44256592
1601392980745,169,-0.8703613,-0.31280518,0.5075073
1601392980746,170,-0.8215332,-0.394104,0.44281006
1601392980747,171,-0.8273926,-0.4360962,0.4064331
1601392980750,172,-0.84228516,-0.4505005,0.3600464
1601392980753,173,-0.86694336,-0.41241455,0.4520874
1601392980759,174,-0.8703613,-0.31280518,0.5075073
1601392980759,175,-0.8364258,-0.38824463,0.44769287
1601392980760,176,-0.8703613,-0.31280518,0.5075073
1601392980761,177,-0.8413086,-0.39874268,0.44256592
1601392980768,178,-0.86694336,-0.41241455,0.4520874
1601392980769,179,-0.80615234,-0.4500122,0.42547607
1601392980769,180,-0.86694336,-0.41241455,0.4520874
1601392980770,181,-0.8215332,-0.394104,0.44281006
1601392980771,182,-0.84228516,-0.4505005,0.3600464
1601392980772,183,-0.80615234,-0.4500122,0.42547607
1601392980773,184,-0.80615234,-0.4500122,0.42547607
1601392980775,185,-0.8273926,-0.4360962,0.4064331
1601392980782,186,-0.84228516,-0.4505005,0.3600464
1601392980782,187,-0.84228516,-0.4505005,0.3600464
1601392980785,188,-0.8703613,-0.31280518,0.5075073
1601392980789,189,-0.86694336,-0.41241455,0.4520874
1601392980792,190,-0.80615234,-0.4500122,0.42547607
1601392980794,191,-0.84228516,-0.4505005,0.3600464
1601392982949,192,-0.94628906,-0.35357666,0.3685913
1601392982950,193,-0.94628906,-0.35357666,0.3685913
1601392982951,194,-0.94628906,-0.35357666,0.3685913
1601392982951,195,-0.94628906,-0.35357666,0.3685913
1601392982953,196,-0.94628906,-0.35357666,0.3685913
1601392982957,197,-0.9758301,-0.38775635,0.3378296
1601392982958,198,-0.9758301,-0.38775635,0.3378296
1601392982960,199,-0.94628906,-0.35357666,0.3685913
1601392982970,200,-0.9758301,-0.38775635,0.3378296
1601392982970,201,-0.9128418,-0.38531494,0.35369873
1601392982970,202,-0.9758301,-0.38775635,0.3378296
1601392982971,203,-0.9128418,-0.38531494,0.35369873
1601392982972,204,-0.9128418,-0.38531494,0.35369873
1601392982973,205,-0.9758301,-0.38775635,0.3378296
1601392982975,206,-0.9128418,-0.38531494,0.35369873
1601392982981,207,-0.8808594,-0.39312744,0.3534546
1601392982983,208,-0.9758301,-0.38775635,0.3378296
1601392982984,209,-0.9128418,-0.38531494,0.35369873
1601392982985,210,-0.8808594,-0.39312744,0.3534546
1601392982985,211,-0.8808594,-0.39312744,0.3534546
1601392982987,212,-0.8808594,-0.39312744,0.3534546
1601392982989,213,-1.0585938,-0.30841064,0.47576904
1601392982992,214,-0.8808594,-0.39312744,0.3534546
1601392983005,215,-1.0585938,-0.30841064,0.47576904
1601392983006,216,-1.0585938,-0.30841064,0.47576904
1601392983007,217,-0.9128418,-0.38531494,0.35369873
1601392983008,218,-1.0427246,-0.26397705,0.6268921
1601392983009,219,-1.0585938,-0.30841064,0.47576904
1601392983010,220,-1.0585938,-0.30841064,0.47576904
1601392983011,221,-1.0427246,-0.26397705,0.6268921
1601392983012,222,-1.0427246,-0.26397705,0.6268921
1601392983012,223,-1.0427246,-0.26397705,0.6268921
1601392983013,224,-0.8808594,-0.39312744,0.3534546
1601392983014,225,-0.98876953,-0.29034424,0.5844116
1601392983015,226,-1.0585938,-0.30841064,0.47576904
1601392983018,227,-0.98876953,-0.29034424,0.5844116
1601392983021,228,-1.072998,-0.22540283,0.47869873
1601392983023,229,-1.072998,-0.22540283,0.47869873
1601392983026,230,-0.98876953,-0.29034424,0.5844116
1601392983034,231,-0.98876953,-0.29034424,0.5844116
1601392983034,232,-0.96655273,-0.23590088,0.27191162
1601392983036,233,-1.0427246,-0.26397705,0.6268921
1601392983036,234,-0.96655273,-0.23590088,0.27191162
1601392983036,235,-1.0427246,-0.26397705,0.6268921
1601392983037,236,-1.072998,-0.22540283,0.47869873
1601392983049,237,-1.072998,-0.22540283,0.47869873
1601392983050,238,-0.91625977,-0.14801025,0.19818115
1601392983051,239,-0.98876953,-0.29034424,0.5844116
1601392983055,240,-0.91625977,-0.14801025,0.19818115
1601392983055,241,-1.072998,-0.22540283,0.47869873
1601392983055,242,-0.96655273,-0.23590088,0.27191162
1601392983055,243,-0.96655273,-0.23590088,0.27191162
1601392983055,244,-0.96655273,-0.23590088,0.27191162
1601392983055,245,-0.8347168,-0.13873291,0.2387085
1601392983056,246,-0.98876953,-0.29034424,0.5844116
1601392983056,247,-0.8347168,-0.13873291,0.2387085
1601392983062,248,-0.91625977,-0.14801025,0.19818115
1601392983063,249,-0.91625977,-0.14801025,0.19818115
1601392983063,250,-0.91625977,-0.14801025,0.19818115
1601392983064,251,-0.8347168,-0.13873291,0.2387085
1601392983065,252,-1.072998,-0.22540283,0.47869873
1601392983066,253,-0.7890625,-0.15289307,0.22381592
1601392983066,254,-0.7890625,-0.15289307,0.22381592
1601392983068,255,-0.8347168,-0.13873291,0.2387085
1601392983070,256,-0.7890625,-0.15289307,0.22381592
1601392983070,257,-0.96655273,-0.23590088,0.27191162
1601392983085,258,-0.7890625,-0.15289307,0.22381592
1601392983086,259,-0.8347168,-0.13873291,0.2387085
1601392983087,260,-0.79589844,-0.20489502,0.25628662
1601392983087,261,-0.79589844,-0.20489502,0.25628662
1601392983088,262,-0.79589844,-0.20489502,0.25628662
1601392983088,263,-0.91625977,-0.14801025,0.19818115
1601392983089,264,-0.8347168,-0.13873291,0.2387085
1601392983090,265,-0.79589844,-0.20489502,0.25628662
1601392983091,266,-0.85424805,-0.1963501,0.3156128
1601392983092,267,-0.7890625,-0.15289307,0.22381592
1601392983092,268,-0.85424805,-0.1963501,0.3156128
1601392983093,269,-0.85424805,-0.1963501,0.3156128
1601392983097,270,-0.85424805,-0.1963501,0.3156128
1601392983099,271,-0.7890625,-0.15289307,0.22381592
1601392983099,272,-0.9477539,-0.12237549,0.32196045
1601392983099,273,-0.9477539,-0.12237549,0.32196045
1601392983099,274,-0.79589844,-0.20489502,0.25628662
1601392983116,275,-0.9477539,-0.12237549,0.32196045
1601392983116,276,-0.79589844,-0.20489502,0.25628662
1601392983116,277,-0.8574219,-0.10675049,0.26239014
1601392983117,278,-0.85424805,-0.1963501,0.3156128
1601392983117,279,-0.9477539,-0.12237549,0.32196045
1601392983119,280,-0.85424805,-0.1963501,0.3156128
1601392983120,281,-0.9477539,-0.12237549,0.32196045
1601392983120,282,-0.8574219,-0.10675049,0.26239014
1601392983123,283,-0.8574219,-0.10675049,0.26239014
1601392983123,284,-0.8469238,-0.21539307,0.24432373
1601392983123,285,-0.8574219,-0.10675049,0.26239014
1601392983123,286,-0.9477539,-0.12237549,0.32196045
1601392983124,287,-0.8469238,-0.21539307,0.24432373
1601392983124,288,-1.4094238,-0.2774048,0.2831421
1601392983126,289,-0.8469238,-0.21539307,0.24432373
1601392983128,290,-0.8574219,-0.10675049,0.26239014
1601392983138,291,-0.8574219,-0.10675049,0.26239014
1601392983138,292,-1.4094238,-0.2774048,0.2831421
1601392983139,293,-0.8469238,-0.21539307,0.24432373
1601392983139,294,-1.4094238,-0.2774048,0.2831421
1601392983139,295,-1.3706055,-0.12237549,0.1618042
1601392983139,296,-0.8469238,-0.21539307,0.24432373
1601392983139,297,-0.8469238,-0.21539307,0.24432373
1601392983139,298,-1.3706055,-0.12237549,0.1618042
1601392983140,299,-1.3706055,-0.12237549,0.1618042
1601392983143,300,-1.4094238,-0.2774048,0.2831421
1601392983144,301,-1.2961426,-0.19927979,0.17156982
1601392983162,302,-1.4094238,-0.2774048,0.2831421
1601392983163,303,-1.2961426,-0.19927979,0.17156982
1601392983164,304,-1.4094238,-0.2774048,0.2831421
1601392983164,305,-1.3706055,-0.12237549,0.1618042
1601392983165,306,-1.2961426,-0.19927979,0.17156982
1601392983166,307,-1.0842285,-0.13214111,0.17938232
1601392983166,308,-1.0842285,-0.13214111,0.17938232
1601392983166,309,-1.3706055,-0.12237549,0.1618042
1601392983167,310,-0.95166016,-0.14190674,0.17108154
1601392983168,311,-1.2961426,-0.19927979,0.17156982
1601392983168,312,-1.3706055,-0.12237549,0.1618042
1601392983169,313,-0.88305664,-0.1428833,0.19769287
1601392983169,314,-1.2961426,-0.19927979,0.17156982
1601392983170,315,-1.2961426,-0.19927979,0.17156982
1601392983170,316,-1.0842285,-0.13214111,0.17938232
1601392983171,317,-1.0842285,-0.13214111,0.17938232
1601392983172,318,-0.95166016,-0.14190674,0.17108154
1601392983172,319,-0.95166016,-0.14190674,0.17108154
1601392983173,320,-0.88305664,-0.1428833,0.19769287
1601392983173,321,-0.88305664,-0.1428833,0.19769287
1601392983174,322,-1.0842285,-0.13214111,0.17938232
1601392983174,323,-0.88842773,-0.16436768,0.2399292
1601392983175,324,-1.0842285,-0.13214111,0.17938232
1601392983176,325,-0.88842773,-0.16436768,0.2399292
1601392983176,326,-0.88842773,-0.16436768,0.2399292
1601392983177,327,-0.95166016,-0.14190674,0.17108154
1601392983182,328,-0.95166016,-0.14190674,0.17108154
1601392983183,329,-0.9145508,-0.15338135,0.3163452
1601392983184,330,-0.9145508,-0.15338135,0.3163452
1601392983184,331,-0.88305664,-0.1428833,0.19769287
1601392983185,332,-0.9145508,-0.15338135,0.3163452
1601392983186,333,-0.95166016,-0.14190674,0.17108154
1601392983186,334,-0.88305664,-0.1428833,0.19769287
1601392983188,335,-0.9560547,-0.18121338,0.2929077
1601392983193,336,-0.88842773,-0.16436768,0.2399292
1601392983194,337,-0.9560547,-0.18121338,0.2929077
1601392983195,338,-0.88305664,-0.1428833,0.19769287
1601392983196,339,-0.88842773,-0.16436768,0.2399292
1601392983196,340,-1.2021484,-0.06109619,0.2880249
1601392983197,341,-0.9560547,-0.18121338,0.2929077
1601392983200,342,-0.9145508,-0.15338135,0.3163452
1601392983202,343,-1.2021484,-0.06109619,0.2880249
1601392983204,344,-0.9145508,-0.15338135,0.3163452
1601392983211,345,-0.9560547,-0.18121338,0.2929077
1601392983211,346,-0.9560547,-0.18121338,0.2929077
1601392983211,347,-1.0708008,-0.19415283,0.30975342
1601392983212,348,-1.0708008,-0.19415283,0.30975342
1601392983213,349,-1.2021484,-0.06109619,0.2880249
1601392983213,350,-0.88842773,-0.16436768,0.2399292
1601392983216,351,-1.2021484,-0.06109619,0.2880249
1601392983219,352,-0.91552734,-0.24859619,0.31658936
1601392983220,353,-1.0708008,-0.19415283,0.30975342
1601392983228,354,-0.91552734,-0.24859619,0.31658936
1601392983228,355,-1.0708008,-0.19415283,0.30975342
1601392983228,356,-0.91552734,-0.24859619,0.31658936
1601392983229,357,-0.90234375,-0.1975708,0.3517456
1601392983229,358,-0.9145508,-0.15338135,0.3163452
1601392983230,359,-1.2021484,-0.06109619,0.2880249
1601392983233,360,-0.90234375,-0.1975708,0.3517456
1601392983240,361,-0.90234375,-0.1975708,0.3517456
1601392983240,362,-0.8742676,-0.17510986,0.47650146
1601392983240,363,-0.9560547,-0.18121338,0.2929077
1601392983241,364,-1.0708008,-0.19415283,0.30975342
1601392983241,365,-0.91552734,-0.24859619,0.31658936
1601392983241,366,-0.8742676,-0.17510986,0.47650146
1601392983249,367,-0.8742676,-0.17510986,0.47650146
1601392983249,368,-0.85498047,-0.121398926,0.5778198
1601392983249,369,-1.2021484,-0.06109619,0.2880249
1601392983249,370,-0.85498047,-0.121398926,0.5778198
1601392983250,371,-0.85498047,-0.121398926,0.5778198
1601392983250,372,-0.90234375,-0.1975708,0.3517456
1601392983257,373,-1.0708008,-0.19415283,0.30975342
1601392983258,374,-0.91552734,-0.24859619,0.31658936
1601392983259,375,-0.8742676,-0.17510986,0.47650146
1601392983262,376,-0.91552734,-0.24859619,0.31658936
1601392983272,377,-0.85498047,-0.121398926,0.5778198
1601392983272,378,-0.90234375,-0.1975708,0.3517456
1601392983272,379,-0.90234375,-0.1975708,0.3517456
1601392983273,380,-0.8742676,-0.17510986,0.47650146
1601392983273,381,-0.85498047,-0.121398926,0.5778198
1601392983274,382,-0.8742676,-0.17510986,0.47650146
1601392983274,383,-0.85498047,-0.121398926,0.5778198
1601392985550,384,-1.1196289,-0.027893066,0.6119995
1601392985551,385,-1.1196289,-0.027893066,0.6119995
1601392985553,386,-1.1196289,-0.027893066,0.6119995
1601392985567,387,-1.1196289,-0.027893066,0.6119995
1601392985567,388,-1.3808594,-0.029846191,0.51849365
1601392985567,389,-1.1196289,-0.027893066,0.6119995
1601392985568,390,-1.3808594,-0.029846191,0.51849365
1601392985569,391,-1.1196289,-0.027893066,0.6119995
1601392985570,392,-1.3808594,-0.029846191,0.51849365
1601392985570,393,-1.3808594,-0.029846191,0.51849365
1601392985571,394,-1.3808594,-0.029846191,0.51849365
1601392985572,395,-1.0229492,-0.16680908,0.41326904
1601392985573,396,-1.3808594,-0.029846191,0.51849365
1601392985574,397,-0.8964844,-0.45196533,0.4225464
1601392985575,398,-1.0229492,-0.16680908,0.41326904
1601392985577,399,-1.0229492,-0.16680908,0.41326904
1601392985579,400,-0.8964844,-0.45196533,0.4225464
1601392985581,401,-0.9807129,-0.43463135,0.54901123
1601392985584,402,-0.8005371,-0.43121338,0.4472046
1601392985585,403,-0.8964844,-0.45196533,0.4225464
1601392985588,404,-0.9807129,-0.43463135,0.54901123
1601392985589,405,-0.9807129,-0.43463135,0.54901123
1601392985595,406,-0.8005371,-0.43121338,0.4472046
1601392985596,407,-1.0229492,-0.16680908,0.41326904
1601392985596,408,-1.0229492,-0.16680908,0.41326904
1601392985597,409,-0.5925293,-0.33477783,0.4459839
1601392985598,410,-0.5925293,-0.33477783,0.4459839
1601392985599,411,-1.0229492,-0.16680908,0.41326904
1601392985606,412,-0.46044922,-0.29571533,0.42645264
1601392985606,413,-0.8964844,-0.45196533,0.4225464
1601392985607,414,-0.8005371,-0.43121338,0.4472046
1601392985608,415,-0.8964844,-0.45196533,0.4225464
1601392985609,416,-0.8964844,-0.45196533,0.4225464
1601392985609,417,-0.46044922,-0.29571533,0.42645264
1601392985610,418,-0.5925293,-0.33477783,0.4459839
1601392985612,419,-0.57910156,-0.380188,0.50823975
1601392985614,420,-0.57910156,-0.380188,0.50823975
1601392985616,421,-0.46044922,-0.29571533,0.42645264
1601392985618,422,-0.8339844,0.0033569336,0.61590576
1601392985620,423,-0.9807129,-0.43463135,0.54901123
1601392985621,424,-0.8005371,-0.43121338,0.4472046
1601392985623,425,-0.9807129,-0.43463135,0.54901123
1601392985625,426,-0.8005371,-0.43121338,0.4472046
1601392985626,427,-0.57910156,-0.380188,0.50823975
1601392985629,428,-0.8339844,0.0033569336,0.61590576
1601392985632,429,-0.5925293,-0.33477783,0.4459839
1601392985633,430,-0.46044922,-0.29571533,0.42645264
1601392985635,431,-0.8339844,0.0033569336,0.61590576
1601392985644,432,-0.9807129,-0.43463135,0.54901123
1601392985644,433,-0.5925293,-0.33477783,0.4459839
1601392985644,434,-0.82421875,-0.0947876,0.635437
1601392985645,435,-0.57910156,-0.380188,0.50823975
1601392985645,436,-0.82421875,-0.0947876,0.635437
1601392985645,437,-0.82421875,-0.0947876,0.635437
1601392985646,438,-0.8339844,0.0033569336,0.61590576
1601392985646,439,-0.8876953,-0.057922363,0.53338623
1601392985646,440,-0.82421875,-0.0947876,0.635437
1601392985646,441,-0.8876953,-0.057922363,0.53338623
1601392985652,442,-0.8005371,-0.43121338,0.4472046
1601392985652,443,-0.8876953,-0.057922363,0.53338623
1601392985653,444,-0.46044922,-0.29571533,0.42645264
1601392985653,445,-0.8781738,-0.07110596,0.5883179
1601392985654,446,-0.8876953,-0.057922363,0.53338623
1601392985655,447,-0.78930664,-0.10723877,0.64764404
1601392985656,448,-0.5925293,-0.33477783,0.4459839
1601392985658,449,-0.57910156,-0.380188,0.50823975
1601392985660,450,-0.8339844,0.0033569336,0.61590576
1601392985661,451,-0.46044922,-0.29571533,0.42645264
1601392985667,452,-0.8781738,-0.07110596,0.5883179
1601392985667,453,-0.8781738,-0.07110596,0.5883179
1601392985668,454,-0.76708984,-0.13433838,0.75457764
1601392985668,455,-0.82421875,-0.0947876,0.635437
1601392985669,456,-0.8781738,-0.07110596,0.5883179
1601392985669,457,-0.57910156,-0.380188,0.50823975
1601392985671,458,-0.78930664,-0.10723877,0.64764404
1601392985673,459,-0.8876953,-0.057922363,0.53338623
1601392985674,460,-0.8339844,0.0033569336,0.61590576
1601392985676,461,-0.78930664,-0.10723877,0.64764404
1601392985682,462,-0.78930664,-0.10723877,0.64764404
1601392985683,463,-0.8781738,-0.07110596,0.5883179
1601392985683,464,-0.7097168,-0.16656494,0.7472534
1601392985684,465,-0.82421875,-0.0947876,0.635437
1601392985684,466,-0.76708984,-0.13433838,0.75457764
1601392985685,467,-0.8876953,-0.057922363,0.53338623
1601392985686,468,-0.76708984,-0.13433838,0.75457764
1601392985687,469,-0.73095703,-0.15948486,0.79364014
1601392985689,470,-0.7414551,-0.12530518,0.7875366
1601392985690,471,-0.64282227,-0.08843994,0.6864624
1601392985692,472,-0.701416,-0.20098877,0.7201538
1601392985697,473,-0.77563477,-0.27008057,0.8727417
1601392985697,474,-0.8781738,-0.07110596,0.5883179
1601392985698,475,-0.7097168,-0.16656494,0.7472534
1601392985698,476,-0.78930664,-0.10723877,0.64764404
1601392985699,477,-0.76708984,-0.13433838,0.75457764
1601392985700,478,-0.66845703,-0.19586182,0.7394409
1601392985710,479,-0.78930664,-0.10723877,0.64764404
1601392985710,480,-0.73095703,-0.15948486,0.79364014
1601392985711,481,-0.76708984,-0.13433838,0.75457764
1601392985711,482,-0.7097168,-0.16656494,0.7472534
1601392985712,483,-0.7097168,-0.16656494,0.7472534
1601392985713,484,-0.4958496,-0.30474854,0.822937
1601392985713,485,-0.76708984,-0.13433838,0.75457764
1601392985714,486,-0.5695801,-0.28961182,0.8065796
1601392985715,487,-0.7414551,-0.12530518,0.7875366
1601392985715,488,-0.73095703,-0.15948486,0.79364014
1601392985716,489,-0.73095703,-0.15948486,0.79364014
1601392985716,490,-0.7097168,-0.16656494,0.7472534
1601392985717,491,-0.7097168,-0.16656494,0.7472534
1601392985717,492,-0.56103516,-0.3640747,0.79852295
1601392985719,493,-0.7414551,-0.12530518,0.7875366
1601392985721,494,-0.7414551,-0.12530518,0.7875366
1601392985722,495,-0.64282227,-0.08843994,0.6864624
1601392985725,496,-0.701416,-0.20098877,0.7201538
1601392985726,497,-0.64282227,-0.08843994,0.6864624
1601392985726,498,-0.73095703,-0.15948486,0.79364014
1601392985732,499,-0.73095703,-0.15948486,0.79364014
1601392985733,500,-0.64282227,-0.08843994,0.6864624
1601392985733,501,-0.77563477,-0.27008057,0.8727417
1601392985733,502,-0.5239258,-0.40509033,0.78582764
1601392985733,503,-0.7414551,-0.12530518,0.7875366
1601392985734,504,-0.701416,-0.20098877,0.7201538
1601392985734,505,-0.7414551,-0.12530518,0.7875366
1601392985736,506,-0.66845703,-0.19586182,0.7394409
1601392985741,507,-0.4958496,-0.30474854,0.822937
1601392985742,508,-0.64282227,-0.08843994,0.6864624
1601392985742,509,-0.77563477,-0.27008057,0.8727417
1601392985742,510,-0.64282227,-0.08843994,0.6864624
1601392985742,511,-0.701416,-0.20098877,0.7201538
1601392985743,512,-0.701416,-0.20098877,0.7201538
1601392985747,513,-0.5695801,-0.28961182,0.8065796
1601392985761,514,-0.56103516,-0.3640747,0.79852295
1601392985762,515,-0.51538086,-0.44488525,0.72991943
1601392985762,516,-0.77563477,-0.27008057,0.8727417
1601392985763,517,-0.77563477,-0.27008057,0.8727417
1601392985764,518,-0.66845703,-0.19586182,0.7394409
1601392985765,519,-0.701416,-0.20098877,0.7201538
1601392985766,520,-0.4958496,-0.30474854,0.822937
1601392985768,521,-0.77563477,-0.27008057,0.8727417
1601392985768,522,-0.5695801,-0.28961182,0.8065796
1601392985769,523,-0.66845703,-0.19586182,0.7394409
1601392985769,524,-0.66845703,-0.19586182,0.7394409
1601392985770,525,-0.56103516,-0.3640747,0.79852295
1601392985771,526,-0.49829102,-0.4578247,0.72454834
1601392985772,527,-0.5239258,-0.40509033,0.78582764
1601392985773,528,-0.66845703,-0.19586182,0.7394409
1601392985799,529,-0.4958496,-0.30474854,0.822937
1601392985800,530,-0.53125,-0.4866333,0.7243042
1601392985801,531,-0.5239258,-0.40509033,0.78582764
1601392985802,532,-0.4958496,-0.30474854,0.822937
1601392985803,533,-0.4958496,-0.30474854,0.822937
1601392985804,534,-0.51538086,-0.44488525,0.72991943
1601392985804,535,-0.5695801,-0.28961182,0.8065796
1601392985805,536,-0.4621582,-0.51348877,0.7028198
1601392985806,537,-0.5695801,-0.28961182,0.8065796
1601392985807,538,-0.39257812,-0.51641846,0.7015991
1601392985807,539,-0.5695801,-0.28961182,0.8065796
1601392985808,540,-0.51538086,-0.44488525,0.72991943
1601392985809,541,-0.49829102,-0.4578247,0.72454834
1601392985809,542,-0.56103516,-0.3640747,0.79852295
1601392985811,543,-0.56103516,-0.3640747,0.79852295
1601392985811,544,-0.40356445,-0.5198364,0.7057495
1601392985815,545,-0.56103516,-0.3640747,0.79852295
1601392985815,546,-0.49829102,-0.4578247,0.72454834
1601392985815,547,-0.53125,-0.4866333,0.7243042
1601392985815,548,-0.5239258,-0.40509033,0.78582764
1601392985815,549,-0.5239258,-0.40509033,0.78582764
1601392985822,550,-0.5239258,-0.40509033,0.78582764
1601392985822,551,-0.53125,-0.4866333,0.7243042
1601392985823,552,-0.4621582,-0.51348877,0.7028198
1601392985823,553,-0.51538086,-0.44488525,0.72991943
1601392985823,554,-0.51538086,-0.44488525,0.72991943
1601392985832,555,-0.51538086,-0.44488525,0.72991943
1601392985832,556,-0.49829102,-0.4578247,0.72454834
1601392985833,557,-0.39257812,-0.51641846,0.7015991
1601392985833,558,-0.4621582,-0.51348877,0.7028198
1601392985833,559,-0.49829102,-0.4578247,0.72454834
1601392985834,560,-0.40356445,-0.5198364,0.7057495
1601392985834,561,-0.53125,-0.4866333,0.7243042
1601392985834,562,-0.39257812,-0.51641846,0.7015991
1601392985835,563,-0.49829102,-0.4578247,0.72454834
1601392985849,564,-0.53125,-0.4866333,0.7243042
1601392985849,565,-0.4621582,-0.51348877,0.7028198
1601392985850,566,-0.4621582,-0.51348877,0.7028198
1601392985851,567,-0.39257812,-0.51641846,0.7015991
1601392985852,568,-0.39257812,-0.51641846,0.7015991
1601392985853,569,-0.40356445,-0.5198364,0.7057495
1601392985853,570,-0.53125,-0.4866333,0.7243042
1601392985854,571,-0.40356445,-0.5198364,0.7057495
1601392985855,572,-0.4621582,-0.51348877,0.7028198
1601392985857,573,-0.39257812,-0.51641846,0.7015991
1601392985858,574,-0.40356445,-0.5198364,0.7057495
1601392985859,575,-0.40356445,-0.5198364,0.7057495
1601392988150,576,-0.4736328,-0.5425415,0.71209717
1601392988150,577,-0.4736328,-0.5425415,0.71209717
1601392988151,578,-0.4736328,-0.5425415,0.71209717
1601392988153,579,-0.4736328,-0.5425415,0.71209717
1601392988153,580,-0.4736328,-0.5425415,0.71209717
1601392988156,581,-0.4736328,-0.5425415,0.71209717
1601392988167,582,-0.5241699,-0.52471924,0.699646
1601392988167,583,-0.5241699,-0.52471924,0.699646
1601392988168,584,-0.5241699,-0.52471924,0.699646
1601392988169,585,-0.5332031,-0.53570557,0.684021
1601392988169,586,-0.5332031,-0.53570557,0.684021
1601392988170,587,-0.5241699,-0.52471924,0.699646
1601392988171,588,-0.5407715,-0.5352173,0.67474365
1601392988172,589,-0.5241699,-0.52471924,0.699646
1601392988172,590,-0.5241699,-0.52471924,0.699646
1601392988173,591,-0.5332031,-0.53570557,0.684021
1601392988174,592,-0.5332031,-0.53570557,0.684021
1601392988176,593,-0.5332031,-0.53570557,0.684021
1601392988180,594,-0.5407715,-0.5352173,0.67474365
1601392988180,595,-0.5407715,-0.5352173,0.67474365
1601392988181,596,-0.5332031,-0.53570557,0.684021
1601392988184,597,-0.5407715,-0.5352173,0.67474365
1601392988185,598,-0.5407715,-0.5352173,0.67474365
1601392988185,599,-0.5344238,-0.552063,0.66448975
1601392988188,600,-0.5344238,-0.552063,0.66448975
1601392988194,601,-0.5344238,-0.552063,0.66448975
1601392988196,602,-0.5344238,-0.552063,0.66448975
1601392988196,603,-0.56152344,-0.56427,0.6630249
1601392988196,604,-0.56152344,-0.56427,0.6630249
1601392988196,605,-0.5407715,-0.5352173,0.67474365
1601392988197,606,-0.56152344,-0.56427,0.6630249
1601392988199,607,-0.56152344,-0.56427,0.6630249
1601392988202,608,-0.5649414,-0.56036377,0.6520386
1601392988203,609,-0.53100586,-0.55352783,0.6539917
1601392988205,610,-0.5344238,-0.552063,0.66448975
1601392988212,611,-0.56152344,-0.56427,0.6630249
1601392988213,612,-0.5344238,-0.552063,0.66448975
1601392988213,613,-0.5649414,-0.56036377,0.6520386
1601392988215,614,-0.5197754,-0.565979,0.6605835
1601392988215,615,-0.5649414,-0.56036377,0.6520386
1601392988216,616,-0.5649414,-0.56036377,0.6520386
1601392988229,617,-0.5649414,-0.56036377,0.6520386
1601392988229,618,-0.56152344,-0.56427,0.6630249
1601392988229,619,-0.53100586,-0.55352783,0.6539917
1601392988230,620,-0.53100586,-0.55352783,0.6539917
1601392988230,621,-0.57470703,-0.55914307,0.65130615
1601392988231,622,-0.53100586,-0.55352783,0.6539917
1601392988232,623,-0.53100586,-0.55352783,0.6539917
1601392988233,624,-0.6166992,-0.5615845,0.635437
1601392988233,625,-0.5197754,-0.565979,0.6605835
1601392988234,626,-0.5649414,-0.56036377,0.6520386
1601392988235,627,-0.57470703,-0.55914307,0.65130615
1601392988236,628,-0.5197754,-0.565979,0.6605835
1601392988248,629,-0.5197754,-0.565979,0.6605835
1601392988249,630,-0.5197754,-0.565979,0.6605835
1601392988249,631,-0.53100586,-0.55352783,0.6539917
1601392988249,632,-0.55078125,-0.522522,0.63031006
1601392988250,633,-0.57470703,-0.55914307,0.65130615
1601392988251,634,-0.6166992,-0.5615845,0.635437
1601392988251,635,-0.55078125,-0.522522,0.63031006
1601392988253,636,-0.57470703,-0.55914307,0.65130615
1601392988253,637,-0.5197754,-0.565979,0.6605835
1601392988253,638,-0.6166992,-0.5615845,0.635437
1601392988255,639,-0.57470703,-0.55914307,0.65130615
1601392988257,640,-0.6166992,-0.5615845,0.635437
1601392988260,641,-0.57470703,-0.55914307,0.65130615
1601392988262,642,-0.55078125,-0.522522,0.63031006
1601392988262,643,-0.6166992,-0.5615845,0.635437
1601392988268,644,-0.55078125,-0.522522,0.63031006
1601392988269,645,-0.5834961,-0.5366821,0.64837646
1601392988269,646,-0.6166992,-0.5615845,0.635437
1601392988269,647,-0.5834961,-0.5366821,0.64837646
1601392988271,648,-0.5834961,-0.5366821,0.64837646
1601392988271,649,-0.55078125,-0.522522,0.63031006
1601392988274,650,-0.5834961,-0.5366821,0.64837646
1601392988281,651,-0.55078125,-0.522522,0.63031006
1601392988282,652,-0.5839844,-0.52593994,0.68548584
1601392988283,653,-0.5839844,-0.52593994,0.68548584
1601392988283,654,-0.5834961,-0.5366821,0.64837646
1601392988285,655,-0.5839844,-0.52593994,0.68548584
1601392988285,656,-0.5839844,-0.52593994,0.68548584
1601392988288,657,-0.5905762,-0.4837036,0.65496826
1601392988289,658,-0.5839844,-0.52593994,0.68548584
1601392988290,659,-0.5905762,-0.4837036,0.65496826
1601392988295,660,-0.5834961,-0.5366821,0.64837646
1601392988295,661,-0.6064453,-0.41900635,0.5956421
1601392988295,662,-0.5905762,-0.4837036,0.65496826
1601392988296,663,-0.5839844,-0.52593994,0.68548584
1601392988296,664,-0.5905762,-0.4837036,0.65496826
1601392988297,665,-0.6064453,-0.41900635,0.5956421
1601392988314,666,-0.5905762,-0.4837036,0.65496826
1601392988314,667,-0.8161621,-0.29595947,0.56048584
1601392988315,668,-0.6064453,-0.41900635,0.5956421
1601392988315,669,-0.5905762,-0.4837036,0.65496826
1601392988315,670,-0.6064453,-0.41900635,0.5956421
1601392988316,671,-0.8161621,-0.29595947,0.56048584
1601392988316,672,-0.8161621,-0.29595947,0.56048584
1601392988316,673,-0.6064453,-0.41900635,0.5956421
1601392988317,674,-1.0627441,-0.3411255,0.7247925
1601392988318,675,-0.8161621,-0.29595947,0.56048584
1601392988318,676,-0.95410156,-0.19390869,0.4105835
1601392988319,677,-1.0627441,-0.3411255,0.7247925
1601392988319,678,-1.0627441,-0.3411255,0.7247925
1601392988319,679,-1.0627441,-0.3411255,0.7247925
1601392988320,680,-0.8161621,-0.29595947,0.56048584
1601392988320,681,-0.6064453,-0.41900635,0.5956421
1601392988331,682,-1.0031738,-0.17681885,0.37835693
1601392988332,683,-0.95410156,-0.19390869,0.4105835
1601392988332,684,-0.95410156,-0.19390869,0.4105835
1601392988333,685,-1.0705566,-0.07745361,0.47454834
1601392988333,686,-1.0627441,-0.3411255,0.7247925
1601392988334,687,-1.0031738,-0.17681885,0.37835693
1601392988334,688,-0.95410156,-0.19390869,0.4105835
1601392988335,689,-1.0705566,-0.07745361,0.47454834
1601392988335,690,-1.0031738,-0.17681885,0.37835693
1601392988336,691,-0.8161621,-0.29595947,0.56048584
1601392988336,692,-0.9519043,-0.045959473,0.38861084
1601392988337,693,-0.8688965,-0.055480957,0.35760498
1601392988337,694,-0.95410156,-0.19390869,0.4105835
1601392988355,695,-0.9519043,-0.045959473,0.38861084
1601392988355,696,-1.0705566,-0.07745361,0.47454834
1601392988356,697,-1.0031738,-0.17681885,0.37835693
1601392988357,698,-1.0627441,-0.3411255,0.7247925
1601392988357,699,-0.8046875,-0.089416504,0.25701904
1601392988358,700,-1.0705566,-0.07745361,0.47454834
1601392988359,701,-0.8391113,-0.1663208,0.11468506
1601392988359,702,-0.9519043,-0.045959473,0.38861084
1601392988360,703,-0.9519043,-0.045959473,0.38861084
1601392988360,704,-0.8688965,-0.055480957,0.35760498
1601392988361,705,-1.0031738,-0.17681885,0.37835693
1601392988361,706,-0.8046875,-0.089416504,0.25701904
1601392988362,707,-0.8688965,-0.055480957,0.35760498
1601392988363,708,-1.0705566,-0.07745361,0.47454834
1601392988363,709,-0.8046875,-0.089416504,0.25701904
1601392988363,710,-0.9519043,-0.045959473,0.38861084
1601392988364,711,-0.8688965,-0.055480957,0.35760498
1601392988364,712,-0.9550781,-0.2630005,0.22747803
1601392988365,713,-1.0517578,-0.35650635,0.30511475
1601392988365,714,-0.95410156,-0.19390869,0.4105835
1601392988366,715,-1.0183105,-0.21783447,0.307312
1601392988367,716,-0.8688965,-0.055480957,0.35760498
1601392988369,717,-0.8046875,-0.089416504,0.25701904
1601392988370,718,-0.8391113,-0.1663208,0.11468506
1601392988372,719,-0.8046875,-0.089416504,0.25701904
1601392988374,720,-0.8391113,-0.1663208,0.11468506
1601392988378,721,-0.9550781,-0.2630005,0.22747803
1601392988379,722,-0.9550781,-0.2630005,0.22747803
1601392988379,723,-0.8391113,-0.1663208,0.11468506
1601392988380,724,-1.0031738,-0.17681885,0.37835693
1601392988381,725,-0.8391113,-0.1663208,0.11468506
1601392988381,726,-1.1223145,-0.11651611,0.22381592
1601392988383,727,-1.0517578,-0.35650635,0.30511475
1601392988384,728,-0.9550781,-0.2630005,0.22747803
1601392988386,729,-1.0517578,-0.35650635,0.30511475
1601392988393,730,-1.0183105,-0.21783447,0.307312
1601392988394,731,-1.0183105,-0.21783447,0.307312
1601392988395,732,-1.0705566,-0.07745361,0.47454834
1601392988395,733,-0.9550781,-0.2630005,0.22747803
1601392988396,734,-1.1203613,-0.11871338,0.16619873
1601392988396,735,-1.0517578,-0.35650635,0.30511475
1601392988397,736,-0.9519043,-0.045959473,0.38861084
1601392988398,737,-1.0183105,-0.21783447,0.307312
1601392988398,738,-0.8688965,-0.055480957,0.35760498
1601392988399,739,-1.0517578,-0.35650635,0.30511475
1601392988400,740,-0.96728516,-0.5383911,0.14666748
1601392988401,741,-1.1223145,-0.11651611,0.22381592
1601392988403,742,-1.1203613,-0.11871338,0.16619873
1601392988405,743,-1.0183105,-0.21783447,0.307312
1601392988406,744,-1.1223145,-0.11651611,0.22381592
1601392988408,745,-1.1203613,-0.11871338,0.16619873
1601392988410,746,-0.8046875,-0.089416504,0.25701904
1601392988413,747,-0.8391113,-0.1663208,0.11468506
1601392988415,748,-0.98657227,-0.16607666,0.24798584
1601392988418,749,-1.1223145,-0.11651611,0.22381592
1601392988426,750,-0.96728516,-0.5383911,0.14666748
1601392988426,751,-0.9550781,-0.2630005,0.22747803
1601392988427,752,-0.96728516,-0.5383911,0.14666748
1601392988429,753,-0.98657227,-0.16607666,0.24798584
1601392988430,754,-1.1203613,-0.11871338,0.16619873
1601392988431,755,-0.98657227,-0.16607666,0.24798584
1601392988432,756,-1.0517578,-0.35650635,0.30511475
1601392988432,757,-1.1223145,-0.11651611,0.22381592
1601392988434,758,-0.96728516,-0.5383911,0.14666748
1601392988439,759,-1.1203613,-0.11871338,0.16619873
1601392988439,760,-1.0183105,-0.21783447,0.307312
1601392988440,761,-0.98657227,-0.16607666,0.24798584
1601392988441,762,-0.96728516,-0.5383911,0.14666748
1601392988443,763,-1.1223145,-0.11651611,0.22381592
1601392988446,764,-1.1203613,-0.11871338,0.16619873
1601392988448,765,-0.96728516,-0.5383911,0.14666748
1601392988452,766,-0.98657227,-0.16607666,0.24798584
1601392988452,767,-0.98657227,-0.16607666,0.24798584
1601392990856,768,-0.9968262,-0.26031494,0.21160889
1601392990856,769,-0.9968262,-0.26031494,0.21160889
1601392990857,770,-0.9968262,-0.26031494,0.21160889
1601392990859,771,-0.9968262,-0.26031494,0.21160889
1601392990859,772,-1.0732422,-0.18585205,0.26263428
1601392990860,773,-0.9968262,-0.26031494,0.21160889
1601392990860,774,-1.0732422,-0.18585205,0.26263428
1601392990861,775,-0.9968262,-0.26031494,0.21160889
1601392990862,776,-1.0732422,-0.18585205,0.26263428
1601392990863,777,-1.0732422,-0.18585205,0.26263428
1601392990872,778,-1.3051758,-0.10064697,0.32147217
1601392990872,779,-1.0732422,-0.18585205,0.26263428
1601392990872,780,-1.3051758,-0.10064697,0.32147217
1601392990873,781,-1.3051758,-0.10064697,0.32147217
1601392990873,782,-1.3051758,-0.10064697,0.32147217
1601392990874,783,-1.3051758,-0.10064697,0.32147217
1601392990875,784,-1.1291504,-0.05670166,0.3505249
1601392990882,785,-1.0732422,-0.18585205,0.26263428
1601392990883,786,-1.1291504,-0.05670166,0.3505249
1601392990883,787,-1.1291504,-0.05670166,0.3505249
1601392990884,788,-1.1291504,-0.05670166,0.3505249
1601392990885,789,-0.92407227,-0.021057129,0.26971436
1601392990886,790,-1.1291504,-0.05670166,0.3505249
1601392990887,791,-1.3051758,-0.10064697,0.32147217
1601392990889,792,-0.92407227,-0.021057129,0.26971436
1601392990900,793,-0.7753906,-0.109436035,0.2682495
1601392990900,794,-0.92407227,-0.021057129,0.26971436
1601392990902,795,-0.92407227,-0.021057129,0.26971436
1601392990902,796,-0.6867676,-0.16949463,0.41693115
1601392990904,797,-0.7753906,-0.109436035,0.2682495
1601392990904,798,-0.7753906,-0.109436035,0.2682495
1601392990905,799,-0.6867676,-0.16949463,0.41693115
1601392990905,800,-1.1291504,-0.05670166,0.3505249
1601392990906,801,-0.798584,-0.046447754,0.57318115
1601392990907,802,-0.798584,-0.046447754,0.57318115
1601392990909,803,-0.92407227,-0.021057129,0.26971436
1601392990909,804,-0.6867676,-0.16949463,0.41693115
1601392990912,805,-0.92407227,-0.021057129,0.26971436
1601392990915,806,-0.9638672,0.073913574,0.6884155
1601392990917,807,-0.9213867,0.15545654,0.76116943
1601392990919,808,-0.6923828,0.0680542,0.758728
1601392990921,809,-0.9682617,-0.20318604,0.6154175
1601392990925,810,-0.7753906,-0.109436035,0.2682495
1601392990932,811,-0.7753906,-0.109436035,0.2682495
1601392990933,812,-0.9638672,0.073913574,0.6884155
1601392990933,813,-0.7753906,-0.109436035,0.2682495
1601392990934,814,-1.5236816,-0.1260376,0.4232788
1601392990935,815,-0.798584,-0.046447754,0.57318115
1601392990939,816,-0.6867676,-0.16949463,0.41693115
1601392990944,817,-0.6867676,-0.16949463,0.41693115
1601392990944,818,-0.9213867,0.15545654,0.76116943
1601392990944,819,-0.6867676,-0.16949463,0.41693115
1601392990945,820,-0.6923828,0.0680542,0.758728
1601392990946,821,-1.2382812,-0.21514893,0.06072998
1601392990947,822,-0.798584,-0.046447754,0.57318115
1601392990954,823,-0.9638672,0.073913574,0.6884155
1601392990955,824,-0.798584,-0.046447754,0.57318115
1601392990955,825,-0.798584,-0.046447754,0.57318115
1601392990956,826,-0.87402344,-0.23370361,0.10443115
1601392990957,827,-0.9638672,0.073913574,0.6884155
1601392990957,828,-0.9682617,-0.20318604,0.6154175
1601392990964,829,-0.9638672,0.073913574,0.6884155
1601392990964,830,-0.9213867,0.15545654,0.76116943
1601392990964,831,-0.9638672,0.073913574,0.6884155
1601392990965,832,-0.74902344,-0.19439697,0.14691162
1601392990965,833,-1.5236816,-0.1260376,0.4232788
1601392990966,834,-0.9213867,0.15545654,0.76116943
1601392990967,835,-0.9213867,0.15545654,0.76116943
1601392990970,836,-0.6923828,0.0680542,0.758728
1601392990972,837,-0.9682617,-0.20318604,0.6154175
1601392990974,838,-0.6923828,0.0680542,0.758728
1601392990980,839,-0.9682617,-0.20318604,0.6154175
1601392990980,840,-0.8588867,-0.097961426,0.2345581
1601392990980,841,-0.6923828,0.0680542,0.758728
1601392990981,842,-1.5236816,-0.1260376,0.4232788
1601392990983,843,-0.9682617,-0.20318604,0.6154175
1601392990983,844,-0.9213867,0.15545654,0.76116943
1601392990985,845,-1.5236816,-0.1260376,0.4232788
1601392990987,846,-1.2382812,-0.21514893,0.06072998
1601392990990,847,-0.87402344,-0.23370361,0.10443115
1601392990997,848,-1.2382812,-0.21514893,0.06072998
1601392990998,849,-1.2382812,-0.21514893,0.06072998
1601392990999,850,-0.97436523,-0.04498291,0.36712646
1601392990999,851,-0.6923828,0.0680542,0.758728
1601392991000,852,-1.5236816,-0.1260376,0.4232788
1601392991001,853,-0.9682617,-0.20318604,0.6154175
1601392991004,854,-0.87402344,-0.23370361,0.10443115
1601392991012,855,-1.2382812,-0.21514893,0.06072998
1601392991012,856,-0.8342285,-0.089904785,0.4069214
1601392991012,857,-0.74902344,-0.19439697,0.14691162
1601392991014,858,-1.5236816,-0.1260376,0.4232788
1601392991014,859,-0.87402344,-0.23370361,0.10443115
1601392991015,860,-0.74902344,-0.19439697,0.14691162
1601392991021,861,-0.87402344,-0.23370361,0.10443115
1601392991022,862,-0.6467285,-0.25689697,0.3727417
1601392991023,863,-1.2382812,-0.21514893,0.06072998
1601392991023,864,-0.8588867,-0.097961426,0.2345581
1601392991024,865,-0.8588867,-0.097961426,0.2345581
1601392991025,866,-0.74902344,-0.19439697,0.14691162
1601392991028,867,-0.74902344,-0.19439697,0.14691162
1601392991033,868,-0.87402344,-0.23370361,0.10443115
1601392991034,869,-0.97436523,-0.04498291,0.36712646
1601392991035,870,-0.97436523,-0.04498291,0.36712646
1601392991038,871,-0.8588867,-0.097961426,0.2345581
1601392991039,872,-0.8803711,-0.5112915,0.45306396
1601392991039,873,-0.8342285,-0.089904785,0.4069214
1601392991040,874,-0.74902344,-0.19439697,0.14691162
1601392991040,875,-0.8342285,-0.089904785,0.4069214
1601392991043,876,-0.97436523,-0.04498291,0.36712646
1601392991048,877,-0.9477539,-0.55059814,0.34295654
1601392991052,878,-0.8588867,-0.097961426,0.2345581
1601392991052,879,-0.8588867,-0.097961426,0.2345581
1601392991054,880,-0.6467285,-0.25689697,0.3727417
1601392991054,881,-0.6467285,-0.25689697,0.3727417
1601392991055,882,-0.8342285,-0.089904785,0.4069214
1601392991056,883,-0.84472656,-0.5684204,0.15496826
1601392991060,884,-0.97436523,-0.04498291,0.36712646
1601392991062,885,-0.8803711,-0.5112915,0.45306396
1601392991068,886,-0.9477539,-0.55059814,0.34295654
1601392991068,887,-0.8930664,-0.49908447,0.05218506
1601392991068,888,-0.97436523,-0.04498291,0.36712646
1601392991069,889,-0.8342285,-0.089904785,0.4069214
1601392991069,890,-0.8803711,-0.5112915,0.45306396
1601392991070,891,-0.6467285,-0.25689697,0.3727417
1601392991070,892,-0.6467285,-0.25689697,0.3727417
1601392991083,893,-1.1936035,-0.33648682,0.047302246
1601392991084,894,-0.8342285,-0.089904785,0.4069214
1601392991084,895,-0.9477539,-0.55059814,0.34295654
1601392991085,896,-0.84472656,-0.5684204,0.15496826
1601392991086,897,-0.8803711,-0.5112915,0.45306396
1601392991087,898,-0.8803711,-0.5112915,0.45306396
1601392991088,899,-0.9477539,-0.55059814,0.34295654
1601392991088,900,-1.578125,-0.19537354,-0.08477783
1601392991090,901,-0.6467285,-0.25689697,0.3727417
1601392991090,902,-0.84472656,-0.5684204,0.15496826
1601392991091,903,-0.8930664,-0.49908447,0.05218506
1601392991091,904,-0.9477539,-0.55059814,0.34295654
1601392991091,905,-1.1936035,-0.33648682,0.047302246
1601392991092,906,-1.6896973,0.24456787,-0.3977661
1601392991093,907,-0.8930664,-0.49908447,0.05218506
1601392991094,908,-1.1850586,-0.13604736,0.42547607
1601392991096,909,-0.8803711,-0.5112915,0.45306396
1601392991099,910,-0.9477539,-0.55059814,0.34295654
1601392991108,911,-0.84472656,-0.5684204,0.15496826
1601392991109,912,-0.7763672,-0.69781494,0.40203857
1601392991109,913,-0.84472656,-0.5684204,0.15496826
1601392991110,914,-1.1936035,-0.33648682,0.047302246
1601392991111,915,-1.578125,-0.19537354,-0.08477783
1601392991112,916,-0.84472656,-0.5684204,0.15496826
1601392991112,917,-1.578125,-0.19537354,-0.08477783
1601392991113,918,-0.8930664,-0.49908447,0.05218506
1601392991114,919,-1.6896973,0.24456787,-0.3977661
1601392991115,920,-0.8996582,-0.6519165,0.3078003
1601392991115,921,-1.6896973,0.24456787,-0.3977661
1601392991125,922,-0.8930664,-0.49908447,0.05218506
1601392991126,923,-0.8930664,-0.49908447,0.05218506
1601392991127,924,-1.1936035,-0.33648682,0.047302246
1601392991128,925,-1.1850586,-0.13604736,0.42547607
1601392991128,926,-1.1628418,-0.43658447,0.230896
1601392991129,927,-1.1850586,-0.13604736,0.42547607
1601392991130,928,-1.331543,-0.22442627,0.008483887
1601392991131,929,-1.1936035,-0.33648682,0.047302246
1601392991132,930,-1.578125,-0.19537354,-0.08477783
1601392991133,931,-0.7763672,-0.69781494,0.40203857
1601392991135,932,-0.7763672,-0.69781494,0.40203857
1601392991140,933,-1.1936035,-0.33648682,0.047302246
1601392991140,934,-1.578125,-0.19537354,-0.08477783
1601392991141,935,-1.6896973,0.24456787,-0.3977661
1601392991142,936,-0.8996582,-0.6519165,0.3078003
1601392991143,937,-0.8996582,-0.6519165,0.3078003
1601392991149,938,-1.6896973,0.24456787,-0.3977661
1601392991149,939,-1.1628418,-0.43658447,0.230896
1601392991149,940,-1.1850586,-0.13604736,0.42547607
1601392991150,941,-1.331543,-0.22442627,0.008483887
1601392991151,942,-1.578125,-0.19537354,-0.08477783
1601392991153,943,-1.1850586,-0.13604736,0.42547607
1601392991158,944,-0.7763672,-0.69781494,0.40203857
1601392991159,945,-1.6896973,0.24456787,-0.3977661
1601392991160,946,-1.1628418,-0.43658447,0.230896
1601392991161,947,-0.7763672,-0.69781494,0.40203857
1601392991166,948,-0.8996582,-0.6519165,0.3078003
1601392991167,949,-1.1850586,-0.13604736,0.42547607
1601392991168,950,-1.331543,-0.22442627,0.008483887
1601392991169,951,-0.8996582,-0.6519165,0.3078003
1601392991170,952,-1.1628418,-0.43658447,0.230896
1601392991171,953,-0.7763672,-0.69781494,0.40203857
1601392991173,954,-1.1628418,-0.43658447,0.230896
1601392991178,955,-0.8996582,-0.6519165,0.3078003
1601392991179,956,-1.331543,-0.22442627,0.008483887
1601392991179,957,-1.331543,-0.22442627,0.008483887
1601392991183,958,-1.1628418,-0.43658447,0.230896
1601392991184,959,-1.331543,-0.22442627,0.008483887
1601392993349,960,-1.067627,-0.093811035,0.34320068
1601392993351,961,-1.067627,-0.093811035,0.34320068
1601392993353,962,-1.067627,-0.093811035,0.34320068
1601392993355,963,-0.7409668,-0.17095947,0.5060425
1601392993357,964,-0.68359375,-0.38824463,0.480896
1601392993359,965,-0.5432129,-0.44610596,0.30413818
1601392993361,966,-0.8256836,-0.29742432,0.31488037
1601392993363,967,-0.7409668,-0.17095947,0.5060425
1601392993366,968,-0.68359375,-0.38824463,0.480896
1601392993368,969,-0.5432129,-0.44610596,0.30413818
1601392993369,970,-0.8256836,-0.29742432,0.31488037
1601392993371,971,-0.7409668,-0.17095947,0.5060425
1601392993379,972,-0.68359375,-0.38824463,0.480896
1601392993380,973,-1.067627,-0.093811035,0.34320068
1601392993380,974,-1.067627,-0.093811035,0.34320068
1601392993381,975,-0.5432129,-0.44610596,0.30413818
1601392993382,976,-1.067627,-0.093811035,0.34320068
1601392993383,977,-0.7409668,-0.17095947,0.5060425
1601392993383,978,-0.98950195,-0.13189697,0.26312256
1601392993386,979,-0.8256836,-0.29742432,0.31488037
1601392993388,980,-0.7409668,-0.17095947,0.5060425
1601392993389,981,-0.68359375,-0.38824463,0.480896
1601392993395,982,-0.7409668,-0.17095947,0.5060425
1601392993395,983,-0.98950195,-0.13189697,0.26312256
1601392993395,984,-0.98950195,-0.13189697,0.26312256
1601392993396,985,-0.68359375,-0.38824463,0.480896
1601392993397,986,-1.1481934,-0.09503174,0.24383545
1601392993399,987,-0.5432129,-0.44610596,0.30413818
1601392993411,988,-0.68359375,-0.38824463,0.480896
1601392993412,989,-0.5432129,-0.44610596,0.30413818
1601392993413,990,-1.1481934,-0.09503174,0.24383545
1601392993414,991,-0.5432129,-0.44610596,0.30413818
1601392993415,992,-1.4494629,0.016784668,0.6005249
1601392993416,993,-0.8256836,-0.29742432,0.31488037
1601392993417,994,-0.8256836,-0.29742432,0.31488037
1601392993417,995,-1.1079102,0.28607178,0.66741943
1601392993418,996,-0.8256836,-0.29742432,0.31488037
1601392993419,997,-0.7883301,-0.04449463,0.4784546
1601392993420,998,-0.98950195,-0.13189697,0.26312256
1601392993421,999,-1.1481934,-0.09503174,0.24383545
1601392993424,1000,-0.98950195,-0.13189697,0.26312256
1601392993425,1001,-1.4494629,0.016784668,0.6005249
1601392993425,1002,-0.98950195,-0.13189697,0.26312256
1601392993426,1003,-0.80371094,-0.12652588,0.3817749
1601392993428,1004,-0.73657227,-0.10626221,0.5363159
1601392993430,1005,-0.8598633,0.23358154,0.4713745
1601392993447,1006,-0.9172363,0.16204834,0.64398193
1601392993448,1007,-1.4494629,0.016784668,0.6005249
1601392993449,1008,-1.1481934,-0.09503174,0.24383545
1601392993451,1009,-1.1079102,0.28607178,0.66741943
1601392993451,1010,-1.1481934,-0.09503174,0.24383545
1601392993453,1011,-1.1481934,-0.09503174,0.24383545
1601392993453,1012,-1.4494629,0.016784668,0.6005249
1601392993453,1013,-1.1079102,0.28607178,0.66741943
1601392993454,1014,-0.87353516,-0.12237549,0.33270264
1601392993454,1015,-0.7883301,-0.04449463,0.4784546
1601392993456,1016,-1.4494629,0.016784668,0.6005249
1601392993456,1017,-1.4494629,0.016784668,0.6005249
1601392993456,1018,-0.7883301,-0.04449463,0.4784546
1601392993457,1019,-1.1079102,0.28607178,0.66741943
1601392993459,1020,-1.1079102,0.28607178,0.66741943
1601392993459,1021,-0.87475586,0.22576904,0.25042725
1601392993460,1022,-0.80371094,-0.12652588,0.3817749
1601392993461,1023,-0.7883301,-0.04449463,0.4784546
1601392993471,1024,-1.1079102,0.28607178,0.66741943
1601392993472,1025,-0.7883301,-0.04449463,0.4784546
1601392993472,1026,-0.88500977,0.20526123,0.34661865
1601392993473,1027,-0.73657227,-0.10626221,0.5363159
1601392993473,1028,-0.80371094,-0.12652588,0.3817749
1601392993474,1029,-0.80371094,-0.12652588,0.3817749
1601392993475,1030,-0.8598633,0.23358154,0.4713745
1601392993475,1031,-0.7883301,-0.04449463,0.4784546
1601392993475,1032,-0.80371094,-0.12652588,0.3817749
1601392993476,1033,-0.9140625,0.26385498,0.28460693
1601392993478,1034,-0.73657227,-0.10626221,0.5363159
1601392993495,1035,-0.73657227,-0.10626221,0.5363159
1601392993496,1036,-0.73657227,-0.10626221,0.5363159
1601392993497,1037,-0.9875488,0.18670654,0.40570068
1601392993498,1038,-0.80371094,-0.12652588,0.3817749
1601392993499,1039,-0.9172363,0.16204834,0.64398193
1601392993500,1040,-0.8598633,0.23358154,0.4713745
1601392993502,1041,-0.8598633,0.23358154,0.4713745
1601392993502,1042,-0.9172363,0.16204834,0.64398193
1601392993502,1043,-0.9172363,0.16204834,0.64398193
1601392993502,1044,-0.96606445,0.10858154,0.56585693
1601392993503,1045,-0.87353516,-0.12237549,0.33270264
1601392993504,1046,-0.87353516,-0.12237549,0.33270264
1601392993504,1047,-0.73657227,-0.10626221,0.5363159
1601392993505,1048,-0.87475586,0.22576904,0.25042725
1601392993506,1049,-0.87353516,-0.12237549,0.33270264
1601392993507,1050,-0.88500977,0.20526123,0.34661865
1601392993508,1051,-1.0812988,0.6593628,0.10418701
1601392993509,1052,-0.87475586,0.22576904,0.25042725
1601392993509,1053,-0.9140625,0.26385498,0.28460693
1601392993509,1054,-0.8598633,0.23358154,0.4713745
1601392993510,1055,-0.87475586,0.22576904,0.25042725
1601392993519,1056,-0.8598633,0.23358154,0.4713745
1601392993519,1057,-0.88500977,0.20526123,0.34661865
1601392993520,1058,-1.2172852,0.27020264,0.36663818
1601392993520,1059,-0.9875488,0.18670654,0.40570068
1601392993521,1060,-0.9172363,0.16204834,0.64398193
1601392993522,1061,-0.96606445,0.10858154,0.56585693
1601392993522,1062,-0.9140625,0.26385498,0.28460693
1601392993524,1063,-0.88623047,-0.07086182,0.5692749
1601392993526,1064,-0.9172363,0.16204834,0.64398193
1601392993532,1065,-0.87353516,-0.12237549,0.33270264
1601392993533,1066,-0.9875488,0.18670654,0.40570068
1601392993533,1067,-0.88500977,0.20526123,0.34661865
1601392993534,1068,-0.45629883,-0.031799316,0.55218506
1601392993535,1069,-0.87353516,-0.12237549,0.33270264
1601392993535,1070,-1.0812988,0.6593628,0.10418701
1601392993544,1071,-0.87475586,0.22576904,0.25042725
1601392993544,1072,-0.96606445,0.10858154,0.56585693
1601392993544,1073,-0.9140625,0.26385498,0.28460693
1601392993545,1074,-1.0812988,0.6593628,0.10418701
1601392993546,1075,-0.87475586,0.22576904,0.25042725
1601392993547,1076,-1.2172852,0.27020264,0.36663818
1601392993547,1077,-0.88500977,0.20526123,0.34661865
1601392993549,1078,-0.5004883,0.08465576,0.34100342
1601392993555,1079,-1.2172852,0.27020264,0.36663818
1601392993555,1080,-0.88500977,0.20526123,0.34661865
1601392993555,1081,-0.9140625,0.26385498,0.28460693
1601392993555,1082,-0.88623047,-0.07086182,0.5692749
1601392993556,1083,-0.9875488,0.18670654,0.40570068
1601392993556,1084,-0.97998047,0.526062,-0.40118408
1601392993560,1085,-0.88623047,-0.07086182,0.5692749
1601392993561,1086,-0.9875488,0.18670654,0.40570068
1601392993561,1087,-0.9140625,0.26385498,0.28460693
1601392993561,1088,-0.45629883,-0.031799316,0.55218506
1601392993561,1089,-0.96606445,0.10858154,0.56585693
1601392993562,1090,-1.684082,0.49261475,0.31195068
1601392993563,1091,-0.45629883,-0.031799316,0.55218506
1601392993565,1092,-0.96606445,0.10858154,0.56585693
1601392993567,1093,-1.0812988,0.6593628,0.10418701
1601392993568,1094,-0.9875488,0.18670654,0.40570068
1601392993578,1095,-0.5004883,0.08465576,0.34100342
1601392993579,1096,-1.0812988,0.6593628,0.10418701
1601392993579,1097,-1.223877,0.11541748,0.58270264
1601392993579,1098,-1.2172852,0.27020264,0.36663818
1601392993580,1099,-0.96606445,0.10858154,0.56585693
1601392993582,1100,-0.5004883,0.08465576,0.34100342
1601392993582,1101,-1.0812988,0.6593628,0.10418701
1601392993583,1102,-0.97998047,0.526062,-0.40118408
1601392993583,1103,-1.144043,-0.089416504,0.5504761
1601392993583,1104,-1.2172852,0.27020264,0.36663818
1601392993583,1105,-0.88623047,-0.07086182,0.5692749
1601392993583,1106,-0.97998047,0.526062,-0.40118408
1601392993584,1107,-0.8869629,-0.4985962,0.30267334
1601392993584,1108,-1.2172852,0.27020264,0.36663818
1601392993585,1109,-0.88623047,-0.07086182,0.5692749
1601392993593,1110,-0.6948242,-0.25567627,0.49017334
1601392993593,1111,-0.88623047,-0.07086182,0.5692749
1601392993594,1112,-1.684082,0.49261475,0.31195068
1601392993594,1113,-1.684082,0.49261475,0.31195068
1601392993594,1114,-0.45629883,-0.031799316,0.55218506
1601392993595,1115,-0.45629883,-0.031799316,0.55218506
1601392993595,1116,-0.83154297,0.0770874,-0.23370361
1601392993595,1117,-0.5004883,0.08465576,0.34100342
1601392993596,1118,-1.223877,0.11541748,0.58270264
1601392993602,1119,-1.223877,0.11541748,0.58270264
1601392993602,1120,-0.5004883,0.08465576,0.34100342
1601392993603,1121,-0.45629883,-0.031799316,0.55218506
1601392993603,1122,-0.97998047,0.526062,-0.40118408
1601392993604,1123,-1.144043,-0.089416504,0.5504761
1601392993607,1124,-0.97998047,0.526062,-0.40118408
1601392993607,1125,-0.5004883,0.08465576,0.34100342
1601392993608,1126,-1.144043,-0.089416504,0.5504761
1601392993611,1127,-1.684082,0.49261475,0.31195068
1601392993611,1128,-0.8869629,-0.4985962,0.30267334
1601392993612,1129,-0.8869629,-0.4985962,0.30267334
1601392993616,1130,-1.223877,0.11541748,0.58270264
1601392993617,1131,-0.97998047,0.526062,-0.40118408
1601392993617,1132,-1.144043,-0.089416504,0.5504761
1601392993618,1133,-1.684082,0.49261475,0.31195068
1601392993619,1134,-0.6948242,-0.25567627,0.49017334
1601392993620,1135,-0.6948242,-0.25567627,0.49017334
1601392993622,1136,-0.8869629,-0.4985962,0.30267334
1601392993624,1137,-0.83154297,0.0770874,-0.23370361
1601392993624,1138,-1.684082,0.49261475,0.31195068
1601392993626,1139,-1.223877,0.11541748,0.58270264
1601392993627,1140,-0.83154297,0.0770874,-0.23370361
1601392993632,1141,-0.6948242,-0.25567627,0.49017334
1601392993633,1142,-1.144043,-0.089416504,0.5504761
1601392993634,1143,-1.223877,0.11541748,0.58270264
1601392993640,1144,-0.83154297,0.0770874,-0.23370361
1601392993641,1145,-1.144043,-0.089416504,0.5504761
1601392993641,1146,-0.8869629,-0.4985962,0.30267334
1601392993641,1147,-0.8869629,-0.4985962,0.30267334
1601392993644,1148,-0.6948242,-0.25567627,0.49017334
1601392993646,1149,-0.6948242,-0.25567627,0.49017334
1601392993647,1150,-0.83154297,0.0770874,-0.23370361
1601392993649,1151,-0.83154297,0.0770874,-0.23370361
1601392995948,1152,-1.3540039,0.5897827,-0.062316895
1601392995963,1153,-1.3540039,0.5897827,-0.062316895
1601392995964,1154,-1.3540039,0.5897827,-0.062316895
1601392995965,1155,-1.2268066,-0.00592041,0.90496826
1601392995965,1156,-1.2268066,-0.00592041,0.90496826
1601392995966,1157,-1.3540039,0.5897827,-0.062316895
1601392995967,1158,-1.3540039,0.5897827,-0.062316895
1601392995967,1159,-1.1081543,0.121032715,0.39471436
1601392995968,1160,-1.3540039,0.5897827,-0.062316895
1601392995969,1161,-1.2268066,-0.00592041,0.90496826
1601392995969,1162,-1.1081543,0.121032715,0.39471436
1601392995970,1163,-1.2268066,-0.00592041,0.90496826
1601392995971,1164,-1.0627441,0.15716553,0.11810303
1601392995971,1165,-1.2268066,-0.00592041,0.90496826
1601392995972,1166,-1.2268066,-0.00592041,0.90496826
1601392995973,1167,-1.1081543,0.121032715,0.39471436
1601392995986,1168,-1.0627441,0.15716553,0.11810303
1601392995987,1169,-1.1081543,0.121032715,0.39471436
1601392995988,1170,-1.0187988,0.2597046,-0.062316895
1601392995989,1171,-1.1081543,0.121032715,0.39471436
1601392995989,1172,-1.0627441,0.15716553,0.11810303
1601392995990,1173,-1.0627441,0.15716553,0.11810303
1601392995990,1174,-1.0146484,0.036315918,-0.09918213
1601392995991,1175,-1.0187988,0.2597046,-0.062316895
1601392995991,1176,-1.0627441,0.15716553,0.11810303
1601392995992,1177,-1.1081543,0.121032715,0.39471436
1601392995993,1178,-1.0187988,0.2597046,-0.062316895
1601392995993,1179,-1.0627441,0.15716553,0.11810303
1601392995994,1180,-1.0187988,0.2597046,-0.062316895
1601392995995,1181,-0.9855957,0.1786499,0.07220459
1601392995995,1182,-1.0146484,0.036315918,-0.09918213
1601392995996,1183,-1.0146484,0.036315918,-0.09918213
1601392995998,1184,-1.0146484,0.036315918,-0.09918213
1601392996000,1185,-1.0187988,0.2597046,-0.062316895
1601392996001,1186,-0.8742676,0.14984131,0.14300537
1601392996006,1187,-1.0187988,0.2597046,-0.062316895
1601392996007,1188,-0.9855957,0.1786499,0.07220459
1601392996007,1189,-0.9855957,0.1786499,0.07220459
1601392996008,1190,-1.0146484,0.036315918,-0.09918213
1601392996009,1191,-0.9855957,0.1786499,0.07220459
1601392996009,1192,-0.8305664,0.19671631,0.18914795
1601392996013,1193,-1.0146484,0.036315918,-0.09918213
1601392996013,1194,-0.8742676,0.14984131,0.14300537
1601392996014,1195,-0.8742676,0.14984131,0.14300537
1601392996016,1196,-0.8742676,0.14984131,0.14300537
1601392996018,1197,-0.9855957,0.1786499,0.07220459
1601392996019,1198,-0.8305664,0.19671631,0.18914795
1601392996021,1199,-0.85302734,0.30413818,0.20111084
1601392996023,1200,-0.9855957,0.1786499,0.07220459
1601392996026,1201,-0.8305664,0.19671631,0.18914795
1601392996028,1202,-0.85302734,0.30413818,0.20111084
1601392996028,1203,-0.8305664,0.19671631,0.18914795
1601392996034,1204,-0.8742676,0.14984131,0.14300537
1601392996034,1205,-0.8742676,0.14984131,0.14300537
1601392996034,1206,-0.85302734,0.30413818,0.20111084
1601392996035,1207,-0.9238281,0.3571167,0.2243042
1601392996035,1208,-0.9238281,0.3571167,0.2243042
1601392996035,1209,-0.85302734,0.30413818,0.20111084
1601392996036,1210,-1.0510254,0.3373413,0.21282959
1601392996041,1211,-0.8305664,0.19671631,0.18914795
1601392996042,1212,-0.9238281,0.3571167,0.2243042
1601392996042,1213,-0.8305664,0.19671631,0.18914795
1601392996042,1214,-1.0510254,0.3373413,0.21282959
1601392996043,1215,-0.85302734,0.30413818,0.20111084
1601392996043,1216,-0.9238281,0.3571167,0.2243042
1601392996049,1217,-0.85302734,0.30413818,0.20111084
1601392996049,1218,-1.0510254,0.3373413,0.21282959
1601392996049,1219,-1.0148926,0.3131714,0.09442139
1601392996050,1220,-1.0148926,0.3131714,0.09442139
1601392996050,1221,-0.9238281,0.3571167,0.2243042
1601392996051,1222,-1.0510254,0.3373413,0.21282959
1601392996052,1223,-0.9238281,0.3571167,0.2243042
1601392996068,1224,-0.8498535,0.12860107,-0.023742676
1601392996068,1225,-0.8498535,0.12860107,-0.023742676
1601392996069,1226,-1.0510254,0.3373413,0.21282959
1601392996069,1227,-1.0148926,0.3131714,0.09442139
1601392996069,1228,-1.0148926,0.3131714,0.09442139
1601392996070,1229,-1.0510254,0.3373413,0.21282959
1601392996071,1230,-1.0258789,-0.030334473,-0.038146973
1601392996071,1231,-1.0148926,0.3131714,0.09442139
1601392996072,1232,-1.0258789,-0.030334473,-0.038146973
1601392996073,1233,-1.0148926,0.3131714,0.09442139
1601392996076,1234,-0.8498535,0.12860107,-0.023742676
1601392996077,1235,-1.232666,-0.0037231445,-0.0015258789
1601392996077,1236,-0.8498535,0.12860107,-0.023742676
1601392996077,1237,-1.1867676,0.08807373,-0.030578613
1601392996077,1238,-0.8498535,0.12860107,-0.023742676
1601392996078,1239,-1.0119629,0.15130615,0.07757568
1601392996078,1240,-1.0258789,-0.030334473,-0.038146973
1601392996078,1241,-1.232666,-0.0037231445,-0.0015258789
1601392996078,1242,-1.0258789,-0.030334473,-0.038146973
1601392996079,1243,-1.0258789,-0.030334473,-0.038146973
1601392996090,1244,-0.9995117,0.2164917,0.15545654
1601392996091,1245,-1.232666,-0.0037231445,-0.0015258789
1601392996091,1246,-1.232666,-0.0037231445,-0.0015258789
1601392996091,1247,-1.1867676,0.08807373,-0.030578613
1601392996092,1248,-0.8498535,0.12860107,-0.023742676
1601392996092,1249,-1.232666,-0.0037231445,-0.0015258789
1601392996092,1250,-1.1867676,0.08807373,-0.030578613
1601392996092,1251,-1.1711426,0.22332764,0.16522217
1601392996093,1252,-1.1867676,0.08807373,-0.030578613
1601392996093,1253,-1.1867676,0.08807373,-0.030578613
1601392996095,1254,-1.0119629,0.15130615,0.07757568
1601392996095,1255,-1.0258789,-0.030334473,-0.038146973
1601392996101,1256,-1.0119629,0.15130615,0.07757568
1601392996102,1257,-1.2719727,0.35247803,0.23162842
1601392996102,1258,-1.0119629,0.15130615,0.07757568
1601392996103,1259,-0.9995117,0.2164917,0.15545654
1601392996104,1260,-0.9995117,0.2164917,0.15545654
1601392996104,1261,-1.1711426,0.22332764,0.16522217
1601392996110,1262,-0.9995117,0.2164917,0.15545654
1601392996110,1263,-1.1516113,0.120788574,-0.06304932
1601392996111,1264,-1.0119629,0.15130615,0.07757568
1601392996112,1265,-1.1711426,0.22332764,0.16522217
1601392996112,1266,-1.1711426,0.22332764,0.16522217
1601392996113,1267,-1.2719727,0.35247803,0.23162842
1601392996114,1268,-1.232666,-0.0037231445,-0.0015258789
1601392996120,1269,-1.2719727,0.35247803,0.23162842
1601392996120,1270,-0.9995117,0.2164917,0.15545654
1601392996122,1271,-1.2624512,0.15179443,0.0036010742
1601392996122,1272,-1.2719727,0.35247803,0.23162842
1601392996123,1273,-1.1867676,0.08807373,-0.030578613
1601392996123,1274,-1.1516113,0.120788574,-0.06304932
1601392996124,1275,-1.1516113,0.120788574,-0.06304932
1601392996127,1276,-1.2922363,0.07684326,0.24871826
1601392996134,1277,-1.0119629,0.15130615,0.07757568
1601392996135,1278,-1.2624512,0.15179443,0.0036010742
1601392996135,1279,-1.2624512,0.15179443,0.0036010742
1601392996136,1280,-1.1711426,0.22332764,0.16522217
1601392996137,1281,-1.1516113,0.120788574,-0.06304932
1601392996138,1282,-1.2922363,0.07684326,0.24871826
1601392996144,1283,-1.2922363,0.07684326,0.24871826
1601392996145,1284,-0.9995117,0.2164917,0.15545654
1601392996146,1285,-1.1608887,0.042175293,0.4940796
1601392996146,1286,-1.1608887,0.042175293,0.4940796
1601392996147,1287,-0.9145508,0.011169434,0.7472534
1601392996148,1288,-1.2719727,0.35247803,0.23162842
1601392996158,1289,-1.2624512,0.15179443,0.0036010742
1601392996159,1290,-1.1711426,0.22332764,0.16522217
1601392996160,1291,-1.1608887,0.042175293,0.4940796
1601392996161,1292,-0.9145508,0.011169434,0.7472534
1601392996162,1293,-0.638916,0.1408081,0.9057007
1601392996162,1294,-1.1516113,0.120788574,-0.06304932
1601392996163,1295,-1.2624512,0.15179443,0.0036010742
1601392996164,1296,-1.2922363,0.07684326,0.24871826
1601392996164,1297,-1.2719727,0.35247803,0.23162842
1601392996171,1298,-0.9145508,0.011169434,0.7472534
1601392996172,1299,-0.35083008,0.031188965,0.91522217
1601392996172,1300,-1.2922363,0.07684326,0.24871826
1601392996173,1301,-0.638916,0.1408081,0.9057007
1601392996174,1302,-1.1608887,0.042175293,0.4940796
1601392996175,1303,-1.1516113,0.120788574,-0.06304932
1601392996177,1304,-0.638916,0.1408081,0.9057007
1601392996182,1305,-1.1608887,0.042175293,0.4940796
1601392996183,1306,-0.35083008,0.031188965,0.91522217
1601392996184,1307,-0.35083008,0.031188965,0.91522217
1601392996184,1308,-1.2624512,0.15179443,0.0036010742
1601392996185,1309,-0.083740234,-0.10601807,0.74261475
1601392996187,1310,-0.9145508,0.011169434,0.7472534
1601392996190,1311,-0.083740234,-0.10601807,0.74261475
1601392996195,1312,0.17407227,0.07977295,0.6586304
1601392996196,1313,-1.2922363,0.07684326,0.24871826
1601392996197,1314,-0.638916,0.1408081,0.9057007
1601392996198,1315,-0.9145508,0.011169434,0.7472534
1601392996199,1316,-0.083740234,-0.10601807,0.74261475
1601392996199,1317,0.17407227,0.07977295,0.6586304
1601392996201,1318,0.3474121,0.032165527,0.6400757
1601392996204,1319,0.41992188,-0.0037231445,0.39349365
1601392996206,1320,-0.638916,0.1408081,0.9057007
1601392996223,1321,-0.35083008,0.031188965,0.91522217
1601392996223,1322,0.3474121,0.032165527,0.6400757
1601392996223,1323,0.17407227,0.07977295,0.6586304
1601392996224,1324,-1.1608887,0.042175293,0.4940796
1601392996224,1325,-0.35083008,0.031188965,0.91522217
1601392996224,1326,-0.083740234,-0.10601807,0.74261475
1601392996224,1327,-0.9145508,0.011169434,0.7472534
1601392996224,1328,0.41992188,-0.0037231445,0.39349365
1601392996225,1329,-0.083740234,-0.10601807,0.74261475
1601392996225,1330,0.17407227,0.07977295,0.6586304
1601392996226,1331,0.17407227,0.07977295,0.6586304
1601392996226,1332,0.3474121,0.032165527,0.6400757
1601392996227,1333,0.3474121,0.032165527,0.6400757
1601392996227,1334,-0.638916,0.1408081,0.9057007
1601392996227,1335,0.3474121,0.032165527,0.6400757
1601392996228,1336,0.41992188,-0.0037231445,0.39349365
1601392996231,1337,-0.35083008,0.031188965,0.91522217
1601392996241,1338,-0.083740234,-0.10601807,0.74261475
1601392996241,1339,0.41992188,-0.0037231445,0.39349365
1601392996242,1340,0.41992188,-0.0037231445,0.39349365
1601392996244,1341,0.17407227,0.07977295,0.6586304
1601392996245,1342,0.3474121,0.032165527,0.6400757
1601392996250,1343,0.41992188,-0.0037231445,0.39349365
1601392998551,1344,0.26171875,0.055114746,0.4743042
1601392998552,1345,0.26171875,0.055114746,0.4743042
1601392998552,1346,0.26171875,0.055114746,0.4743042
1601392998553,1347,0.26171875,0.055114746,0.4743042
1601392998555,1348,0.26171875,0.055114746,0.4743042
1601392998562,1349,0.26171875,0.055114746,0.4743042
1601392998563,1350,0.24707031,0.3295288,0.9406128
1601392998564,1351,0.24707031,0.3295288,0.9406128
1601392998564,1352,0.24707031,0.3295288,0.9406128
1601392998565,1353,0.24707031,0.3295288,0.9406128
1601392998566,1354,0.24707031,0.3295288,0.9406128
1601392998578,1355,0.24707031,0.3295288,0.9406128
1601392998579,1356,0.50683594,0.47235107,0.7494507
1601392998580,1357,0.50683594,0.47235107,0.7494507
1601392998580,1358,0.50683594,0.47235107,0.7494507
1601392998582,1359,0.50683594,0.47235107,0.7494507
1601392998582,1360,0.47314453,0.5453491,0.64227295
1601392998584,1361,0.4970703,0.49188232,0.6137085
1601392998584,1362,0.50683594,0.47235107,0.7494507
1601392998585,1363,0.47314453,0.5453491,0.64227295
1601392998587,1364,0.50683594,0.47235107,0.7494507
1601392998590,1365,0.47314453,0.5453491,0.64227295
1601392998608,1366,0.46899414,0.52630615,0.59832764
1601392998608,1367,0.47338867,0.5487671,0.57806396
1601392998608,1368,0.47314453,0.5453491,0.64227295
1601392998610,1369,0.47314453,0.5453491,0.64227295
1601392998611,1370,0.47314453,0.5453491,0.64227295
1601392998611,1371,0.4970703,0.49188232,0.6137085
1601392998613,1372,0.49780273,0.55462646,0.5824585
1601392998613,1373,0.46899414,0.52630615,0.59832764
1601392998616,1374,0.48608398,0.5223999,0.58026123
1601392998616,1375,0.4970703,0.49188232,0.6137085
1601392998616,1376,0.47338867,0.5487671,0.57806396
1601392998616,1377,0.4970703,0.49188232,0.6137085
1601392998617,1378,0.4970703,0.49188232,0.6137085
1601392998619,1379,0.4970703,0.49188232,0.6137085
1601392998620,1380,0.46899414,0.52630615,0.59832764
1601392998629,1381,0.47338867,0.5487671,0.57806396
1601392998630,1382,0.46899414,0.52630615,0.59832764
1601392998631,1383,0.5046387,0.5270386,0.58026123
1601392998631,1384,0.46899414,0.52630615,0.59832764
1601392998632,1385,0.49780273,0.55462646,0.5824585
1601392998633,1386,0.46899414,0.52630615,0.59832764
1601392998634,1387,0.49780273,0.55462646,0.5824585
1601392998635,1388,0.5292969,0.49798584,0.5651245
1601392998637,1389,0.47338867,0.5487671,0.57806396
1601392998640,1390,0.47338867,0.5487671,0.57806396
1601392998650,1391,0.47338867,0.5487671,0.57806396
1601392998651,1392,0.57055664,0.51312256,0.5685425
1601392998651,1393,0.48608398,0.5223999,0.58026123
1601392998652,1394,0.49780273,0.55462646,0.5824585
1601392998652,1395,0.48608398,0.5223999,0.58026123
1601392998653,1396,0.49780273,0.55462646,0.5824585
1601392998653,1397,0.49780273,0.55462646,0.5824585
1601392998653,1398,0.48608398,0.5223999,0.58026123
1601392998654,1399,0.5046387,0.5270386,0.58026123
1601392998654,1400,0.48608398,0.5223999,0.58026123
1601392998659,1401,0.5046387,0.5270386,0.58026123
1601392998659,1402,0.5786133,0.5014038,0.59051514
1601392998665,1403,0.48608398,0.5223999,0.58026123
1601392998665,1404,0.5046387,0.5270386,0.58026123
1601392998665,1405,0.5292969,0.49798584,0.5651245
1601392998667,1406,0.5046387,0.5270386,0.58026123
1601392998667,1407,0.5292969,0.49798584,0.5651245
1601392998667,1408,0.5292969,0.49798584,0.5651245
1601392998681,1409,0.5292969,0.49798584,0.5651245
1601392998682,1410,0.56518555,0.4701538,0.60491943
1601392998683,1411,0.57055664,0.51312256,0.5685425
1601392998684,1412,0.5786133,0.5014038,0.59051514
1601392998685,1413,0.57055664,0.51312256,0.5685425
1601392998686,1414,0.5046387,0.5270386,0.58026123
1601392998686,1415,0.5786133,0.5014038,0.59051514
1601392998689,1416,0.57055664,0.51312256,0.5685425
1601392998689,1417,0.5493164,0.45159912,0.63153076
1601392998702,1418,0.5292969,0.49798584,0.5651245
1601392998704,1419,0.56518555,0.4701538,0.60491943
1601392998704,1420,0.57055664,0.51312256,0.5685425
1601392998705,1421,0.52001953,0.43572998,0.67059326
1601392998705,1422,0.5786133,0.5014038,0.59051514
1601392998706,1423,0.56518555,0.4701538,0.60491943
1601392998707,1424,0.5786133,0.5014038,0.59051514
1601392998711,1425,0.56518555,0.4701538,0.60491943
1601392998712,1426,0.5493164,0.45159912,0.63153076
1601392998712,1427,0.4465332,0.42425537,0.6647339
1601392998718,1428,0.57055664,0.51312256,0.5685425
1601392998719,1429,0.5493164,0.45159912,0.63153076
1601392998719,1430,0.56518555,0.4701538,0.60491943
1601392998720,1431,0.5493164,0.45159912,0.63153076
1601392998721,1432,0.52001953,0.43572998,0.67059326
1601392998721,1433,0.40014648,0.43499756,0.6786499
1601392998729,1434,0.5786133,0.5014038,0.59051514
1601392998730,1435,0.52001953,0.43572998,0.67059326
1601392998730,1436,0.5493164,0.45159912,0.63153076
1601392998730,1437,0.52001953,0.43572998,0.67059326
1601392998737,1438,0.36547852,0.42938232,0.6732788
1601392998737,1439,0.56518555,0.4701538,0.60491943
1601392998737,1440,0.4465332,0.42425537,0.6647339
1601392998738,1441,0.4465332,0.42425537,0.6647339
1601392998739,1442,0.52001953,0.43572998,0.67059326
1601392998739,1443,0.40014648,0.43499756,0.6786499
1601392998740,1444,0.4465332,0.42425537,0.6647339
1601392998749,1445,0.43017578,0.45672607,0.670105
1601392998749,1446,0.5493164,0.45159912,0.63153076
1601392998750,1447,0.48779297,0.37298584,0.72283936
1601392998751,1448,0.36547852,0.42938232,0.6732788
1601392998751,1449,0.48461914,0.50579834,0.68377686
1601392998751,1450,0.4465332,0.42425537,0.6647339
1601392998777,1451,0.52001953,0.43572998,0.67059326
1601392998778,1452,0.43017578,0.45672607,0.670105
1601392998779,1453,0.40014648,0.43499756,0.6786499
1601392998779,1454,0.43603516,0.4725952,0.7133179
1601392998780,1455,0.48779297,0.37298584,0.72283936
1601392998780,1456,0.40014648,0.43499756,0.6786499
1601392998782,1457,0.36547852,0.42938232,0.6732788
1601392998782,1458,0.5012207,0.39300537,0.6688843
1601392998782,1459,0.4465332,0.42425537,0.6647339
1601392998784,1460,0.46142578,0.46185303,0.68865967
1601392998784,1461,0.40014648,0.43499756,0.6786499
1601392998784,1462,0.48461914,0.50579834,0.68377686
1601392998786,1463,0.36547852,0.42938232,0.6732788
1601392998786,1464,0.43017578,0.45672607,0.670105
1601392998787,1465,0.43603516,0.4725952,0.7133179
1601392998790,1466,0.40014648,0.43499756,0.6786499
1601392998790,1467,0.35083008,0.42279053,0.70843506
1601392998791,1468,0.36547852,0.42938232,0.6732788
1601392998793,1469,0.43017578,0.45672607,0.670105
1601392998793,1470,0.43017578,0.45672607,0.670105
1601392998794,1471,0.48779297,0.37298584,0.72283936
1601392998795,1472,0.48779297,0.37298584,0.72283936
1601392998796,1473,0.36547852,0.42938232,0.6732788
1601392998796,1474,0.48779297,0.37298584,0.72283936
1601392998799,1475,0.48461914,0.50579834,0.68377686
1601392998811,1476,0.43603516,0.4725952,0.7133179
1601392998812,1477,0.48461914,0.50579834,0.68377686
1601392998812,1478,0.43017578,0.45672607,0.670105
1601392998812,1479,0.48461914,0.50579834,0.68377686
1601392998812,1480,0.5012207,0.39300537,0.6688843
1601392998812,1481,0.42822266,0.43206787,0.7345581
1601392998813,1482,0.43603516,0.4725952,0.7133179
1601392998813,1483,0.5012207,0.39300537,0.6688843
1601392998813,1484,0.5012207,0.39300537,0.6688843
1601392998813,1485,0.43603516,0.4725952,0.7133179
1601392998813,1486,0.48779297,0.37298584,0.72283936
1601392998814,1487,0.46142578,0.46185303,0.68865967
1601392998814,1488,0.48461914,0.50579834,0.68377686
1601392998814,1489,0.35083008,0.42279053,0.70843506
1601392998816,1490,0.46142578,0.46185303,0.68865967
1601392998817,1491,0.41308594,0.38812256,0.7211304
1601392998822,1492,0.46142578,0.46185303,0.68865967
1601392998822,1493,0.43603516,0.4725952,0.7133179
1601392998822,1494,0.35083008,0.42279053,0.70843506
1601392998823,1495,0.5012207,0.39300537,0.6688843
1601392998826,1496,0.42822266,0.43206787,0.7345581
1601392998826,1497,0.5012207,0.39300537,0.6688843
1601392998826,1498,0.42822266,0.43206787,0.7345581
1601392998843,1499,0.41308594,0.38812256,0.7211304
1601392998843,1500,0.46142578,0.46185303,0.68865967
1601392998843,1501,0.46777344,0.3912964,0.7040405
1601392998844,1502,0.46142578,0.46185303,0.68865967
1601392998845,1503,0.35083008,0.42279053,0.70843506
1601392998845,1504,0.35083008,0.42279053,0.70843506
1601392998845,1505,0.42822266,0.43206787,0.7345581
1601392998845,1506,0.19897461,0.40594482,0.89105225
1601392998845,1507,0.41308594,0.38812256,0.7211304
1601392998845,1508,0.41308594,0.38812256,0.7211304
1601392998846,1509,0.46777344,0.3912964,0.7040405
1601392998846,1510,0.46777344,0.3912964,0.7040405
1601392998847,1511,0.19897461,0.40594482,0.89105225
1601392998847,1512,0.19897461,0.40594482,0.89105225
1601392998847,1513,-0.11645508,0.3102417,0.69036865
1601392998847,1514,-0.11645508,0.3102417,0.69036865
1601392998852,1515,0.35083008,0.42279053,0.70843506
1601392998853,1516,-0.11645508,0.3102417,0.69036865
1601392998853,1517,0.42822266,0.43206787,0.7345581
1601392998853,1518,0.46777344,0.3912964,0.7040405
1601392998854,1519,0.5234375,-0.4517212,-0.047912598
1601392998854,1520,0.5234375,-0.4517212,-0.047912598
1601392998856,1521,0.19897461,0.40594482,0.89105225
1601392998861,1522,0.5234375,-0.4517212,-0.047912598
1601392998861,1523,0.42822266,0.43206787,0.7345581
1601392998862,1524,0.41308594,0.38812256,0.7211304
1601392998862,1525,-0.11645508,0.3102417,0.69036865
1601392998865,1526,0.41308594,0.38812256,0.7211304
1601392998865,1527,0.46777344,0.3912964,0.7040405
1601392998866,1528,0.5234375,-0.4517212,-0.047912598
1601392998869,1529,0.19897461,0.40594482,0.89105225
1601392998870,1530,0.46777344,0.3912964,0.7040405
1601392998872,1531,0.19897461,0.40594482,0.89105225
1601392998872,1532,-0.11645508,0.3102417,0.69036865
1601392998874,1533,-0.11645508,0.3102417,0.69036865
1601392998875,1534,0.5234375,-0.4517212,-0.047912598
1601392998880,1535,0.5234375,-0.4517212,-0.047912598
1601393001057,1536,1.1206055,-0.038879395,0.121276855
1601393001059,1537,1.1206055,-0.038879395,0.121276855
1601393001063,1538,1.1206055,-0.038879395,0.121276855
1601393001063,1539,1.2302246,0.28778076,0.21795654
1601393001064,1540,1.1206055,-0.038879395,0.121276855
1601393001064,1541,0.9042969,-0.0134887695,0.3324585
1601393001064,1542,1.2302246,0.28778076,0.21795654
1601393001083,1543,1.2302246,0.28778076,0.21795654
1601393001083,1544,1.1206055,-0.038879395,0.121276855
1601393001086,1545,1.1206055,-0.038879395,0.121276855
1601393001086,1546,1.2302246,0.28778076,0.21795654
1601393001087,1547,0.39013672,-0.2420044,0.47869873
1601393001087,1548,0.9042969,-0.0134887695,0.3324585
1601393001088,1549,1.2302246,0.28778076,0.21795654
1601393001089,1550,-0.14868164,-0.3040161,0.434021
1601393001090,1551,0.39013672,-0.2420044,0.47869873
1601393001090,1552,0.9042969,-0.0134887695,0.3324585
1601393001091,1553,-0.14868164,-0.3040161,0.434021
1601393001091,1554,0.39013672,-0.2420044,0.47869873
1601393001091,1555,0.9042969,-0.0134887695,0.3324585
1601393001093,1556,0.9042969,-0.0134887695,0.3324585
1601393001093,1557,0.39013672,-0.2420044,0.47869873
1601393001093,1558,-0.5029297,-0.48712158,0.6552124
1601393001093,1559,-0.5029297,-0.48712158,0.6552124
1601393001094,1560,1.2302246,0.28778076,0.21795654
1601393001094,1561,-0.14868164,-0.3040161,0.434021
1601393001097,1562,0.39013672,-0.2420044,0.47869873
1601393001098,1563,0.9042969,-0.0134887695,0.3324585
1601393001104,1564,0.39013672,-0.2420044,0.47869873
1601393001104,1565,-0.6032715,-0.62823486,0.60272217
1601393001105,1566,-0.14868164,-0.3040161,0.434021
1601393001106,1567,-0.14868164,-0.3040161,0.434021
1601393001107,1568,-0.5029297,-0.48712158,0.6552124
1601393001108,1569,-0.6032715,-0.62823486,0.60272217
1601393001108,1570,-0.14868164,-0.3040161,0.434021
1601393001118,1571,-0.5029297,-0.48712158,0.6552124
1601393001119,1572,-1.048584,-0.3406372,0.60076904
1601393001120,1573,-0.5029297,-0.48712158,0.6552124
1601393001120,1574,-0.6032715,-0.62823486,0.60272217
1601393001121,1575,-1.048584,-0.3406372,0.60076904
1601393001123,1576,-1.048584,-0.3406372,0.60076904
1601393001123,1577,-0.6032715,-0.62823486,0.60272217
1601393001124,1578,-0.6032715,-0.62823486,0.60272217
1601393001125,1579,-1.576416,-0.042541504,0.50994873
1601393001125,1580,-0.5029297,-0.48712158,0.6552124
1601393001126,1581,-1.576416,-0.042541504,0.50994873
1601393001128,1582,-1.048584,-0.3406372,0.60076904
1601393001130,1583,-1.6049805,0.14300537,0.73187256
1601393001140,1584,-0.9165039,0.11395264,0.48187256
1601393001140,1585,-1.6049805,0.14300537,0.73187256
1601393001142,1586,-1.048584,-0.3406372,0.60076904
1601393001142,1587,-0.9165039,0.11395264,0.48187256
1601393001142,1588,-0.6032715,-0.62823486,0.60272217
1601393001144,1589,-1.576416,-0.042541504,0.50994873
1601393001144,1590,-0.8034668,-0.520813,0.25506592
1601393001157,1591,-1.576416,-0.042541504,0.50994873
1601393001157,1592,-1.576416,-0.042541504,0.50994873
1601393001157,1593,-0.8034668,-0.520813,0.25506592
1601393001158,1594,-1.048584,-0.3406372,0.60076904
1601393001158,1595,-1.0158691,-0.36505127,0.1762085
1601393001159,1596,-1.576416,-0.042541504,0.50994873
1601393001159,1597,-1.0878906,0.02508545,0.50579834
1601393001159,1598,-1.6049805,0.14300537,0.73187256
1601393001159,1599,-1.6049805,0.14300537,0.73187256
1601393001160,1600,-1.6049805,0.14300537,0.73187256
1601393001160,1601,-0.9165039,0.11395264,0.48187256
1601393001160,1602,-0.9165039,0.11395264,0.48187256
1601393001162,1603,-1.0317383,-0.037902832,0.67840576
1601393001167,1604,-0.9165039,0.11395264,0.48187256
1601393001167,1605,-1.0158691,-0.36505127,0.1762085
1601393001167,1606,-0.8034668,-0.520813,0.25506592
1601393001168,1607,-0.8034668,-0.520813,0.25506592
1601393001168,1608,-1.0158691,-0.36505127,0.1762085
1601393001169,1609,-1.0878906,0.02508545,0.50579834
1601393001174,1610,-0.8034668,-0.520813,0.25506592
1601393001174,1611,-1.6049805,0.14300537,0.73187256
1601393001174,1612,-1.0158691,-0.36505127,0.1762085
1601393001175,1613,-1.0461426,0.1749878,0.46453857
1601393001175,1614,-1.0878906,0.02508545,0.50579834
1601393001175,1615,-1.0317383,-0.037902832,0.67840576
1601393001180,1616,-1.0158691,-0.36505127,0.1762085
1601393001180,1617,-0.9165039,0.11395264,0.48187256
1601393001181,1618,-1.0317383,-0.037902832,0.67840576
1601393001181,1619,-0.9880371,0.2098999,0.109558105
1601393001182,1620,-1.0461426,0.1749878,0.46453857
1601393001182,1621,-1.0878906,0.02508545,0.50579834
1601393001184,1622,-1.0878906,0.02508545,0.50579834
1601393001191,1623,-1.0461426,0.1749878,0.46453857
1601393001192,1624,-0.8901367,0.09588623,0.08905029
1601393001192,1625,-1.0317383,-0.037902832,0.67840576
1601393001193,1626,-0.9880371,0.2098999,0.109558105
1601393001194,1627,-0.8034668,-0.520813,0.25506592
1601393001195,1628,-1.0317383,-0.037902832,0.67840576
1601393001197,1629,-0.9880371,0.2098999,0.109558105
1601393001200,1630,-0.8901367,0.09588623,0.08905029
1601393001207,1631,-1.0158691,-0.36505127,0.1762085
1601393001207,1632,-1.0461426,0.1749878,0.46453857
1601393001207,1633,-0.6772461,0.35784912,0.07269287
1601393001208,1634,-1.0461426,0.1749878,0.46453857
1601393001209,1635,-0.8901367,0.09588623,0.08905029
1601393001209,1636,-0.6772461,0.35784912,0.07269287
1601393001212,1637,-1.0878906,0.02508545,0.50579834
1601393001214,1638,-1.0703125,0.69940186,0.45404053
1601393001222,1639,-1.1386719,0.27435303,-0.09136963
1601393001224,1640,-1.0703125,0.69940186,0.45404053
1601393001224,1641,-1.0317383,-0.037902832,0.67840576
1601393001225,1642,-0.9880371,0.2098999,0.109558105
1601393001225,1643,-0.6772461,0.35784912,0.07269287
1601393001226,1644,-0.9880371,0.2098999,0.109558105
1601393001240,1645,-1.1386719,0.27435303,-0.09136963
1601393001240,1646,-0.7824707,0.27313232,0.571228
1601393001240,1647,-1.0461426,0.1749878,0.46453857
1601393001240,1648,-0.8901367,0.09588623,0.08905029
1601393001241,1649,-0.7824707,0.27313232,0.571228
1601393001241,1650,-0.8901367,0.09588623,0.08905029
1601393001241,1651,-0.61450195,-0.12872314,0.49749756
1601393001242,1652,-0.6772461,0.35784912,0.07269287
1601393001242,1653,-0.9880371,0.2098999,0.109558105
1601393001242,1654,-0.61450195,-0.12872314,0.49749756
1601393001243,1655,-1.0703125,0.69940186,0.45404053
1601393001243,1656,-0.6772461,0.35784912,0.07269287
1601393001244,1657,-1.0834961,0.8588257,0.38250732
1601393001244,1658,-1.0703125,0.69940186,0.45404053
1601393001244,1659,-1.0703125,0.69940186,0.45404053
1601393001245,1660,-1.0834961,0.8588257,0.38250732
1601393001248,1661,-0.9650879,0.5350952,0.2399292
1601393001249,1662,-1.1386719,0.27435303,-0.09136963
1601393001264,1663,-0.7824707,0.27313232,0.571228
1601393001265,1664,-0.9650879,0.5350952,0.2399292
1601393001265,1665,-0.8901367,0.09588623,0.08905029
1601393001265,1666,-0.86499023,0.014587402,0.25213623
1601393001266,1667,-1.1386719,0.27435303,-0.09136963
1601393001266,1668,-1.1386719,0.27435303,-0.09136963
1601393001266,1669,-0.61450195,-0.12872314,0.49749756
1601393001267,1670,-0.7824707,0.27313232,0.571228
1601393001267,1671,-0.86499023,0.014587402,0.25213623
1601393001267,1672,-0.6772461,0.35784912,0.07269287
1601393001268,1673,-0.8305664,0.0770874,0.39520264
1601393001268,1674,-1.0703125,0.69940186,0.45404053
1601393001268,1675,-1.0393066,0.56707764,0.33587646
1601393001269,1676,-1.1386719,0.27435303,-0.09136963
1601393001269,1677,-0.61450195,-0.12872314,0.49749756
1601393001269,1678,-0.7824707,0.27313232,0.571228
1601393001269,1679,-1.0834961,0.8588257,0.38250732
1601393001273,1680,-0.7824707,0.27313232,0.571228
1601393001278,1681,-0.8305664,0.0770874,0.39520264
1601393001279,1682,-1.0834961,0.8588257,0.38250732
1601393001279,1683,-0.61450195,-0.12872314,0.49749756
1601393001280,1684,-0.9650879,0.5350952,0.2399292
1601393001280,1685,-1.0266113,0.5790405,0.09051514
1601393001282,1686,-0.61450195,-0.12872314,0.49749756
1601393001287,1687,-0.9650879,0.5350952,0.2399292
1601393001288,1688,-1.0393066,0.56707764,0.33587646
1601393001289,1689,-1.0834961,0.8588257,0.38250732
1601393001292,1690,-0.9995117,0.32537842,0.13128662
1601393001302,1691,-0.86499023,0.014587402,0.25213623
1601393001304,1692,-0.9650879,0.5350952,0.2399292
1601393001304,1693,-0.86499023,0.014587402,0.25213623
1601393001304,1694,-0.86499023,0.014587402,0.25213623
1601393001306,1695,-0.8305664,0.0770874,0.39520264
1601393001306,1696,-0.8305664,0.0770874,0.39520264
1601393001307,1697,-1.0266113,0.5790405,0.09051514
1601393001308,1698,-1.0393066,0.56707764,0.33587646
1601393001308,1699,-0.9995117,0.32537842,0.13128662
1601393001309,1700,-1.0029297,0.27508545,0.22479248
1601393001312,1701,-1.0266113,0.5790405,0.09051514
1601393001321,1702,-1.0834961,0.8588257,0.38250732
1601393001321,1703,-0.8305664,0.0770874,0.39520264
1601393001323,1704,-1.0075684,0.24578857,0.15081787
1601393001323,1705,-1.0393066,0.56707764,0.33587646
1601393001325,1706,-1.0266113,0.5790405,0.09051514
1601393001326,1707,-0.9650879,0.5350952,0.2399292
1601393001331,1708,-1.0393066,0.56707764,0.33587646
1601393001332,1709,-0.9995117,0.32537842,0.13128662
1601393001333,1710,-0.9995117,0.32537842,0.13128662
1601393001335,1711,-1.0029297,0.27508545,0.22479248
1601393001340,1712,-1.0266113,0.5790405,0.09051514
1601393001345,1713,-1.0029297,0.27508545,0.22479248
1601393001345,1714,-0.9995117,0.32537842,0.13128662
1601393001346,1715,-0.86499023,0.014587402,0.25213623
1601393001347,1716,-1.0029297,0.27508545,0.22479248
1601393001347,1717,-1.0075684,0.24578857,0.15081787
1601393001348,1718,-1.0075684,0.24578857,0.15081787
1601393001355,1719,-1.0029297,0.27508545,0.22479248
1601393001356,1720,-1.0075684,0.24578857,0.15081787
1601393001358,1721,-1.0075684,0.24578857,0.15081787
1601393001358,1722,-0.8305664,0.0770874,0.39520264
1601393001363,1723,-1.0393066,0.56707764,0.33587646
1601393001367,1724,-1.0266113,0.5790405,0.09051514
1601393001372,1725,-0.9995117,0.32537842,0.13128662
1601393001372,1726,-1.0029297,0.27508545,0.22479248
1601393001374,1727,-1.0075684,0.24578857,0.15081787
1601393003657,1728,-1.0217285,0.3319702,0.109802246
1601393003659,1729,-1.0217285,0.3319702,0.109802246
1601393003659,1730,-0.98950195,0.2538452,0.10076904
1601393003661,1731,-1.0217285,0.3319702,0.109802246
1601393003661,1732,-1.0217285,0.3319702,0.109802246
1601393003662,1733,-0.98950195,0.2538452,0.10076904
1601393003663,1734,-0.9716797,0.24163818,0.14398193
1601393003664,1735,-0.9716797,0.24163818,0.14398193
1601393003666,1736,-0.98950195,0.2538452,0.10076904
1601393003672,1737,-1.0217285,0.3319702,0.109802246
1601393003673,1738,-0.95751953,0.17816162,0.14251709
1601393003674,1739,-0.98950195,0.2538452,0.10076904
1601393003675,1740,-0.98950195,0.2538452,0.10076904
1601393003675,1741,-1.0217285,0.3319702,0.109802246
1601393003676,1742,-0.9716797,0.24163818,0.14398193
1601393003679,1743,-0.95751953,0.17816162,0.14251709
1601393003682,1744,-0.921875,0.10760498,0.14520264
1601393003684,1745,-0.98950195,0.2538452,0.10076904
1601393003689,1746,-0.9716797,0.24163818,0.14398193
1601393003690,1747,-0.9716797,0.24163818,0.14398193
1601393003691,1748,-0.9716797,0.24163818,0.14398193
1601393003692,1749,-0.9086914,0.07269287,0.089538574
1601393003693,1750,-0.95751953,0.17816162,0.14251709
1601393003695,1751,-0.921875,0.10760498,0.14520264
1601393003701,1752,-0.95751953,0.17816162,0.14251709
1601393003701,1753,-0.921875,0.10760498,0.14520264
1601393003702,1754,-1.0043945,0.042175293,0.11053467
1601393003703,1755,-0.95751953,0.17816162,0.14251709
1601393003704,1756,-0.921875,0.10760498,0.14520264
1601393003704,1757,-0.9086914,0.07269287,0.089538574
1601393003706,1758,-0.95751953,0.17816162,0.14251709
1601393003708,1759,-0.9086914,0.07269287,0.089538574
1601393003724,1760,-1.0043945,0.042175293,0.11053467
1601393003724,1761,-1.0043945,0.042175293,0.11053467
1601393003724,1762,-1.0739746,0.018981934,0.085876465
1601393003725,1763,-0.921875,0.10760498,0.14520264
1601393003725,1764,-0.9086914,0.07269287,0.089538574
1601393003726,1765,-0.921875,0.10760498,0.14520264
1601393003727,1766,-0.9086914,0.07269287,0.089538574
1601393003728,1767,-1.0043945,0.042175293,0.11053467
1601393003729,1768,-1.0739746,0.018981934,0.085876465
1601393003729,1769,-1.0490723,0.045837402,0.05609131
1601393003730,1770,-1.0739746,0.018981934,0.085876465
1601393003731,1771,-0.9489746,-0.008605957,0.051208496
1601393003731,1772,-0.9086914,0.07269287,0.089538574
1601393003732,1773,-1.0490723,0.045837402,0.05609131
1601393003735,1774,-1.0043945,0.042175293,0.11053467
1601393003736,1775,-1.0739746,0.018981934,0.085876465
1601393003745,1776,-1.0739746,0.018981934,0.085876465
1601393003745,1777,-0.9489746,-0.008605957,0.051208496
1601393003745,1778,-1.0490723,0.045837402,0.05609131
1601393003745,1779,-1.0043945,0.042175293,0.11053467
1601393003745,1780,-0.9538574,-0.08477783,0.0927124
1601393003747,1781,-1.1118164,-0.082092285,0.12005615
1601393003750,1782,-0.9538574,-0.08477783,0.0927124
1601393003757,1783,-1.1118164,-0.082092285,0.12005615
1601393003757,1784,-1.1391602,-0.09088135,0.10882568
1601393003757,1785,-1.0490723,0.045837402,0.05609131
1601393003758,1786,-0.9489746,-0.008605957,0.051208496
1601393003759,1787,-1.0490723,0.045837402,0.05609131
1601393003760,1788,-1.0739746,0.018981934,0.085876465
1601393003764,1789,-1.1391602,-0.09088135,0.10882568
1601393003764,1790,-1.1081543,-0.16802979,0.16546631
1601393003773,1791,-0.9538574,-0.08477783,0.0927124
1601393003773,1792,-0.9489746,-0.008605957,0.051208496
1601393003774,1793,-0.9489746,-0.008605957,0.051208496
1601393003775,1794,-1.0725098,-0.23199463,0.19110107
1601393003775,1795,-1.1081543,-0.16802979,0.16546631
1601393003776,1796,-1.1118164,-0.082092285,0.12005615
1601393003777,1797,-1.0490723,0.045837402,0.05609131
1601393003780,1798,-0.9538574,-0.08477783,0.0927124
1601393003782,1799,-1.0725098,-0.23199463,0.19110107
1601393003784,1800,-1.1391602,-0.09088135,0.10882568
1601393003786,1801,-1.026123,-0.25860596,0.20037842
1601393003789,1802,-0.9538574,-0.08477783,0.0927124
1601393003789,1803,-1.026123,-0.25860596,0.20037842
1601393003803,1804,-1.1118164,-0.082092285,0.12005615
1601393003804,1805,-1.1081543,-0.16802979,0.16546631
1601393003805,1806,-1.0576172,-0.25030518,0.22918701
1601393003806,1807,-0.9489746,-0.008605957,0.051208496
1601393003807,1808,-1.0881348,-0.21954346,0.24261475
1601393003807,1809,-1.0576172,-0.25030518,0.22918701
1601393003808,1810,-1.0895996,-0.1104126,0.19744873
1601393003809,1811,-1.1391602,-0.09088135,0.10882568
1601393003809,1812,-0.9538574,-0.08477783,0.0927124
1601393003810,1813,-1.0725098,-0.23199463,0.19110107
1601393003811,1814,-1.0881348,-0.21954346,0.24261475
1601393003812,1815,-1.1118164,-0.082092285,0.12005615
1601393003815,1816,-1.0756836,-0.15826416,0.20257568
1601393003817,1817,-1.026123,-0.25860596,0.20037842
1601393003823,1818,-1.0895996,-0.1104126,0.19744873
1601393003825,1819,-1.1391602,-0.09088135,0.10882568
1601393003825,1820,-1.1118164,-0.082092285,0.12005615
1601393003825,1821,-1.1071777,-0.21002197,0.20770264
1601393003826,1822,-1.1081543,-0.16802979,0.16546631
1601393003827,1823,-1.0576172,-0.25030518,0.22918701
1601393003829,1824,-1.1081543,-0.16802979,0.16546631
1601393003839,1825,-0.97509766,-0.15655518,0.25750732
1601393003839,1826,-1.0725098,-0.23199463,0.19110107
1601393003839,1827,-1.0881348,-0.21954346,0.24261475
1601393003840,1828,-1.1391602,-0.09088135,0.10882568
1601393003840,1829,-1.0895996,-0.1104126,0.19744873
1601393003840,1830,-1.0756836,-0.15826416,0.20257568
1601393003841,1831,-0.7409668,-0.120910645,0.27288818
1601393003841,1832,-1.1081543,-0.16802979,0.16546631
1601393003844,1833,-1.0756836,-0.15826416,0.20257568
1601393003857,1834,-0.6882324,-0.097473145,0.291687
1601393003858,1835,-1.1071777,-0.21002197,0.20770264
1601393003858,1836,-1.1071777,-0.21002197,0.20770264
1601393003859,1837,-1.0725098,-0.23199463,0.19110107
1601393003860,1838,-1.0725098,-0.23199463,0.19110107
1601393003861,1839,-0.97509766,-0.15655518,0.25750732
1601393003863,1840,-1.026123,-0.25860596,0.20037842
1601393003863,1841,-0.62841797,-0.113342285,0.2814331
1601393003864,1842,-0.97509766,-0.15655518,0.25750732
1601393003864,1843,-1.026123,-0.25860596,0.20037842
1601393003866,1844,-1.026123,-0.25860596,0.20037842
1601393003871,1845,-0.7409668,-0.120910645,0.27288818
1601393003889,1846,-0.7409668,-0.120910645,0.27288818
1601393003889,1847,-0.96899414,-0.11578369,0.41619873
1601393003890,1848,-1.0576172,-0.25030518,0.22918701
1601393003891,1849,-0.6882324,-0.097473145,0.291687
1601393003891,1850,-1.0576172,-0.25030518,0.22918701
1601393003892,1851,-0.6882324,-0.097473145,0.291687
1601393003893,1852,-1.0881348,-0.21954346,0.24261475
1601393003893,1853,-1.0576172,-0.25030518,0.22918701
1601393003896,1854,-0.98950195,-0.054504395,0.39691162
1601393003896,1855,-1.0881348,-0.21954346,0.24261475
1601393003896,1856,-0.62841797,-0.113342285,0.2814331
1601393003896,1857,-1.0895996,-0.1104126,0.19744873
1601393003897,1858,-0.96899414,-0.11578369,0.41619873
1601393003898,1859,-1.0895996,-0.1104126,0.19744873
1601393003899,1860,-1.0756836,-0.15826416,0.20257568
1601393003900,1861,-1.0881348,-0.21954346,0.24261475
1601393003901,1862,-0.62841797,-0.113342285,0.2814331
1601393003901,1863,-0.98950195,-0.054504395,0.39691162
1601393003902,1864,-1.1071777,-0.21002197,0.20770264
1601393003903,1865,-1.0756836,-0.15826416,0.20257568
1601393003903,1866,-1.0895996,-0.1104126,0.19744873
1601393003904,1867,-1.0236816,-0.12188721,0.4088745
1601393003905,1868,-0.96899414,-0.11578369,0.41619873
1601393003913,1869,-1.0236816,-0.12188721,0.4088745
1601393003913,1870,-1.1071777,-0.21002197,0.20770264
1601393003914,1871,-0.97509766,-0.15655518,0.25750732
1601393003914,1872,-1.0756836,-0.15826416,0.20257568
1601393003914,1873,-0.9055176,-0.1831665,0.47772217
1601393003914,1874,-0.98950195,-0.054504395,0.39691162
1601393003918,1875,-0.97509766,-0.15655518,0.25750732
1601393003919,1876,-0.9055176,-0.1831665,0.47772217
1601393003919,1877,-0.7409668,-0.120910645,0.27288818
1601393003919,1878,-0.7409668,-0.120910645,0.27288818
1601393003919,1879,-1.1071777,-0.21002197,0.20770264
1601393003919,1880,-0.98461914,-0.25958252,0.51898193
1601393003932,1881,-0.98461914,-0.25958252,0.51898193
1601393003933,1882,-1.0236816,-0.12188721,0.4088745
1601393003933,1883,-0.6882324,-0.097473145,0.291687
1601393003934,1884,-0.97509766,-0.15655518,0.25750732
1601393003934,1885,-0.6882324,-0.097473145,0.291687
1601393003934,1886,-1.5056152,-0.15777588,0.527771
1601393003935,1887,-1.5056152,-0.15777588,0.527771
1601393003935,1888,-1.3366699,-0.10235596,0.276062
1601393003935,1889,-0.62841797,-0.113342285,0.2814331
1601393003935,1890,-0.9055176,-0.1831665,0.47772217
1601393003935,1891,-0.98461914,-0.25958252,0.51898193
1601393003936,1892,-0.62841797,-0.113342285,0.2814331
1601393003936,1893,-1.3366699,-0.10235596,0.276062
1601393003936,1894,-0.7409668,-0.120910645,0.27288818
1601393003937,1895,-0.96899414,-0.11578369,0.41619873
1601393003937,1896,-0.6882324,-0.097473145,0.291687
1601393003943,1897,-0.96899414,-0.11578369,0.41619873
1601393003943,1898,-1.5056152,-0.15777588,0.527771
1601393003943,1899,-0.98950195,-0.054504395,0.39691162
1601393003944,1900,-0.62841797,-0.113342285,0.2814331
1601393003946,1901,-0.98950195,-0.054504395,0.39691162
1601393003948,1902,-0.96899414,-0.11578369,0.41619873
1601393003961,1903,-0.98950195,-0.054504395,0.39691162
1601393003962,1904,-1.3366699,-0.10235596,0.276062
1601393003962,1905,-1.0236816,-0.12188721,0.4088745
1601393003963,1906,-1.0236816,-0.12188721,0.4088745
1601393003963,1907,-1.0236816,-0.12188721,0.4088745
1601393003963,1908,-0.9055176,-0.1831665,0.47772217
1601393003963,1909,-0.9055176,-0.1831665,0.47772217
1601393003964,1910,-0.98461914,-0.25958252,0.51898193
1601393003969,1911,-0.9055176,-0.1831665,0.47772217
1601393003969,1912,-0.98461914,-0.25958252,0.51898193
1601393003970,1913,-1.5056152,-0.15777588,0.527771
1601393003970,1914,-1.5056152,-0.15777588,0.527771
1601393003971,1915,-1.3366699,-0.10235596,0.276062
1601393003971,1916,-1.3366699,-0.10235596,0.276062
1601393003974,1917,-0.98461914,-0.25958252,0.51898193
1601393003977,1918,-1.5056152,-0.15777588,0.527771
1601393003978,1919,-1.3366699,-0.10235596,0.276062
1601393006251,1920,-1.0681152,-0.24493408,0.2453003
1601393006253,1921,-1.0681152,-0.24493408,0.2453003
1601393006256,1922,-1.0681152,-0.24493408,0.2453003
1601393006259,1923,-1.0681152,-0.24493408,0.2453003
1601393006261,1924,-1.0681152,-0.24493408,0.2453003
1601393006263,1925,-1.0681152,-0.24493408,0.2453003
1601393006265,1926,-1.1071777,-0.3086548,0.22503662
1601393006267,1927,-1.3366699,-0.33551025,0.2584839
1601393006269,1928,-1.4162598,-0.33062744,0.31414795
1601393006271,1929,-1.1071777,-0.3086548,0.22503662
1601393006283,1930,-1.3366699,-0.33551025,0.2584839
1601393006284,1931,-1.1071777,-0.3086548,0.22503662
1601393006284,1932,-1.4162598,-0.33062744,0.31414795
1601393006285,1933,-1.1374512,-0.36187744,0.65740967
1601393006286,1934,-1.1071777,-0.3086548,0.22503662
1601393006287,1935,-1.1071777,-0.3086548,0.22503662
1601393006288,1936,-0.53515625,-0.2798462,1.020935
1601393006288,1937,-1.1071777,-0.3086548,0.22503662
1601393006290,1938,-1.1374512,-0.36187744,0.65740967
1601393006290,1939,-1.3366699,-0.33551025,0.2584839
1601393006291,1940,-1.3366699,-0.33551025,0.2584839
1601393006293,1941,-1.3366699,-0.33551025,0.2584839
1601393006295,1942,-1.3366699,-0.33551025,0.2584839
1601393006297,1943,-1.4162598,-0.33062744,0.31414795
1601393006298,1944,0.008300781,-0.12384033,1.0455933
1601393006300,1945,-0.53515625,-0.2798462,1.020935
1601393006302,1946,-1.4162598,-0.33062744,0.31414795
1601393006304,1947,-1.1374512,-0.36187744,0.65740967
1601393006305,1948,-0.53515625,-0.2798462,1.020935
1601393006307,1949,0.008300781,-0.12384033,1.0455933
1601393006309,1950,0.27856445,-0.022521973,0.66448975
1601393006310,1951,-1.4162598,-0.33062744,0.31414795
1601393006313,1952,-1.1374512,-0.36187744,0.65740967
1601393006315,1953,0.008300781,-0.12384033,1.0455933
1601393006316,1954,-1.1374512,-0.36187744,0.65740967
1601393006318,1955,-0.53515625,-0.2798462,1.020935
1601393006319,1956,-0.53515625,-0.2798462,1.020935
1601393006324,1957,-1.4162598,-0.33062744,0.31414795
1601393006325,1958,0.27856445,-0.022521973,0.66448975
1601393006325,1959,0.42382812,-0.1026001,0.50701904
1601393006326,1960,0.42382812,-0.1026001,0.50701904
1601393006326,1961,0.55444336,-0.020324707,0.4689331
1601393006327,1962,0.008300781,-0.12384033,1.0455933
1601393006329,1963,0.008300781,-0.12384033,1.0455933
1601393006330,1964,0.27856445,-0.022521973,0.66448975
1601393006332,1965,0.42382812,-0.1026001,0.50701904
1601393006345,1966,0.55444336,-0.020324707,0.4689331
1601393006346,1967,0.58374023,0.0018920898,0.45770264
1601393006346,1968,0.55444336,-0.020324707,0.4689331
1601393006347,1969,0.27856445,-0.022521973,0.66448975
1601393006348,1970,0.58374023,0.0018920898,0.45770264
1601393006348,1971,0.42382812,-0.1026001,0.50701904
1601393006349,1972,-1.1374512,-0.36187744,0.65740967
1601393006350,1973,0.61279297,0.08905029,0.4598999
1601393006350,1974,0.61279297,0.08905029,0.4598999
1601393006351,1975,0.58374023,0.0018920898,0.45770264
1601393006352,1976,0.27856445,-0.022521973,0.66448975
1601393006352,1977,0.61279297,0.08905029,0.4598999
1601393006353,1978,0.6738281,0.13690186,0.5487671
1601393006354,1979,0.6738281,0.13690186,0.5487671
1601393006365,1980,-0.53515625,-0.2798462,1.020935
1601393006365,1981,0.42382812,-0.1026001,0.50701904
1601393006366,1982,0.767334,0.1552124,0.55804443
1601393006367,1983,0.008300781,-0.12384033,1.0455933
1601393006367,1984,0.8161621,0.23602295,0.496521
1601393006368,1985,0.27856445,-0.022521973,0.66448975
1601393006368,1986,0.8039551,0.13397217,0.38494873
1601393006369,1987,0.42382812,-0.1026001,0.50701904
1601393006369,1988,0.767334,0.1552124,0.55804443
1601393006369,1989,0.6738281,0.13690186,0.5487671
1601393006379,1990,0.8161621,0.23602295,0.496521
1601393006379,1991,0.55444336,-0.020324707,0.4689331
1601393006379,1992,0.55444336,-0.020324707,0.4689331
1601393006388,1993,0.8039551,0.13397217,0.38494873
1601393006389,1994,0.767334,0.1552124,0.55804443
1601393006389,1995,0.8161621,0.23602295,0.496521
1601393006390,1996,0.85302734,0.1798706,0.32757568
1601393006391,1997,0.55444336,-0.020324707,0.4689331
1601393006391,1998,0.58374023,0.0018920898,0.45770264
1601393006392,1999,0.61279297,0.08905029,0.4598999
1601393006392,2000,0.85302734,0.1798706,0.32757568
1601393006393,2001,0.58374023,0.0018920898,0.45770264
1601393006393,2002,0.8039551,0.13397217,0.38494873
1601393006394,2003,0.9523926,0.17401123,0.24212646
1601393006395,2004,0.58374023,0.0018920898,0.45770264
1601393006399,2005,0.6738281,0.13690186,0.5487671
1601393006399,2006,0.9523926,0.17401123,0.24212646
1601393006399,2007,0.61279297,0.08905029,0.4598999
1601393006399,2008,0.9082031,0.12249756,0.14569092
1601393006399,2009,0.85302734,0.1798706,0.32757568
1601393006400,2010,0.61279297,0.08905029,0.4598999
1601393006401,2011,0.767334,0.1552124,0.55804443
1601393006403,2012,0.8161621,0.23602295,0.496521
1601393006404,2013,0.8039551,0.13397217,0.38494873
1601393006405,2014,0.6738281,0.13690186,0.5487671
1601393006407,2015,0.767334,0.1552124,0.55804443
1601393006413,2016,0.9082031,0.12249756,0.14569092
1601393006414,2017,0.85302734,0.1798706,0.32757568
1601393006415,2018,0.9523926,0.17401123,0.24212646
1601393006415,2019,0.6738281,0.13690186,0.5487671
1601393006416,2020,0.9523926,0.17401123,0.24212646
1601393006416,2021,0.8161621,0.23602295,0.496521
1601393006417,2022,0.9082031,0.12249756,0.14569092
1601393006419,2023,0.8808594,0.08392334,0.117370605
1601393006421,2024,0.85961914,0.05657959,0.09954834
1601393006422,2025,0.8039551,0.13397217,0.38494873
1601393006424,2026,0.85302734,0.1798706,0.32757568
1601393006428,2027,0.8808594,0.08392334,0.117370605
1601393006428,2028,0.5480957,-0.0635376,0.26287842
1601393006428,2029,0.8808594,0.08392334,0.117370605
1601393006428,2030,0.767334,0.1552124,0.55804443
1601393006428,2031,0.9082031,0.12249756,0.14569092
1601393006429,2032,0.9523926,0.17401123,0.24212646
1601393006436,2033,0.85961914,0.05657959,0.09954834
1601393006436,2034,0.2368164,-0.32965088,0.40325928
1601393006436,2035,0.85961914,0.05657959,0.09954834
1601393006436,2036,0.8161621,0.23602295,0.496521
1601393006437,2037,0.9082031,0.12249756,0.14569092
1601393006437,2038,0.8808594,0.08392334,0.117370605
1601393006437,2039,0.8808594,0.08392334,0.117370605
1601393006437,2040,0.85961914,0.05657959,0.09954834
1601393006437,2041,0.12597656,-0.50250244,0.41400146
1601393006437,2042,0.5480957,-0.0635376,0.26287842
1601393006438,2043,0.8039551,0.13397217,0.38494873
1601393006439,2044,0.5480957,-0.0635376,0.26287842
1601393006444,2045,0.5480957,-0.0635376,0.26287842
1601393006445,2046,0.2019043,-0.5647583,0.42767334
1601393006445,2047,0.85302734,0.1798706,0.32757568
1601393006446,2048,0.2368164,-0.32965088,0.40325928
1601393006446,2049,0.2368164,-0.32965088,0.40325928
1601393006447,2050,0.12597656,-0.50250244,0.41400146
1601393006448,2051,0.2368164,-0.32965088,0.40325928
1601393006450,2052,0.12597656,-0.50250244,0.41400146
1601393006451,2053,0.2019043,-0.5647583,0.42767334
1601393006452,2054,0.26098633,-0.043273926,1.0101929
1601393006454,2055,-0.1784668,-0.28497314,1.493103
1601393006455,2056,-0.46533203,0.050476074,1.151062
1601393006456,2057,-0.7675781,-0.34869385,0.7802124
1601393006464,2058,0.12597656,-0.50250244,0.41400146
1601393006465,2059,0.2019043,-0.5647583,0.42767334
1601393006465,2060,0.26098633,-0.043273926,1.0101929
1601393006466,2061,0.26098633,-0.043273926,1.0101929
1601393006466,2062,0.85961914,0.05657959,0.09954834
1601393006467,2063,-0.95214844,-0.26739502,0.4088745
1601393006468,2064,0.5480957,-0.0635376,0.26287842
1601393006469,2065,0.2019043,-0.5647583,0.42767334
1601393006469,2066,0.9523926,0.17401123,0.24212646
1601393006470,2067,-0.1784668,-0.28497314,1.493103
1601393006471,2068,-1.3068848,-0.34820557,0.22723389
1601393006473,2069,-1.3024902,-0.20025635,0.16864014
1601393006474,2070,-0.46533203,0.050476074,1.151062
1601393006479,2071,0.2368164,-0.32965088,0.40325928
1601393006479,2072,-0.1784668,-0.28497314,1.493103
1601393006479,2073,0.26098633,-0.043273926,1.0101929
1601393006480,2074,0.9082031,0.12249756,0.14569092
1601393006480,2075,-0.7675781,-0.34869385,0.7802124
1601393006482,2076,0.12597656,-0.50250244,0.41400146
1601393006484,2077,-0.1784668,-0.28497314,1.493103
1601393006488,2078,-0.46533203,0.050476074,1.151062
1601393006488,2079,-0.46533203,0.050476074,1.151062
1601393006489,2080,0.2019043,-0.5647583,0.42767334
1601393006489,2081,0.8808594,0.08392334,0.117370605
1601393006489,2082,-0.95214844,-0.26739502,0.4088745
1601393006490,2083,-0.7675781,-0.34869385,0.7802124
1601393006495,2084,0.26098633,-0.043273926,1.0101929
1601393006495,2085,0.85961914,0.05657959,0.09954834
1601393006495,2086,-0.1784668,-0.28497314,1.493103
1601393006495,2087,-0.7675781,-0.34869385,0.7802124
1601393006495,2088,-0.95214844,-0.26739502,0.4088745
1601393006499,2089,0.5480957,-0.0635376,0.26287842
1601393006500,2090,-1.3068848,-0.34820557,0.22723389
1601393006500,2091,-0.95214844,-0.26739502,0.4088745
1601393006500,2092,-0.46533203,0.050476074,1.151062
1601393006500,2093,-1.3068848,-0.34820557,0.22723389
1601393006502,2094,0.2368164,-0.32965088,0.40325928
1601393006509,2095,-1.3068848,-0.34820557,0.22723389
1601393006509,2096,-0.7675781,-0.34869385,0.7802124
1601393006510,2097,-1.3024902,-0.20025635,0.16864014
1601393006510,2098,-1.3024902,-0.20025635,0.16864014
1601393006510,2099,-1.3024902,-0.20025635,0.16864014
1601393006510,2100,0.12597656,-0.50250244,0.41400146
1601393006511,2101,-0.95214844,-0.26739502,0.4088745
1601393006521,2102,-1.3068848,-0.34820557,0.22723389
1601393006521,2103,0.2019043,-0.5647583,0.42767334
1601393006524,2104,-1.3024902,-0.20025635,0.16864014
1601393006524,2105,0.26098633,-0.043273926,1.0101929
1601393006526,2106,-0.1784668,-0.28497314,1.493103
1601393006527,2107,-0.46533203,0.050476074,1.151062
1601393006528,2108,-0.7675781,-0.34869385,0.7802124
1601393006530,2109,-0.95214844,-0.26739502,0.4088745
1601393006531,2110,-1.3068848,-0.34820557,0.22723389
1601393006533,2111,-1.3024902,-0.20025635,0.16864014
1601393008752,2112,-1.1936035,-0.12799072,0.21746826
1601393008753,2113,-1.1936035,-0.12799072,0.21746826
1601393008754,2114,-1.1936035,-0.12799072,0.21746826
1601393008755,2115,-1.1936035,-0.12799072,0.21746826
1601393008756,2116,-1.1103516,0.2838745,0.31610107
1601393008757,2117,-1.1936035,-0.12799072,0.21746826
1601393008764,2118,-1.1103516,0.2838745,0.31610107
1601393008765,2119,-1.1936035,-0.12799072,0.21746826
1601393008765,2120,-1.1103516,0.2838745,0.31610107
1601393008765,2121,-1.1103516,0.2838745,0.31610107
1601393008767,2122,-1.157959,0.030456543,0.42425537
1601393008767,2123,-1.1103516,0.2838745,0.31610107
1601393008769,2124,-1.157959,0.030456543,0.42425537
1601393008780,2125,-1.157959,0.030456543,0.42425537
1601393008781,2126,-1.182373,0.00970459,0.22869873
1601393008781,2127,-1.157959,0.030456543,0.42425537
1601393008782,2128,-1.157959,0.030456543,0.42425537
1601393008783,2129,-1.1103516,0.2838745,0.31610107
1601393008784,2130,-1.182373,0.00970459,0.22869873
1601393008784,2131,-1.157959,0.030456543,0.42425537
1601393008785,2132,-1.182373,0.00970459,0.22869873
1601393008786,2133,-1.2980957,-0.21807861,0.40545654
1601393008787,2134,-1.182373,0.00970459,0.22869873
1601393008787,2135,-1.2980957,-0.21807861,0.40545654
1601393008788,2136,-1.2980957,-0.21807861,0.40545654
1601393008791,2137,-1.182373,0.00970459,0.22869873
1601393008803,2138,-1.182373,0.00970459,0.22869873
1601393008803,2139,-1.1677246,-0.37164307,0.37713623
1601393008804,2140,-1.1677246,-0.37164307,0.37713623
1601393008804,2141,-1.1677246,-0.37164307,0.37713623
1601393008805,2142,-1.2980957,-0.21807861,0.40545654
1601393008807,2143,-1.2980957,-0.21807861,0.40545654
1601393008807,2144,-1.1677246,-0.37164307,0.37713623
1601393008808,2145,-1.2980957,-0.21807861,0.40545654
1601393008809,2146,-0.9667969,-0.7268677,0.41351318
1601393008810,2147,-0.9667969,-0.7268677,0.41351318
1601393008810,2148,-0.9667969,-0.7268677,0.41351318
1601393008811,2149,-1.1677246,-0.37164307,0.37713623
1601393008814,2150,-0.9667969,-0.7268677,0.41351318
1601393008820,2151,-0.654541,-0.87701416,0.30975342
1601393008820,2152,-0.654541,-0.87701416,0.30975342
1601393008820,2153,-0.4038086,-0.8496704,0.26849365
1601393008821,2154,-0.654541,-0.87701416,0.30975342
1601393008821,2155,-0.654541,-0.87701416,0.30975342
1601393008824,2156,-1.1677246,-0.37164307,0.37713623
1601393008827,2157,-0.9667969,-0.7268677,0.41351318
1601393008833,2158,-0.4038086,-0.8496704,0.26849365
1601393008834,2159,-0.9667969,-0.7268677,0.41351318
1601393008834,2160,-0.4038086,-0.8496704,0.26849365
1601393008834,2161,-0.013671875,-0.72540283,0.24285889
1601393008837,2162,-0.4038086,-0.8496704,0.26849365
1601393008837,2163,-0.654541,-0.87701416,0.30975342
1601393008837,2164,0.20654297,-0.84381104,0.097351074
1601393008838,2165,-0.654541,-0.87701416,0.30975342
1601393008846,2166,-0.013671875,-0.72540283,0.24285889
1601393008846,2167,-0.4038086,-0.8496704,0.26849365
1601393008847,2168,-0.013671875,-0.72540283,0.24285889
1601393008848,2169,-0.21728516,-1.0352173,-0.14068604
1601393008849,2170,-0.013671875,-0.72540283,0.24285889
1601393008850,2171,-0.4038086,-0.8496704,0.26849365
1601393008853,2172,-0.013671875,-0.72540283,0.24285889
1601393008855,2173,0.20654297,-0.84381104,0.097351074
1601393008862,2174,0.20654297,-0.84381104,0.097351074
1601393008862,2175,-0.013671875,-0.72540283,0.24285889
1601393008863,2176,0.20654297,-0.84381104,0.097351074
1601393008863,2177,-0.21728516,-1.0352173,-0.14068604
1601393008863,2178,-0.1743164,-0.9434204,-0.15704346
1601393008864,2179,-0.1743164,-0.9434204,-0.15704346
1601393008866,2180,0.20654297,-0.84381104,0.097351074
1601393008867,2181,-0.21728516,-1.0352173,-0.14068604
1601393008869,2182,-0.21728516,-1.0352173,-0.14068604
1601393008871,2183,-0.049316406,-1.0877075,-0.05645752
1601393008873,2184,-0.026855469,-1.0332642,0.09906006
1601393008876,2185,-0.046142578,-0.95806885,0.23065186
1601393008881,2186,-0.1743164,-0.9434204,-0.15704346
1601393008882,2187,-0.049316406,-1.0877075,-0.05645752
1601393008882,2188,-0.1743164,-0.9434204,-0.15704346
1601393008883,2189,-0.061035156,-0.8184204,0.2597046
1601393008883,2190,-0.21728516,-1.0352173,-0.14068604
1601393008884,2191,0.20654297,-0.84381104,0.097351074
1601393008886,2192,-0.049316406,-1.0877075,-0.05645752
1601393008887,2193,-0.026855469,-1.0332642,0.09906006
1601393008890,2194,-0.1743164,-0.9434204,-0.15704346
1601393008895,2195,-0.21728516,-1.0352173,-0.14068604
1601393008896,2196,-0.049316406,-1.0877075,-0.05645752
1601393008896,2197,-0.026855469,-1.0332642,0.09906006
1601393008896,2198,-0.09277344,-0.8792114,0.32000732
1601393008897,2199,-0.046142578,-0.95806885,0.23065186
1601393008897,2200,-0.17114258,-0.9348755,0.33807373
1601393008897,2201,-0.049316406,-1.0877075,-0.05645752
1601393008902,2202,-0.1743164,-0.9434204,-0.15704346
1601393008903,2203,-0.026855469,-1.0332642,0.09906006
1601393008903,2204,-0.046142578,-0.95806885,0.23065186
1601393008903,2205,-0.046142578,-0.95806885,0.23065186
1601393008904,2206,-0.061035156,-0.8184204,0.2597046
1601393008906,2207,-0.049316406,-1.0877075,-0.05645752
1601393008912,2208,-0.15649414,-0.9024048,0.32904053
1601393008912,2209,-0.061035156,-0.8184204,0.2597046
1601393008912,2210,-0.20678711,-0.9480591,0.3522339
1601393008913,2211,-0.026855469,-1.0332642,0.09906006
1601393008913,2212,-0.026855469,-1.0332642,0.09906006
1601393008913,2213,-0.061035156,-0.8184204,0.2597046
1601393008919,2214,-0.09277344,-0.8792114,0.32000732
1601393008919,2215,-0.09277344,-0.8792114,0.32000732
1601393008919,2216,-0.22949219,-0.9067993,0.33929443
1601393008919,2217,-0.046142578,-0.95806885,0.23065186
1601393008919,2218,-0.046142578,-0.95806885,0.23065186
1601393008920,2219,-0.09277344,-0.8792114,0.32000732
1601393008927,2220,-0.17114258,-0.9348755,0.33807373
1601393008927,2221,-0.15649414,-0.9024048,0.32904053
1601393008928,2222,-0.24511719,-1.000061,0.35076904
1601393008928,2223,-0.061035156,-0.8184204,0.2597046
1601393008928,2224,-0.061035156,-0.8184204,0.2597046
1601393008929,2225,-0.17114258,-0.9348755,0.33807373
1601393008934,2226,-0.17114258,-0.9348755,0.33807373
1601393008934,2227,-0.20678711,-0.9480591,0.3522339
1601393008934,2228,-0.25830078,-1.0918579,0.35198975
1601393008935,2229,-0.09277344,-0.8792114,0.32000732
1601393008935,2230,-0.27661133,-1.1358032,0.24334717
1601393008936,2231,-0.15649414,-0.9024048,0.32904053
1601393008937,2232,-0.27734375,-0.8833618,0.2008667
1601393008944,2233,-0.09277344,-0.8792114,0.32000732
1601393008945,2234,-0.22949219,-0.9067993,0.33929443
1601393008947,2235,-0.17114258,-0.9348755,0.33807373
1601393008947,2236,-0.20678711,-0.9480591,0.3522339
1601393008948,2237,-0.15649414,-0.9024048,0.32904053
1601393008950,2238,-0.31152344,-0.94610596,0.13153076
1601393008959,2239,-0.24511719,-1.000061,0.35076904
1601393008960,2240,-0.15649414,-0.9024048,0.32904053
1601393008960,2241,-0.17114258,-0.9348755,0.33807373
1601393008961,2242,-0.22949219,-0.9067993,0.33929443
1601393008961,2243,-0.32666016,-0.9182739,0.14837646
1601393008963,2244,-0.15649414,-0.9024048,0.32904053
1601393008965,2245,-0.20678711,-0.9480591,0.3522339
1601393008968,2246,-0.25830078,-1.0918579,0.35198975
1601393008968,2247,-0.20678711,-0.9480591,0.3522339
1601393008968,2248,-0.265625,-0.90826416,0.18695068
1601393008991,2249,-0.22949219,-0.9067993,0.33929443
1601393008991,2250,-0.27661133,-1.1358032,0.24334717
1601393008991,2251,-0.20678711,-0.9480591,0.3522339
1601393008992,2252,-0.24511719,-1.000061,0.35076904
1601393008992,2253,-0.22949219,-0.9067993,0.33929443
1601393008993,2254,-0.28051758,-0.92315674,0.22137451
1601393008993,2255,-0.25830078,-1.0918579,0.35198975
1601393008993,2256,-0.24511719,-1.000061,0.35076904
1601393008993,2257,-0.22949219,-0.9067993,0.33929443
1601393008994,2258,-0.27734375,-0.8833618,0.2008667
1601393008994,2259,-0.25830078,-1.0918579,0.35198975
1601393008994,2260,-0.31152344,-0.94610596,0.13153076
1601393008995,2261,-0.2578125,-0.90460205,0.21600342
1601393008995,2262,-0.27661133,-1.1358032,0.24334717
1601393008995,2263,-0.24511719,-1.000061,0.35076904
1601393008996,2264,-0.24511719,-1.000061,0.35076904
1601393008996,2265,-0.25830078,-1.0918579,0.35198975
1601393008996,2266,-0.27661133,-1.1358032,0.24334717
1601393008996,2267,-0.32666016,-0.9182739,0.14837646
1601393008997,2268,-0.17138672,-0.94732666,0.16693115
1601393008997,2269,-0.27734375,-0.8833618,0.2008667
1601393008997,2270,-0.265625,-0.90826416,0.18695068
1601393008998,2271,-0.25830078,-1.0918579,0.35198975
1601393008998,2272,-0.27661133,-1.1358032,0.24334717
1601393008998,2273,-0.27661133,-1.1358032,0.24334717
1601393008999,2274,-0.27734375,-0.8833618,0.2008667
1601393009019,2275,-0.31152344,-0.94610596,0.13153076
1601393009020,2276,-0.28051758,-0.92315674,0.22137451
1601393009020,2277,-0.27734375,-0.8833618,0.2008667
1601393009021,2278,-0.32666016,-0.9182739,0.14837646
1601393009021,2279,-0.27734375,-0.8833618,0.2008667
1601393009021,2280,-0.265625,-0.90826416,0.18695068
1601393009022,2281,-0.31152344,-0.94610596,0.13153076
1601393009022,2282,-0.31152344,-0.94610596,0.13153076
1601393009023,2283,-0.2578125,-0.90460205,0.21600342
1601393009023,2284,-0.32666016,-0.9182739,0.14837646
1601393009023,2285,-0.31152344,-0.94610596,0.13153076
1601393009023,2286,-0.28051758,-0.92315674,0.22137451
1601393009024,2287,-0.32666016,-0.9182739,0.14837646
1601393009024,2288,-0.2578125,-0.90460205,0.21600342
1601393009025,2289,-0.17138672,-0.94732666,0.16693115
1601393009025,2290,-0.265625,-0.90826416,0.18695068
1601393009025,2291,-0.265625,-0.90826416,0.18695068
1601393009026,2292,-0.28051758,-0.92315674,0.22137451
1601393009026,2293,-0.17138672,-0.94732666,0.16693115
1601393009027,2294,-0.32666016,-0.9182739,0.14837646
1601393009032,2295,-0.28051758,-0.92315674,0.22137451
1601393009032,2296,-0.2578125,-0.90460205,0.21600342
1601393009033,2297,-0.265625,-0.90826416,0.18695068
1601393009033,2298,-0.2578125,-0.90460205,0.21600342
1601393009034,2299,-0.17138672,-0.94732666,0.16693115
1601393009035,2300,-0.17138672,-0.94732666,0.16693115
1601393009040,2301,-0.28051758,-0.92315674,0.22137451
1601393009042,2302,-0.2578125,-0.90460205,0.21600342
1601393009045,2303,-0.17138672,-0.94732666,0.16693115
1601393011158,2304,-0.1821289,-1.09552,0.18841553
1601393011158,2305,-0.1821289,-1.09552,0.18841553
1601393011160,2306,-0.1821289,-1.09552,0.18841553
1601393011160,2307,-0.2290039,-0.9429321,0.2694702
1601393011174,2308,-0.1821289,-1.09552,0.18841553
