# Sensor position: Front pocket (trouser)
# Sensor side: Right
# Activity type: Movement
# Activity code: 9
# Subject id: s1751093
timestamp,seq,accel_x,accel_y,accel_z
1602579496697,0,-0.083984375,-1.0391235,-0.06109619
1602579496775,1,-0.08081055,-1.0383911,-0.061828613
1602579496854,2,-0.078125,-1.0379028,-0.066467285
1602579496933,3,-0.088378906,-1.0374146,-0.065979004
1602579497012,4,-0.08251953,-1.0374146,-0.06524658
1602579497090,5,-0.07836914,-1.0396118,-0.06109619
1602579497169,6,-0.079589844,-1.0374146,-0.06011963
1602579497248,7,-0.083984375,-1.0354614,-0.066223145
1602579497327,8,-0.08618164,-1.0396118,-0.06573486
1602579497405,9,-0.083984375,-1.038147,-0.06329346
1602579497484,10,-0.079833984,-1.0366821,-0.06329346
1602579497563,11,-0.08276367,-1.0359497,-0.06744385
1602579497642,12,-0.08642578,-1.0354614,-0.06793213
1602579497720,13,-0.080322266,-1.0401001,-0.06890869
1602579497799,14,-0.08251953,-1.0376587,-0.06427002
1602579497878,15,-0.083740234,-1.0357056,-0.06768799
1602579497957,16,-0.08618164,-1.039856,-0.0647583
1602579498035,17,-0.08081055,-1.0371704,-0.06573486
1602579498114,18,-0.0793457,-1.0379028,-0.066711426
1602579498193,19,-0.08203125,-1.0369263,-0.06329346
1602579498272,20,-0.08178711,-1.0374146,-0.06329346
1602579498350,21,-0.07861328,-1.0376587,-0.06549072
1602579498429,22,-0.080322266,-1.0383911,-0.06378174
1602579498508,23,-0.08666992,-1.0401001,-0.066467285
1602579498587,24,-0.08544922,-1.0376587,-0.059387207
1602579498665,25,-0.08276367,-1.0393677,-0.06329346
1602579498744,26,-0.08300781,-1.0352173,-0.062805176
1602579498823,27,-0.08105469,-1.0374146,-0.062316895
1602579498902,28,-0.08325195,-1.039856,-0.06451416
1602579498980,29,-0.08081055,-1.0349731,-0.06427002
1602579499059,30,-0.07324219,-1.0379028,-0.057922363
1602579499138,31,-0.052001953,-1.0332642,-0.0569458
1602579499217,32,-0.057373047,-1.0396118,-0.06060791
1602579499295,33,-0.07006836,-1.0418091,-0.06109619
1602579499374,34,-0.072265625,-1.0388794,-0.07305908
1602579499453,35,-0.07299805,-1.0322876,-0.069885254
1602579499532,36,-0.08276367,-1.0359497,-0.050109863
1602579499610,37,-0.09692383,-1.0418091,-0.04083252
1602579499689,38,-0.14282227,-1.0457153,-0.031311035
1602579499768,39,-0.15795898,-1.0459595,-0.027893066
1602579499847,40,-0.15625,-1.0366821,-0.017150879
1602579499925,41,-0.15649414,-1.0457153,-0.015930176
1602579500004,42,-0.16723633,-1.0261841,-0.0044555664
1602579500083,43,-0.1394043,-1.038147,0.011413574
1602579500162,44,-0.15014648,-1.0320435,0.026062012
1602579500240,45,-0.14941406,-1.0300903,0.043151855
1602579500319,46,-0.16845703,-1.0210571,0.039733887
1602579500398,47,-0.13232422,-1.0230103,0.04559326
1602579500477,48,-0.15844727,-1.0303345,0.0602417
1602579500555,49,-0.18188477,-1.0232544,0.05706787
1602579500634,50,-0.17407227,-1.0205688,0.07122803
1602579500713,51,-0.1730957,-1.0310669,0.06976318
1602579500792,52,-0.203125,-1.0261841,0.07122803
1602579500870,53,-0.18139648,-1.0147095,0.07537842
1602579500949,54,-0.18408203,-1.0210571,0.089782715
1602579501028,55,-0.1928711,-1.0183716,0.09320068
1602579501107,56,-0.24169922,-1.0327759,0.08465576
1602579501185,57,-0.25146484,-1.0171509,0.082214355
1602579501264,58,-0.22924805,-1.0056763,0.109069824
1602579501343,59,-0.21850586,-0.99346924,0.097351074
1602579501422,60,-0.30859375,-0.9365845,0.039978027
1602579501500,61,-0.3503418,-0.9866333,0.090026855
1602579501579,62,-0.38110352,-0.9661255,0.11175537
1602579501658,63,-0.31396484,-0.9314575,0.020202637
1602579501737,64,-0.3713379,-1.0715942,0.13812256
1602579501829,65,-0.31079102,-1.1079712,0.07635498
1602579501921,66,0.10131836,-1.1672974,0.14154053
1602579502014,67,0.10961914,-0.95928955,0.10687256
1602579502106,68,0.0146484375,-0.9678345,0.29144287
1602579502198,69,0.10253906,-0.9439087,0.4147339
1602579502291,70,0.091308594,-0.95098877,0.32196045
1602579502383,71,-0.040039062,-0.93927,0.27947998
1602579502475,72,0.08618164,-1.067688,0.31292725
1602579502568,73,0.026123047,-0.91607666,0.38787842
1602579502660,74,0.025878906,-0.9324341,0.39056396
1602579502752,75,0.025634766,-0.96661377,0.36297607
1602579502845,76,0.049560547,-0.956604,0.33929443
1602579502937,77,0.026123047,-0.9680786,0.34661865
1602579503029,78,0.0061035156,-0.98150635,0.31976318
1602579503122,79,0.025390625,-0.9800415,0.32781982
1602579503214,80,-0.010253906,-0.9631958,0.29925537
1602579503306,81,-0.043945312,-0.9702759,0.307312
1602579503399,82,0.022216797,-1.0032349,0.26654053
1602579503491,83,-0.06323242,-0.99005127,0.2592163
1602579503583,84,0.015625,-0.95635986,0.26434326
1602579503676,85,-0.014160156,-1.0200806,0.20574951
1602579503768,86,-0.095947266,-1.0315552,0.20111084
1602579503860,87,0.06762695,-1.0144653,0.26654053
1602579503953,88,0.06762695,-0.9170532,0.27801514
1602579504045,89,-0.068847656,-1.008606,0.4491577
1602579504137,90,0.010986328,-0.9663696,0.3307495
1602579504230,91,-0.10864258,-0.9290161,0.37713623
1602579504322,92,-0.07763672,-0.9573364,0.36102295
1602579504414,93,-0.037597656,-0.9522095,0.3776245
1602579504507,94,0.020019531,-0.954895,0.37542725
1602579504599,95,-0.047607422,-0.92071533,0.37738037
1602579504692,96,-0.022949219,-0.98223877,0.3534546
1602579504770,97,-0.07739258,-0.94732666,0.34490967
1602579504849,98,-0.036376953,-0.94537354,0.34661865
1602579504928,99,-0.026367188,-0.95440674,0.38861084
1602579505007,100,0.030517578,-0.9175415,0.4237671
1602579505085,101,0.017333984,-0.9121704,0.42132568
1602579505164,102,0.028320312,-0.92144775,0.46038818
1602579505243,103,0.009033203,-0.9260864,0.4647827
1602579505322,104,-0.024658203,-0.97613525,0.43792725
1602579505400,105,-0.09106445,-0.9463501,0.38641357
1602579505479,106,0.005859375,-0.9295044,0.40130615
1602579505558,107,0.048583984,-0.9014282,0.40863037
1602579505637,108,0.030273438,-0.95391846,0.44329834
1602579505715,109,-0.005126953,-0.9487915,0.3690796
1602579505794,110,-0.11010742,-0.99713135,0.35809326
1602579505873,111,0.0012207031,-0.95513916,0.34954834
1602579505952,112,0.011230469,-0.9397583,0.3517456
1602579506030,113,-0.010498047,-0.9729614,0.354187
1602579506109,114,0.046142578,-0.94610596,0.36395264
1602579506188,115,0.03540039,-0.9307251,0.39276123
1602579506267,116,-0.037841797,-0.9378052,0.3961792
1602579506345,117,-0.021240234,-0.94073486,0.40301514
1602579506424,118,0.012207031,-0.92681885,0.41278076
1602579506503,119,-0.0075683594,-0.94195557,0.39813232
1602579506582,120,-0.03173828,-0.95098877,0.37615967
1602579506660,121,-0.0026855469,-0.9685669,0.3493042
1602579506739,122,0.010498047,-0.94659424,0.32513428
1602579506818,123,0.0061035156,-0.9553833,0.3283081
1602579506897,124,0.008056641,-0.97735596,0.31488037
1602579506975,125,0.0043945312,-0.9783325,0.2958374
1602579507054,126,-0.008056641,-0.99468994,0.28729248
1602579507133,127,0.013427734,-0.986145,0.28997803
1602579507212,128,0.021728516,-0.9812622,0.3036499
1602579507290,129,0.017578125,-0.9763794,0.27825928
1602579507369,130,-0.008300781,-0.9819946,0.25726318
1602579507448,131,-0.0073242188,-1.0237427,0.21942139
1602579507527,132,0.010009766,-0.99005127,0.27166748
1602579507605,133,0.025146484,-1.0154419,0.18499756
1602579507684,134,-0.11743164,-1.0066528,0.23431396
1602579507763,135,-0.06323242,-1.0005493,0.19940186
1602579507842,136,0.04272461,-1.0247192,0.16351318
1602579507920,137,-0.051513672,-1.0217896,0.17010498
1602579507999,138,-0.06958008,-1.0200806,0.18060303
1602579508078,139,-0.06274414,-1.0166626,0.18035889
1602579508157,140,-0.029296875,-1.0193481,0.19476318
1602579508235,141,-0.095703125,-1.0083618,0.18597412
1602579508314,142,-0.059570312,-1.017395,0.19256592
1602579508393,143,-0.08129883,-1.0081177,0.17889404
1602579508472,144,-0.078125,-1.0322876,0.15496826
1602579508550,145,-0.06518555,-1.0154419,0.15863037
1602579508629,146,-0.010986328,-1.0261841,0.12713623
1602579508708,147,-0.036865234,-1.0359497,0.14276123
1602579508787,148,-0.11230469,-1.0247192,0.15325928
1602579508865,149,0.0068359375,-1.0264282,0.0993042
1602579508944,150,0.12402344,-1.045227,0.14251709
1602579509023,151,-0.21899414,-0.9819946,0.324646
1602579509102,152,-0.20874023,-1.0308228,0.29071045
1602579509180,153,0.10961914,-0.87750244,0.21185303
1602579509259,154,-0.40844727,-1.0637817,0.16326904
1602579509338,155,0.025146484,-0.9734497,0.44744873
1602579509417,156,0.017822266,-0.91656494,0.2597046
1602579509495,157,-0.07446289,-0.82354736,0.5553589
1602579509574,158,-0.087890625,-0.8213501,0.67181396
1602579509653,159,-0.23217773,-0.7661743,0.4508667
1602579509732,160,-0.30566406,-0.85821533,0.5844116
1602579509810,161,-0.2446289,-0.8201294,0.6708374
1602579509889,162,-0.32202148,-0.89263916,0.68670654
1602579509968,163,-0.2758789,-0.8814087,0.65179443
1602579510047,164,-0.18530273,-0.75982666,0.60028076
1602579510125,165,-0.15673828,-0.7893677,0.57025146
1602579510204,166,-0.12646484,-0.7554321,0.45892334
1602579510283,167,-0.109375,-0.8779907,0.4076538
1602579510362,168,0.03466797,-1.0195923,0.25115967
1602579510440,169,0.052246094,-1.0213013,0.1437378
1602579510519,170,-0.03466797,-1.0435181,0.10003662
1602579510598,171,-0.10449219,-1.0266724,0.10003662
1602579510677,172,-0.041259766,-1.0105591,0.035095215
1602579510755,173,-0.009277344,-1.0039673,0.0602417
1602579510834,174,-0.10473633,-1.024231,0.025817871
1602579510913,175,-0.049072266,-1.0134888,-0.08721924
1602579510992,176,0.114990234,-1.0437622,-0.059387207
1602579511070,177,0.1694336,-1.1773071,-0.018127441
1602579511149,178,0.05859375,-1.279602,0.078552246
1602579511228,179,-0.16918945,-1.1248169,0.13787842
1602579511307,180,-0.33813477,-1.1738892,0.03704834
1602579511385,181,0.07373047,-1.0669556,0.0446167
1602579511464,182,-0.06738281,-0.78497314,0.17816162
1602579511543,183,-0.01977539,-0.6502075,0.29681396
1602579511622,184,0.012939453,-0.7739868,0.44696045
1602579511700,185,0.0087890625,-1.0332642,0.62835693
1602579511779,186,-0.078125,-0.9624634,0.5492554
1602579511858,187,-0.12426758,-1.2957153,0.38226318
1602579511937,188,-0.31640625,-0.81085205,-0.03277588
1602579512015,189,0.115478516,-1.1865845,-0.19000244
1602579512094,190,0.053222656,-1.0274048,0.15594482
1602579512173,191,-0.036132812,-0.9949341,0.051696777
1602579512252,192,-0.045410156,-1.0115356,0.066101074
1602579512330,193,0.079589844,-0.96881104,0.10809326
1602579512409,194,0.02709961,-1.0386353,-0.027404785
1602579512488,195,-0.5480957,-1.3154907,-0.026184082
1602579512567,196,-0.3251953,-1.0913696,-0.0049438477
1602579512645,197,-0.2854004,-0.96954346,-0.02178955
1602579512724,198,-0.13256836,-0.9175415,0.12957764
1602579512803,199,0.07714844,-0.9199829,0.17327881
1602579512882,200,-0.171875,-1.0264282,0.33880615
1602579512960,201,-0.32495117,-0.9993286,0.2111206
1602579513039,202,-0.31591797,-0.97540283,0.2514038
1602579513118,203,-0.18066406,-0.975647,0.24017334
1602579513197,204,-0.20166016,-0.9927368,0.27508545
1602579513275,205,-0.22070312,-0.9768677,0.29608154
1602579513354,206,-0.1887207,-0.9932251,0.2921753
1602579513433,207,-0.16552734,-0.9961548,0.2321167
1602579513512,208,-0.18017578,-0.99664307,0.20501709
1602579513590,209,-0.19458008,-1.0151978,0.19525146
1602579513669,210,-0.20727539,-0.9993286,0.1293335
1602579513748,211,-0.21020508,-1.0203247,0.09979248
1602579513827,212,-0.16772461,-1.0213013,0.12591553
1602579513905,213,-0.13085938,-1.0278931,0.11810303
1602579513984,214,-0.14013672,-1.0371704,0.10882568
1602579514063,215,-0.19238281,-1.0391235,0.13568115
1602579514142,216,-0.2211914,-1.0440063,0.07537842
1602579514220,217,-0.2553711,-1.0188599,0.03363037
1602579514299,218,-0.15454102,-0.9221802,-0.17852783
1602579514378,219,-0.28808594,-1.0315552,-0.08868408
1602579514457,220,-0.06982422,-1.100647,0.053649902
1602579514535,221,-0.02709961,-1.0484009,0.05682373
1602579514614,222,0.040527344,-1.0396118,-0.12213135
1602579514693,223,-0.09667969,-1.0442505,0.046813965
1602579514772,224,0.03125,-1.0535278,-0.02130127
1602579514850,225,-7.324219E-4,-1.0493774,0.0033569336
1602579514929,226,0.017333984,-1.0462036,-0.06378174
1602579515008,227,-0.06616211,-1.0449829,-0.030334473
1602579515087,228,-0.1184082,-1.0254517,0.0072631836
1602579515165,229,-0.08642578,-1.0303345,0.04559326
1602579515244,230,-0.04663086,-1.0332642,0.05609131
1602579515323,231,-0.13330078,-1.0654907,0.05291748
1602579515402,232,-0.16674805,-1.0095825,0.14593506
1602579515480,233,-0.13354492,-0.96832275,0.10272217
1602579515559,234,-0.14477539,-1.0134888,0.14202881
1602579515638,235,-0.12939453,-1.0130005,0.078063965
1602579515717,236,-0.23754883,-1.0862427,0.12664795
1602579515795,237,-0.24707031,-0.9846802,0.113708496
1602579515874,238,-0.076171875,-1.0562134,0.1461792
1602579515953,239,-0.1237793,-1.0037231,0.12957764
1602579516032,240,-0.115234375,-1.0261841,0.10345459
1602579516110,241,-0.12207031,-1.0244751,0.051940918
1602579516189,242,-0.15063477,-1.0342407,0.081970215
1602579516268,243,-0.20410156,-1.0266724,0.03704834
1602579516347,244,-0.17089844,-1.0291138,0.04925537
1602579516425,245,-0.20605469,-1.0137329,0.086120605
1602579516504,246,-0.12890625,-1.0493774,0.11444092
1602579516583,247,-0.18066406,-1.0567017,0.07635498
1602579516662,248,-0.18457031,-0.96661377,-0.09991455
1602579516740,249,-0.22338867,-0.9475708,-0.25177002
1602579516819,250,-0.25390625,-1.0671997,-0.19659424
1602579516898,251,-0.20581055,-1.2634888,0.33685303
1602579516977,252,0.29052734,-0.9883423,-0.1116333
1602579517055,253,-0.16088867,-1.0359497,0.097839355
1602579517134,254,-0.10498047,-1.0733032,9.1552734E-4
1602579517213,255,-0.018066406,-1.0020142,-0.023254395
1602579517292,256,0.1616211,-0.93951416,0.022888184
1602579517370,257,0.0036621094,-1.0842896,0.10296631
1602579517449,258,-0.026855469,-1.0386353,-0.027893066
1602579517528,259,-0.008544922,-1.0442505,-0.00982666
1602579517607,260,-0.047607422,-1.0598755,-0.07965088
1602579517685,261,-0.12719727,-1.0491333,-0.03302002
1602579517764,262,-0.030029297,-1.0396118,0.0028686523
1602579517843,263,0.0014648438,-1.0276489,0.028259277
1602579517922,264,-0.0036621094,-1.0408325,0.020935059
1602579518000,265,-0.010986328,-1.0266724,0.03778076
1602579518079,266,0.043701172,-1.0413208,0.020202637
1602579518158,267,-0.0703125,-1.0466919,0.007019043
1602579518237,268,-9.765625E-4,-1.029602,0.014099121
1602579518315,269,0.030273438,-1.0308228,0.027038574
1602579518394,270,-0.01953125,-1.0298462,0.055603027
1602579518473,271,-0.016113281,-1.0515747,0.050964355
1602579518552,272,-0.12060547,-1.0493774,0.105163574
1602579518630,273,-0.14331055,-1.0769653,0.15228271
1602579518709,274,-0.09838867,-1.0637817,0.109558105
1602579518788,275,-0.05029297,-1.0274048,0.13079834
1602579518867,276,-0.009521484,-1.034729,0.15081787
1602579518945,277,-0.12084961,-0.93951416,0.21820068
1602579519024,278,-0.052246094,-0.9697876,0.2423706
1602579519103,279,0.048339844,-0.9439087,0.2374878
1602579519182,280,0.05517578,-0.9661255,0.27947998
1602579519260,281,0.07470703,-0.9819946,0.30389404
1602579519339,282,-0.017333984,-1.0449829,0.23822021
1602579519418,283,-0.15991211,-1.0342407,0.10760498
1602579519497,284,-0.021240234,-1.0628052,-0.03302002
1602579519575,285,-0.076171875,-1.039856,-0.006164551
1602579519654,286,-0.056396484,-1.0425415,0.00579834
1602579519733,287,0.027832031,-1.0420532,0.0119018555
1602579519812,288,-0.044921875,-1.0447388,0.016052246
1602579519890,289,-0.03930664,-1.0315552,0.050476074
1602579519969,290,0.0087890625,-1.0369263,0.01361084
1602579520048,291,-0.0053710938,-1.0437622,0.01776123
1602579520127,292,-0.01953125,-1.0369263,0.0036010742
1602579520205,293,0.0024414062,-1.0396118,-0.046936035
1602579520284,294,-0.011962891,-1.0733032,-0.043762207
1602579520363,295,-0.057617188,-1.0874634,-0.066223145
1602579520442,296,-0.16357422,-1.034729,-0.0635376
1602579520520,297,-0.15112305,-1.0493774,-0.06085205
1602579520599,298,-0.17504883,-1.0315552,-0.03302002
1602579520678,299,-0.18554688,-0.9883423,-0.014709473
1602579520757,300,-0.24951172,-1.0310669,-0.016174316
1602579520835,301,-0.2644043,-1.0361938,-0.023498535
1602579520914,302,-0.21899414,-1.0032349,-0.0178833
1602579520993,303,-0.20214844,-0.9846802,-0.010070801
1602579521072,304,-0.22241211,-1.0115356,-0.014221191
1602579521150,305,-0.2265625,-1.0183716,-0.010803223
1602579521229,306,-0.23754883,-1.0147095,-0.024719238
1602579521308,307,-0.20458984,-1.0298462,-0.026916504
1602579521387,308,-0.22338867,-1.0217896,-0.002746582
1602579521465,309,-0.1953125,-1.0120239,-0.0178833
1602579521544,310,-0.19995117,-1.0049438,-0.020080566
1602579521623,311,-0.17749023,-1.0271606,-0.011047363
1602579521702,312,-0.19750977,-1.0474243,-0.024963379
1602579521780,313,-0.20898438,-1.041565,-0.044006348
1602579521859,314,-0.13842773,-1.024231,-0.054504395
1602579521938,315,-0.15039062,-1.0042114,-0.08306885
1602579522017,316,-0.16235352,-1.0613403,-0.06744385
1602579522095,317,-0.123291016,-1.0481567,-0.05645752
1602579522174,318,-0.10107422,-1.0689087,-0.035217285
1602579522253,319,-0.009277344,-1.0418091,-0.06939697
1602579522332,320,-0.046875,-1.0505981,-0.06768799
1602579522424,321,-0.025390625,-1.0435181,-0.09503174
1602579522517,322,-0.07299805,-1.0315552,-0.09454346
1602579522610,323,-0.068603516,-1.0391235,-0.066223145
1602579522702,324,-0.06933594,-1.0354614,-0.04156494
1602579522795,325,-0.012207031,-1.0484009,-0.019836426
1602579522888,326,-0.034179688,-1.0244751,-0.04107666
1602579522981,327,-0.15917969,-1.0252075,0.038757324
1602579523073,328,-0.22363281,-1.0442505,0.018249512
1602579523166,329,-0.19213867,-1.0352173,0.061950684
1602579523259,330,-0.15600586,-0.975647,0.19451904
1602579523351,331,-0.16333008,-1.0266724,0.22332764
1602579523444,332,-0.12792969,-0.9446411,0.3300171
1602579523537,333,-0.1940918,-0.8616333,0.41912842
1602579523630,334,-0.19482422,-1.0022583,0.3986206
1602579523722,335,-0.23803711,-0.991272,0.30194092
1602579523815,336,-0.11816406,-1.003479,0.19158936
1602579523908,337,-0.15844727,-1.0232544,0.16033936
1602579524000,338,-0.16625977,-1.0044556,0.14520264
1602579524093,339,-0.12646484,-1.0291138,0.12786865
1602579524186,340,-0.09814453,-1.0003052,0.14691162
1602579524279,341,-0.059570312,-1.0217896,0.11785889
1602579524371,342,-0.041748047,-1.0339966,0.07244873
1602579524464,343,-0.07373047,-1.0408325,0.03753662
1602579524557,344,-0.0703125,-1.0401001,0.003112793
1602579524649,345,-0.10546875,-1.0444946,-0.008117676
1602579524742,346,-0.11816406,-1.0432739,-0.042297363
1602579524835,347,-0.11279297,-1.0422974,-0.045715332
1602579524928,348,-0.084472656,-1.0449829,-0.037902832
1602579525020,349,-0.12524414,-1.0359497,-0.05230713
1602579525113,350,-0.15429688,-1.0332642,-0.058166504
1602579525206,351,-0.1159668,-1.0410767,-0.05718994
1602579525299,352,-0.056396484,-1.0442505,-0.031799316
1602579525377,353,-0.048095703,-1.0410767,0.0036010742
1602579525456,354,-0.015625,-1.0430298,-0.02178955
1602579525535,355,-0.01928711,-1.0476685,-0.02178955
1602579525614,356,-0.06298828,-1.0530396,-0.026672363
1602579525692,357,-0.08325195,-1.0442505,0.010925293
1602579525771,358,-0.10449219,-1.0222778,0.06097412
1602579525850,359,-0.016845703,-1.0479126,-0.0025024414
1602579525929,360,-0.07348633,-1.036438,-0.0256958
1602579526007,361,-0.14501953,-1.0361938,0.03729248
1602579526086,362,-0.083496094,-1.0371704,0.034606934
1602579526165,363,-0.080566406,-1.0286255,0.08050537
1602579526244,364,-0.06665039,-1.0298462,0.08441162
1602579526322,365,-0.08886719,-1.024231,0.06903076
1602579526401,366,-0.09082031,-1.0227661,0.1251831
1602579526480,367,-0.092041016,-1.0271606,0.20159912
1602579526559,368,-0.08569336,-1.0825806,0.2675171
1602579526637,369,0.047851562,-1.0466919,0.2086792
1602579526716,370,0.028564453,-1.0610962,0.14886475
1602579526795,371,-0.001953125,-0.97540283,0.24700928
1602579526874,372,0.047851562,-0.9932251,0.3012085
1602579526952,373,0.012451172,-0.9067993,0.3390503
1602579527031,374,0.053466797,-0.8411255,0.3234253
1602579527110,375,0.07006836,-0.84039307,0.3361206
1602579527189,376,0.08691406,-0.92974854,0.34954834
1602579527267,377,0.03564453,-0.94732666,0.31414795
1602579527346,378,0.041503906,-1.0071411,0.34002686
1602579527425,379,0.10961914,-0.96173096,0.32684326
1602579527504,380,0.07861328,-0.9956665,0.13616943
1602579527582,381,0.057128906,-1.1589966,0.04559326
1602579527661,382,-0.107177734,-1.0349731,0.15887451
1602579527740,383,-0.39624023,-1.0662231,-0.6658325
1602579527819,384,-0.01928711,-1.02594,-0.047912598
1602579527897,385,-0.18579102,-1.0234985,-0.003967285
1602579527976,386,-0.37841797,-0.9951782,-0.094055176
1602579528055,387,-0.19360352,-1.060852,-0.023254395
1602579528134,388,-0.15112305,-1.048645,-0.0134887695
1602579528212,389,-0.21826172,-0.9939575,-0.06011963
1602579528291,390,-0.032226562,-1.0518188,-0.043029785
1602579528370,391,-0.08862305,-1.0147095,-0.08868408
1602579528449,392,-0.06958008,-1.0567017,-0.0095825195
1602579528527,393,-0.045654297,-1.0984497,0.093444824
1602579528606,394,-0.01586914,-1.0186157,0.07318115
1602579528685,395,-0.15332031,-1.0215454,0.06561279
1602579528764,396,-0.19140625,-1.0159302,0.08905029
1602579528842,397,-0.15258789,-1.0283813,0.03704834
1602579528921,398,-0.21069336,-1.0195923,0.023620605
1602579529000,399,-0.17480469,-1.0288696,0.005554199
1602579529079,400,-0.19750977,-1.0237427,0.0289917
1602579529157,401,-0.19433594,-1.0247192,-0.027893066
1602579529236,402,-0.2121582,-1.0254517,0.018981934
1602579529315,403,-0.16259766,-1.0344849,-0.016662598
1602579529394,404,-0.1850586,-1.0403442,-0.0256958
1602579529472,405,-0.17480469,-1.0430298,-0.05718994
1602579529551,406,-0.115722656,-1.0383911,-0.050598145
1602579529630,407,-0.1105957,-1.0247192,-0.07965088
1602579529709,408,-0.08886719,-1.0308228,-0.09429932
1602579529787,409,-0.103515625,-1.0310669,-0.070129395
1602579529866,410,-0.08862305,-1.0420532,-0.07696533
1602579529945,411,-0.09399414,-1.0354614,-0.06866455
1602579530024,412,-0.088134766,-1.0413208,-0.08673096
1602579530102,413,-0.0793457,-1.0371704,-0.09112549
1602579530181,414,-0.09423828,-1.02594,-0.10772705
1602579530260,415,-0.099609375,-1.0413208,-0.11236572
1602579530339,416,-0.083496094,-1.0374146,-0.105285645
1602579530417,417,-0.076171875,-1.0462036,-0.08868408
1602579530496,418,-0.07470703,-1.0410767,-0.09869385
1602579530575,419,-0.05834961,-1.0559692,-0.11773682
1602579530654,420,-0.100097656,-1.0147095,-0.14117432
1602579530732,421,-0.06958008,-1.0278931,-0.066467285
1602579530811,422,-0.10424805,-1.0449829,-0.012512207
1602579530890,423,-0.09375,-1.0474243,0.026062012
1602579530969,424,-0.06591797,-1.02594,-0.0032348633
1602579531047,425,-0.14770508,-1.0401001,-0.013244629
1602579531126,426,-0.1472168,-1.0327759,-0.00592041
1602579531205,427,-0.11987305,-1.0352173,0.018981934
1602579531284,428,-0.12988281,-1.034729,0.015075684
1602579531362,429,-0.12060547,-1.0352173,0.011657715
1602579531441,430,-0.08642578,-1.0337524,-0.011291504
1602579531520,431,-0.12719727,-1.0361938,0.016784668
1602579531599,432,-0.08154297,-1.0403442,0.02923584
1602579531677,433,-0.08642578,-1.0379028,0.022399902
1602579531756,434,-0.07128906,-1.0374146,-0.010070801
1602579531835,435,-0.07885742,-1.0357056,-0.0413208
1602579531914,436,-0.0043945312,-1.0374146,-0.06939697
1602579531992,437,-0.041015625,-1.0379028,-0.085510254
1602579532071,438,-0.10839844,-1.0552368,-0.14581299
1602579532150,439,-0.21801758,-1.0413208,-0.18585205
1602579532229,440,-0.111572266,-1.0413208,-0.1675415
1602579532307,441,-0.037353516,-1.029602,-0.0713501
1602579532386,442,0.042236328,-1.0376587,0.004333496
1602579532465,443,0.095214844,-1.0322876,0.014099121
1602579532544,444,0.0056152344,-1.0408325,-0.008850098
1602579532622,445,-0.027832031,-1.0344849,-0.029846191
1602579532701,446,-0.06982422,-1.0386353,-0.012756348
1602579532780,447,-0.087402344,-1.0386353,-0.018615723
1602579532859,448,-0.061767578,-1.0435181,-0.010803223
1602579532937,449,-0.033203125,-1.038147,-0.013000488
1602579533016,450,-0.07421875,-1.0344849,-0.028381348
1602579533095,451,-0.09423828,-1.0432739,-0.02911377
1602579533174,452,-0.09790039,-1.0366821,-0.038146973
1602579533252,453,-0.09375,-1.038147,-0.024963379
1602579533331,454,-0.06713867,-1.0440063,-0.013000488
1602579533410,455,-0.06640625,-1.0361938,-0.034729004
1602579533489,456,-0.08105469,-1.0442505,-0.035949707
1602579533567,457,-0.07104492,-1.046936,-0.023254395
1602579533646,458,-0.08203125,-1.0447388,-0.040100098
1602579533725,459,-0.09350586,-1.0335083,-0.077697754
1602579533804,460,-0.05810547,-1.0195923,-0.027648926
1602579533882,461,-0.052490234,-1.0686646,0.09637451
1602579533961,462,-0.16845703,-1.0464478,-0.06549072
1602579534040,463,-0.123046875,-1.1160278,-0.1741333
1602579534119,464,-0.23242188,-1.1026001,0.19866943
1602579534197,465,0.018066406,-1.0603638,0.23236084
1602579534276,466,0.026611328,-0.87213135,0.17791748
1602579534355,467,-0.13012695,-0.8115845,0.23480225
1602579534434,468,-0.1616211,-0.9944458,0.26312256
1602579534512,469,-0.107421875,-1.0484009,0.23040771
1602579534591,470,-0.21533203,-0.9458618,0.2694702
1602579534670,471,-0.3149414,-0.93756104,0.3131714
1602579534749,472,-0.38208008,-0.8789673,0.4406128
1602579534827,473,-0.42285156,-0.9573364,0.27288818
1602579534906,474,-0.33374023,-1.1829224,0.22869873
1602579534985,475,0.12524414,-1.0154419,0.05218506
1602579535064,476,-0.07910156,-1.0293579,0.15008545
1602579535142,477,-0.16259766,-1.0064087,0.20013428
1602579535221,478,-0.20092773,-0.97540283,0.26434326
1602579535300,479,-0.15405273,-0.98883057,0.2062378
1602579535379,480,-0.22436523,-0.98321533,0.18743896
1602579535470,481,-0.056152344,-1.0352173,0.16693115
1602579535561,482,0.0031738281,-1.0847778,0.12200928
1602579535652,483,-0.22314453,-1.038147,0.11199951
1602579535744,484,-0.16748047,-0.99346924,0.024353027
1602579535835,485,-0.10253906,-1.0581665,-0.03253174
1602579535926,486,-0.123046875,-1.029602,0.0524292
1602579536017,487,-0.017333984,-1.0464478,0.038757324
1602579536109,488,-0.1027832,-1.038147,0.08441162
1602579536200,489,-0.1809082,-1.0466919,0.16326904
1602579536291,490,-0.19091797,-1.1638794,0.28045654
1602579536383,491,-0.10571289,-0.87628174,0.2723999
1602579536474,492,-0.02368164,-0.72003174,0.28778076
1602579536565,493,-0.17871094,-0.9331665,0.34197998
1602579536656,494,-0.4345703,-0.9846802,0.40618896
1602579536748,495,-0.11010742,-1.1323853,0.06365967
1602579536839,496,0.037353516,-1.0757446,0.026550293
1602579536930,497,0.008056641,-1.0501099,0.01361084
1602579537022,498,-0.17480469,-1.024231,-0.015686035
1602579537113,499,-0.14648438,-1.0352173,0.066833496
1602579537204,500,-0.12133789,-1.048645,0.073913574
1602579537295,501,-0.21240234,-1.0496216,0.07342529
1602579537387,502,-0.24487305,-1.0847778,0.18377686
1602579537478,503,-0.18652344,-0.96295166,0.13250732
1602579537569,504,-0.17089844,-0.956604,0.26727295
1602579537661,505,-0.25317383,-0.96221924,0.20428467
1602579537752,506,-0.32617188,-0.87701416,0.28289795
1602579537843,507,-0.5070801,-0.8545532,0.3456421
1602579537934,508,-0.44384766,-0.8718872,0.26068115
1602579538026,509,-0.37719727,-1.1155396,0.18621826
1602579538117,510,-0.30908203,-0.9829712,0.055603027
1602579538208,511,-0.1081543,-1.0210571,-0.11529541
1602579538300,512,0.030029297,-1.0645142,-0.059631348
1602579538378,513,-0.11694336,-0.9846802,0.07757568
1602579538457,514,0.063964844,-1.0256958,0.026306152
1602579538536,515,-0.052978516,-1.0220337,-0.031311035
1602579538615,516,0.064941406,-1.0369263,-0.0134887695
1602579538693,517,0.06762695,-1.1047974,0.12591553
1602579538772,518,0.15161133,-1.2141724,0.040222168
1602579538851,519,-0.31420898,-1.2632446,0.13006592
1602579538930,520,0.11450195,-1.3674927,-0.19366455
1602579539008,521,-0.0637207,-0.99591064,0.08343506
1602579539087,522,-0.044677734,-0.64434814,0.03265381
1602579539166,523,-0.15307617,-0.7817993,0.066101074
1602579539245,524,-0.36743164,-1.0779419,0.4779663
1602579539323,525,-0.41308594,-0.99468994,0.04852295
1602579539402,526,-0.20629883,-1.2510376,0.20794678
1602579539481,527,-0.0769043,-0.8867798,0.15960693
1602579539560,528,-7.324219E-4,-1.0256958,0.23919678
1602579539638,529,-0.13769531,-1.0122681,0.19989014
1602579539717,530,-0.09106445,-1.0098267,0.19329834
1602579539796,531,-0.07836914,-1.0151978,0.16864014
1602579539875,532,-0.110839844,-1.0144653,0.18914795
1602579539953,533,-0.087646484,-1.019104,0.17010498
1602579540032,534,-0.107910156,-1.0166626,0.17596436
1602579540111,535,-0.14111328,-1.006897,0.18670654
1602579540190,536,-0.10986328,-1.0134888,0.18841553
1602579540268,537,-0.12084961,-1.017395,0.19110107
1602579540347,538,-0.11743164,-1.0110474,0.19793701
1602579540426,539,-0.10620117,-1.0134888,0.199646
1602579540505,540,-0.10644531,-1.0108032,0.20233154
1602579540583,541,-0.1303711,-1.0093384,0.19720459
1602579540662,542,-0.1262207,-1.0105591,0.18817139
1602579540741,543,-0.13452148,-1.0151978,0.19354248
1602579540820,544,-0.10058594,-1.0266724,0.15838623
1602579540898,545,-0.14331055,-1.010315,0.14398193
1602579540977,546,-0.118896484,-1.0200806,0.14202881
1602579541056,547,-0.07861328,-1.0217896,0.15203857
1602579541135,548,-0.076171875,-1.0344849,0.11199951
1602579541213,549,-0.17358398,-1.0491333,0.11834717
1602579541292,550,-0.19604492,-1.0098267,0.08465576
1602579541371,551,-0.13061523,-1.0276489,0.13861084
1602579541450,552,-0.19384766,-0.9800415,0.3234253
1602579541528,553,-0.19726562,-0.94366455,0.2321167
1602579541607,554,-0.33813477,-0.9829712,0.14300537
1602579541686,555,-0.19213867,-1.0505981,0.066589355
1602579541765,556,0.044433594,-1.03302,0.07171631
1602579541843,557,-0.09667969,-1.0110474,0.18011475
1602579541922,558,0.08691406,-1.0198364,0.06536865
1602579542001,559,0.060058594,-1.0349731,-0.023254395
1602579542080,560,0.037109375,-1.0945435,-0.059631348
1602579542158,561,0.06665039,-1.2854614,0.13641357
1602579542237,562,-0.123046875,-1.0122681,0.18890381
1602579542316,563,-0.10888672,-1.1738892,-0.08013916
1602579542395,564,-0.31835938,-1.1851196,-0.045959473
1602579542473,565,0.072021484,-1.1213989,0.08782959
1602579542552,566,-0.16625977,-0.79278564,0.10101318
1602579542631,567,-0.21240234,-0.6189575,0.15179443
1602579542710,568,-0.029541016,-0.80255127,0.35272217
1602579542788,569,-0.06762695,-1.3079224,0.59295654
1602579542867,570,-0.1640625,-0.98883057,0.5831909
1602579542946,571,-0.09350586,-1.2180786,-0.24761963
1602579543025,572,-0.10498047,-1.0427856,-0.2078247
1602579543103,573,0.060058594,-1.1038208,0.050720215
1602579543182,574,-0.091308594,-0.96051025,0.05706787
1602579543261,575,0.12109375,-1.1206665,0.058532715
1602579543340,576,-0.009765625,-1.0200806,0.10345459
1602579543418,577,0.041015625,-1.0401001,0.029724121
1602579543497,578,-0.033691406,-1.0410767,0.029724121
1602579543576,579,-0.07397461,-1.0701294,0.036071777
1602579543655,580,-0.26464844,-1.0567017,0.08026123
1602579543733,581,-0.21948242,-0.99102783,0.098083496
1602579543812,582,-0.14575195,-0.99957275,0.26312256
1602579543891,583,-0.107666016,-0.99053955,0.070495605
1602579543970,584,-0.25585938,-0.99005127,0.1317749
1602579544048,585,-0.21606445,-1.0178833,0.11810303
1602579544127,586,-0.28686523,-1.0518188,0.15106201
1602579544206,587,-0.122802734,-1.0842896,0.17010498
1602579544285,588,-0.14208984,-1.000061,0.18304443
1602579544363,589,-0.09057617,-0.95758057,0.2531128
1602579544442,590,-0.114990234,-0.9273071,0.2723999
1602579544521,591,-0.09643555,-0.8936157,0.28607178
1602579544600,592,-0.06298828,-0.91412354,0.29241943
1602579544678,593,-0.017578125,-0.9607544,0.28338623
1602579544757,594,0.019042969,-1.0076294,0.29730225
1602579544836,595,0.123046875,-0.99884033,0.3685913
1602579544915,596,9.765625E-4,-0.98101807,0.23114014
1602579544993,597,-0.29882812,-1.248352,0.21087646
1602579545072,598,0.03564453,-0.9192505,-0.09869385
1602579545151,599,-0.050048828,-1.0327759,-0.02960205
1602579545230,600,-0.10595703,-1.0803833,-0.02960205
1602579545308,601,-0.05078125,-1.0481567,-0.04034424
1602579545387,602,-0.08105469,-1.036438,0.020690918
1602579545466,603,9.765625E-4,-1.0479126,-0.028381348
1602579545545,604,-0.056884766,-1.0403442,0.038024902
1602579545623,605,-0.02319336,-1.0339966,0.06536865
1602579545702,606,-0.010253906,-1.0264282,0.022155762
1602579545781,607,-0.037353516,-1.0193481,0.08392334
1602579545860,608,-0.0087890625,-0.99224854,0.14959717
1602579545938,609,0.07055664,-1.2061157,0.11053467
1602579546017,610,0.018798828,-1.2988892,0.14007568
1602579546096,611,-0.19702148,-1.1304321,0.14154053
1602579546175,612,-0.15258789,-1.0422974,0.27166748
1602579546253,613,0.0048828125,-0.7642212,0.32147217
1602579546332,614,-0.024902344,-0.69854736,0.5265503
1602579546411,615,-0.0061035156,-0.69195557,0.62005615
1602579546490,616,-0.11767578,-0.68414307,0.5717163
1602579546568,617,-0.39208984,-0.71221924,0.3859253
1602579546647,618,-0.5402832,-0.7632446,0.22991943
1602579546726,619,-0.40014648,-1.2283325,0.20233154
1602579546805,620,-0.47924805,-1.138977,0.13079834
1602579546883,621,0.07836914,-1.1235962,0.0072631836
1602579546962,622,0.07373047,-1.0391235,-0.13970947
1602579547041,623,-0.0073242188,-1.0108032,-3.0517578E-4
1602579547120,624,0.114990234,-0.99468994,0.04510498
1602579547198,625,-0.023925781,-1.0327759,0.16766357
1602579547277,626,-0.041992188,-1.0210571,0.09222412
1602579547356,627,-0.03125,-1.0176392,0.0072631836
1602579547435,628,-0.21801758,-1.005188,0.17962646
1602579547513,629,0.03955078,-1.0303345,0.16156006
1602579547592,630,-0.12646484,-1.4573364,0.070739746
1602579547671,631,7.324219E-4,-1.1531372,0.117126465
1602579547750,632,0.03491211,-0.79229736,0.09442139
1602579547828,633,-0.11767578,-0.8023071,-0.02545166
1602579547907,634,-0.43481445,-1.0501099,0.14398193
1602579547986,635,-0.45336914,-1.196106,-0.15899658
1602579548065,636,0.047851562,-0.98321533,0.01727295
1602579548143,637,-0.001953125,-1.0671997,-0.05645752
1602579548222,638,-0.02758789,-1.038147,-0.0154418945
1602579548301,639,0.029296875,-1.060852,0.027526855
1602579548380,640,0.009277344,-1.0476685,-0.04425049
1602579548458,641,-0.072265625,-1.0278931,-0.035217285
1602579548537,642,-0.025146484,-1.039856,-0.07281494
1602579548616,643,-0.026855469,-1.0488892,-0.047180176
1602579548695,644,-0.048339844,-1.0410767,-0.07623291
1602579548773,645,-0.04638672,-1.0413208,-0.09063721
1602579548852,646,-0.06542969,-1.0308228,-0.057678223
1602579548931,647,-0.09350586,-1.0371704,-0.04425049
1602579549010,648,-0.09887695,-1.0369263,-0.03253174
1602579549088,649,-0.07006836,-1.038147,-0.022033691
1602579549167,650,-0.125,-1.0379028,-0.05670166
1602579549246,651,-0.12524414,-1.0386353,-0.055480957
1602579549325,652,-0.09643555,-1.0374146,-0.043518066
1602579549403,653,-0.09423828,-1.0300903,-0.010559082
1602579549482,654,-0.038085938,-1.0371704,-0.012023926
1602579549561,655,-0.09643555,-1.0371704,-0.03326416
1602579549640,656,-0.12133789,-1.0413208,-0.06109619
1602579549718,657,-0.13183594,-1.034729,-0.06915283
1602579549797,658,-0.13061523,-1.0418091,-0.06085205
1602579549876,659,-0.1394043,-1.0427856,-0.0569458
1602579549955,660,-0.12670898,-1.0371704,-0.05279541
1602579550033,661,-0.09790039,-1.0386353,-0.045715332
1602579550112,662,-0.0793457,-1.0342407,-0.04815674
1602579550191,663,-0.10058594,-1.0379028,-0.039123535
1602579550270,664,-0.091552734,-1.0349731,-0.0335083
1602579550348,665,-0.12109375,-1.0366821,-0.03375244
1602579550427,666,-0.12548828,-1.0352173,-0.043762207
1602579550506,667,-0.12109375,-1.0413208,-0.030090332
1602579550585,668,-0.13330078,-1.0310669,-0.04107666
1602579550663,669,-0.115234375,-1.0315552,-0.032287598
1602579550742,670,-0.1003418,-1.0315552,-0.0134887695
1602579550821,671,-0.08251953,-1.036438,-0.014953613
1602579550900,672,-0.11279297,-1.0335083,-0.04498291
1602579550978,673,-0.09692383,-1.0508423,-0.070129395
1602579551057,674,-0.123046875,-1.0339966,-0.07305908
1602579551136,675,-0.075683594,-1.045227,-0.041809082
1602579551215,676,-0.05053711,-1.0418091,-0.03302002
1602579551293,677,-0.056152344,-1.0379028,-0.051086426
1602579551372,678,-0.07836914,-1.0342407,-0.05255127
1602579551451,679,-0.083740234,-1.0449829,-0.043762207
1602579551530,680,-0.119384766,-1.0523071,-0.066467285
1602579551608,681,-0.092285156,-1.0471802,-0.04840088
1602579551687,682,-0.07763672,-1.0166626,-0.05645752
1602579551766,683,-0.0146484375,-1.0064087,0.05731201
1602579551845,684,0.026611328,-1.0496216,0.038024902
1602579551923,685,-0.09790039,-1.048645,-0.03253174
1602579552002,686,-0.07421875,-1.0332642,-0.07574463
1602579552081,687,-0.079589844,-1.0447388,-0.043029785
1602579552160,688,-0.060302734,-1.0393677,-0.032043457
1602579552238,689,-0.057861328,-1.0354614,-0.01763916
1602579552317,690,-0.07763672,-1.0379028,-0.035217285
1602579552396,691,-0.09472656,-1.0401001,-0.04058838
1602579552475,692,-0.064208984,-1.0405884,-0.035217285
1602579552553,693,-0.06225586,-1.0332642,-0.031066895
1602579552632,694,-0.053466797,-1.0447388,-0.03253174
1602579552711,695,-0.06762695,-1.0408325,-0.05279541
1602579552790,696,-0.064941406,-1.0376587,-0.051574707
1602579552868,697,-0.055664062,-1.0361938,-0.06109619
1602579552947,698,-0.071777344,-1.0403442,-0.05230713
1602579553026,699,-0.0625,-1.0379028,-0.05328369
1602579553105,700,-0.0859375,-1.0410767,-0.06744385
1602579553183,701,-0.09667969,-1.0383911,-0.059631348
1602579553262,702,-0.053710938,-1.0371704,-0.04034424
1602579553341,703,-0.041992188,-1.0371704,-0.026672363
1602579553420,704,-0.06713867,-1.0427856,-0.045959473
1602579553498,705,-0.099609375,-1.0383911,-0.07208252
1602579553577,706,-0.091796875,-1.0457153,-0.074035645
1602579553656,707,-0.068847656,-1.0371704,-0.074523926
1602579553735,708,-0.045654297,-1.0352173,-0.06011963
1602579553813,709,-0.013183594,-1.0410767,-0.034729004
1602579553892,710,-0.0769043,-1.0369263,-0.04888916
1602579553971,711,-0.09326172,-1.0405884,-0.08331299
1602579554050,712,-0.08618164,-1.0413208,-0.07208252
1602579554128,713,-0.056396484,-1.0408325,-0.059387207
1602579554207,714,-0.060546875,-1.0354614,-0.065979004
1602579554286,715,-0.063964844,-1.0371704,-0.06451416
1602579554365,716,-0.05053711,-1.036438,-0.059631348
1602579554443,717,-0.068359375,-1.0386353,-0.061584473
1602579554522,718,-0.08276367,-1.0405884,-0.05621338
1602579554601,719,-0.0859375,-1.0379028,-0.047180176
1602579554680,720,-0.056640625,-1.0403442,-0.046203613
1602579554758,721,-0.037841797,-1.0371704,-0.042297363
1602579554837,722,-0.05517578,-1.0391235,-0.045715332
1602579554916,723,-0.0625,-1.0386353,-0.051330566
1602579554995,724,-0.068847656,-1.0418091,-0.049865723
1602579555073,725,-0.07446289,-1.0371704,-0.045959473
1602579555152,726,-0.06347656,-1.036438,-0.040100098
1602579555231,727,-0.07910156,-1.0383911,-0.039123535
1602579555310,728,-0.061035156,-1.0371704,-0.042053223
1602579555388,729,-0.05102539,-1.0393677,-0.042297363
1602579555467,730,-0.053710938,-1.0359497,-0.043029785
1602579555546,731,-0.051513672,-1.0379028,-0.036193848
1602579555625,732,-0.056396484,-1.0388794,-0.049865723
1602579555703,733,-0.072509766,-1.0447388,-0.057434082
1602579555782,734,-0.0703125,-1.041565,-0.07305908
1602579555861,735,-0.055664062,-1.0361938,-0.062072754
1602579555940,736,-0.039794922,-1.039856,-0.035705566
1602579556032,737,-0.048583984,-1.0352173,-0.04547119
1602579556124,738,-0.05493164,-1.0359497,-0.038879395
1602579556217,739,-0.061767578,-1.0361938,-0.032287598
1602579556309,740,-0.088134766,-1.0393677,-0.054504395
1602579556402,741,-0.06567383,-1.0388794,-0.06329346
1602579556494,742,-0.0126953125,-1.034729,-0.053771973
1602579556587,743,-0.033691406,-1.038147,-0.039611816
1602579556679,744,-0.06713867,-1.0413208,-0.04840088
1602579556771,745,-0.049804688,-1.0457153,-0.0569458
1602579556864,746,-0.013427734,-1.0317993,-0.045959473
1602579556956,747,-0.01171875,-1.036438,-0.053527832
1602579557049,748,-0.056396484,-1.0427856,-0.070129395
1602579557141,749,-0.033203125,-1.0442505,-0.057678223
1602579557234,750,-0.013916016,-1.038147,-0.05206299
1602579557326,751,-0.04248047,-1.0357056,-0.06719971
1602579557419,752,-0.055908203,-1.0422974,-0.06524658
1602579557511,753,-0.037597656,-1.0388794,-0.06109619
1602579557603,754,-0.024169922,-1.0410767,-0.043762207
1602579557696,755,-0.017822266,-1.0361938,-0.047668457
1602579557788,756,-0.019042969,-1.0420532,-0.04473877
1602579557881,757,0.014160156,-1.0371704,-0.06573486
1602579557973,758,-0.045654297,-1.0374146,-0.07525635
1602579558066,759,-0.07348633,-1.0459595,-0.085998535
1602579558158,760,-0.06933594,-1.0386353,-0.07305908
1602579558250,761,0.0078125,-1.0357056,-0.05279541
1602579558343,762,-0.03173828,-1.0354614,-0.051086426
1602579558435,763,-0.07885742,-1.0422974,-0.07232666
1602579558528,764,-0.06201172,-1.0374146,-0.07672119
1602579558620,765,-0.047851562,-1.0354614,-0.0725708
1602579558713,766,-0.023925781,-1.0440063,-0.07208252
1602579558805,767,-0.03515625,-1.0349731,-0.07330322
1602579558898,768,-0.048583984,-1.0396118,-0.06817627
1602579558976,769,-0.033203125,-1.0405884,-0.07305908
1602579559055,770,-0.052734375,-1.0374146,-0.078186035
1602579559134,771,-0.019042969,-1.0432739,-0.07989502
1602579559213,772,-0.057861328,-1.0337524,-0.08917236
1602579559291,773,-0.052001953,-1.0447388,-0.0791626
1602579559370,774,-0.029296875,-1.0374146,-0.06793213
1602579559449,775,-0.021728516,-1.0366821,-0.074035645
1602579559528,776,-0.057617188,-1.0410767,-0.081604004
1602579559606,777,-0.03466797,-1.0359497,-0.07647705
1602579559685,778,-0.024902344,-1.0374146,-0.06304932
1602579559764,779,-0.044189453,-1.0391235,-0.074035645
1602579559843,780,-0.024169922,-1.0369263,-0.07574463
1602579559921,781,-0.025634766,-1.0361938,-0.07501221
1602579560000,782,2.4414062E-4,-1.038147,-0.074279785
1602579560079,783,-0.024169922,-1.0388794,-0.06500244
1602579560158,784,-0.037841797,-1.0386353,-0.08770752
1602579560236,785,-0.06640625,-1.0405884,-0.09625244
1602579560315,786,-0.040527344,-1.0410767,-0.097229004
1602579560394,787,-0.03540039,-1.0444946,-0.082092285
1602579560473,788,-0.0126953125,-1.0386353,-0.07672119
1602579560551,789,-0.034423828,-1.0344849,-0.070373535
1602579560630,790,-0.032470703,-1.0447388,-0.077941895
1602579560709,791,-0.025878906,-1.0371704,-0.07330322
1602579560788,792,-0.030761719,-1.0371704,-0.07281494
1602579560866,793,-0.05078125,-1.0410767,-0.0803833
1602579560945,794,-0.03881836,-1.0405884,-0.06036377
1602579561024,795,-0.033447266,-1.0291138,-0.058898926
1602579561103,796,-0.02368164,-1.0374146,-0.035461426
1602579561181,797,-0.038085938,-1.0435181,-0.031555176
1602579561260,798,-0.029296875,-1.0369263,-0.04425049
1602579561339,799,-0.02734375,-1.0359497,-0.050109863
1602579561418,800,-0.050048828,-1.0413208,-0.050842285
1602579561496,801,-0.03491211,-1.0403442,-0.043029785
1602579561575,802,-0.052001953,-1.0376587,-0.04449463
1602579561654,803,-0.04345703,-1.0383911,-0.042053223
1602579561733,804,-0.052978516,-1.0371704,-0.036193848
1602579561811,805,-0.056396484,-1.0408325,-0.030090332
1602579561890,806,-0.06665039,-1.0371704,-0.045959473
1602579561969,807,-0.068847656,-1.039856,-0.038391113
1602579562048,808,-0.05493164,-1.0361938,-0.030822754
1602579562126,809,-0.044189453,-1.0374146,-0.023498535
1602579562205,810,-0.057861328,-1.0388794,-0.028137207
1602579562284,811,-0.050048828,-1.0374146,-0.030578613
1602579562363,812,-0.040527344,-1.0401001,-0.026184082
1602579562441,813,-0.05859375,-1.0396118,-0.032287598
1602579562520,814,-0.048583984,-1.0425415,-0.03741455
1602579562599,815,-0.046875,-1.034729,-0.042297363
1602579562678,816,-0.07470703,-1.0425415,-0.04888916
1602579562756,817,-0.07104492,-1.0369263,-0.04083252
1602579562835,818,-0.036865234,-1.0354614,-0.034484863
1602579562914,819,-0.046875,-1.0366821,-0.030334473
1602579562993,820,-0.04248047,-1.0320435,-0.03643799
1602579563071,821,-0.06616211,-1.031311,-0.047180176
1602579563150,822,-0.07373047,-1.0491333,-0.07232666
1602579563229,823,-0.03173828,-1.0547485,-0.09844971
1602579563308,824,-0.029541016,-1.0357056,-0.0869751
1602579563386,825,-0.06713867,-1.0454712,-0.049865723
1602579563465,826,-0.064941406,-1.0281372,-0.06451416
1602579563544,827,-0.08081055,-1.0408325,-0.054260254
1602579563623,828,-0.08227539,-1.0386353,-0.04156494
1602579563701,829,-0.049072266,-1.0332642,-0.030090332
1602579563780,830,-0.02734375,-1.0374146,-0.031311035
1602579563859,831,-0.025634766,-1.0335083,-0.041809082
1602579563938,832,-0.015136719,-1.0418091,-0.050598145
1602579564016,833,-0.012207031,-1.036438,-0.04522705
1602579564095,834,0.0063476562,-1.0371704,-0.04083252
1602579564174,835,-0.0126953125,-1.0374146,-0.028137207
1602579564253,836,-0.02319336,-1.039856,-0.051818848
1602579564331,837,-0.022216797,-1.0430298,-0.07501221
1602579564410,838,-0.0029296875,-1.0396118,-0.06695557
1602579564489,839,0.0087890625,-1.0383911,-0.034240723
1602579564568,840,0.008544922,-1.0476685,-0.053527832
1602579564646,841,-0.024169922,-1.0361938,-0.050598145
1602579564725,842,-0.0056152344,-1.0413208,-0.047668457
1602579564804,843,0.010253906,-1.039856,-0.04083252
1602579564883,844,-0.0041503906,-1.0344849,-0.047668457
1602579564961,845,-0.0234375,-1.0391235,-0.06329346
1602579565040,846,-0.032226562,-1.0425415,-0.070617676
1602579565119,847,0.0024414062,-1.0371704,-0.06085205
1602579565198,848,0.0053710938,-1.0308228,-0.04815674
1602579565276,849,-0.0017089844,-1.0359497,-0.041809082
1602579565355,850,-0.0107421875,-1.0401001,-0.050109863
1602579565434,851,0.010009766,-1.0374146,-0.057922363
1602579565513,852,0.009033203,-1.0369263,-0.044006348
1602579565591,853,0.0034179688,-1.0371704,-0.058654785
1602579565670,854,-0.021972656,-1.0437622,-0.070617676
1602579565749,855,-0.017089844,-1.0418091,-0.08404541
1602579565828,856,0.0017089844,-1.0437622,-0.08111572
1602579565906,857,0.013427734,-1.0413208,-0.09234619
1602579565985,858,-0.004638672,-1.0344849,-0.11846924
1602579566064,859,-0.0024414062,-1.0374146,-0.10040283
1602579566143,860,0.03955078,-1.031311,-0.027404785
1602579566221,861,0.07348633,-1.0471802,-0.0015258789
1602579566300,862,-0.017089844,-1.0471802,-0.038879395
1602579566379,863,0.0068359375,-1.0435181,-0.013977051
1602579566458,864,0.026611328,-1.0430298,-0.061340332
1602579566536,865,-0.09667969,-1.0413208,-0.046203613
1602579566615,866,-0.14257812,-1.0442505,-0.032287598
1602579566694,867,-0.14404297,-1.0183716,-0.03302002
1602579566773,868,-0.17358398,-1.0374146,-0.030090332
1602579566851,869,-0.22509766,-1.022522,0.008483887
1602579566930,870,-0.17382812,-1.0237427,0.031188965
1602579567009,871,-0.12841797,-1.0217896,0.027282715
1602579567088,872,-0.11010742,-1.0305786,0.027526855
1602579567166,873,-0.12548828,-1.0337524,0.024353027
1602579567245,874,-0.107177734,-1.0396118,0.012390137
1602579567324,875,-0.078125,-1.0437622,-0.009338379
1602579567403,876,-0.07080078,-1.0413208,-0.039123535
1602579567481,877,-0.04736328,-1.0393677,-0.054748535
1602579567560,878,-0.022460938,-1.0405884,-0.04083252
1602579567639,879,4.8828125E-4,-1.0393677,0.0026245117
1602579567718,880,-0.033447266,-1.0388794,-0.010559082
1602579567796,881,-0.055419922,-1.0386353,-0.050354004
1602579567875,882,-0.05859375,-1.0386353,-0.05303955
1602579567954,883,-0.025634766,-1.0352173,-0.030822754
1602579568033,884,-0.024902344,-1.0430298,-0.022033691
1602579568111,885,-0.030273438,-1.0366821,-0.027648926
1602579568190,886,-0.03515625,-1.0366821,-0.042053223
1602579568269,887,-0.055908203,-1.0401001,-0.04840088
1602579568348,888,-0.049804688,-1.0462036,-0.06109619
1602579568426,889,-0.04248047,-1.0393677,-0.04864502
1602579568505,890,0.0,-1.0371704,-0.038146973
1602579568584,891,-0.0061035156,-1.0354614,-0.026916504
1602579568663,892,-0.0012207031,-1.0339966,-0.040100098
1602579568741,893,-0.025390625,-1.0376587,-0.045715332
1602579568820,894,-0.041992188,-1.0432739,-0.047668457
1602579568899,895,-0.041503906,-1.0391235,-0.046203613
1602579568978,896,-0.038330078,-1.0410767,-0.041809082
1602579569056,897,-0.04345703,-1.0337524,-0.043518066
1602579569135,898,-0.02319336,-1.0383911,-0.049865723
1602579569214,899,-0.042236328,-1.0391235,-0.04815674
1602579569293,900,-0.049560547,-1.0386353,-0.0491333
1602579569371,901,-0.056152344,-1.0383911,-0.06573486
1602579569450,902,-0.028076172,-1.0383911,-0.059387207
1602579569529,903,-0.025634766,-1.0401001,-0.06011963
1602579569608,904,-0.0063476562,-1.0396118,-0.06304932
1602579569686,905,-0.014404297,-1.0410767,-0.08013916
1602579569765,906,-0.03955078,-1.0459595,-0.09552002
1602579569844,907,-0.01171875,-1.0408325,-0.10675049
1602579569923,908,0.0146484375,-1.0430298,-0.08892822
1602579570001,909,0.00390625,-1.0361938,-0.02911377
1602579570080,910,0.0024414062,-1.0405884,0.022644043
1602579570159,911,-0.034179688,-1.0432739,-0.012023926
1602579570238,912,-0.0043945312,-1.0291138,0.008972168
1602579570316,913,0.0068359375,-1.0444946,0.015319824
1602579570395,914,-0.025146484,-1.0530396,0.014343262
1602579570474,915,-0.049316406,-1.0293579,0.019958496
1602579570553,916,-0.008056641,-1.0430298,0.0211792
1602579570631,917,0.020263672,-1.0247192,0.057800293
1602579570710,918,-0.033935547,-1.0154419,0.026550293
1602579570789,919,-0.056884766,-1.1055298,0.07196045
1602579570868,920,-0.111572266,-1.0935669,0.199646
1602579570946,921,-0.21289062,-1.0808716,-0.03692627
1602579571025,922,-0.19970703,-1.0476685,0.081970215
1602579571104,923,-0.14282227,-0.94415283,0.090270996
1602579571183,924,-0.26953125,-0.8772583,0.101745605
1602579571261,925,-0.21679688,-0.95758057,0.31414795
1602579571340,926,-0.29174805,-0.9351196,0.39788818
1602579571419,927,-0.17529297,-1.206604,-0.12677002
1602579571498,928,-0.025146484,-1.0222778,-0.09820557
1602579571576,929,-0.14331055,-1.0435181,-0.03326416
1602579571655,930,-0.045654297,-1.0632935,-0.012756348
1602579571734,931,-0.08105469,-1.0357056,-5.493164E-4
1602579571813,932,-0.17163086,-1.0405884,0.008239746
1602579571891,933,-0.10449219,-1.0645142,0.005065918
1602579571970,934,-0.125,-1.0576782,-0.031066895
1602579572049,935,-0.06762695,-1.0335083,-0.054992676
1602579572128,936,-0.21240234,-1.031311,0.03338623
1602579572206,937,-0.2956543,-1.0137329,0.14398193
1602579572285,938,-0.14794922,-1.0567017,0.15032959
1602579572364,939,-0.24389648,-0.9973755,0.18182373
1602579572443,940,-0.27197266,-0.9680786,0.11590576
1602579572521,941,-0.28808594,-0.9680786,0.0848999
1602579572600,942,-0.29785156,-0.9915161,0.08001709
1602579572679,943,-0.28222656,-0.97784424,0.049743652
1602579572758,944,-0.26660156,-1.0010376,0.0848999
1602579572836,945,-0.29345703,-1.0183716,0.03656006
1602579572915,946,-0.35839844,-1.0178833,0.015075684
1602579572994,947,-0.36645508,-1.0144653,0.05682373
1602579573073,948,-0.2854004,-1.0003052,0.04486084
1602579573151,949,-0.26635742,-1.017395,0.039245605
1602579573230,950,-0.28051758,-1.0059204,0.057800293
1602579573309,951,-0.28222656,-1.0220337,0.066345215
1602579573388,952,-0.24438477,-1.0147095,0.07904053
1602579573466,953,-0.23291016,-0.98883057,0.070251465
1602579573545,954,-0.23486328,-0.98638916,0.082214355
1602579573624,955,-0.2861328,-1.0300903,0.06512451
1602579573703,956,-0.3334961,-1.010315,0.054626465
1602579573781,957,-0.31298828,-0.9932251,0.05316162
1602579573860,958,-0.27319336,-1.0037231,0.03363037
1602579573939,959,-0.24780273,-0.9944458,0.06414795
1602579574018,960,-0.25,-0.9927368,0.08148193
1602579574096,961,-0.27075195,-1.0171509,0.09100342
1602579574175,962,-0.28295898,-1.0130005,0.08905029
1602579574254,963,-0.2631836,-1.013977,0.085876465
1602579574333,964,-0.23071289,-1.0088501,0.0836792
1602579574411,965,-0.2133789,-1.0112915,0.09954834
1602579574490,966,-0.25097656,-1.0195923,0.09564209
1602579574569,967,-0.2397461,-1.0134888,0.10760498
1602579574648,968,-0.2211914,-1.0237427,0.10467529
1602579574726,969,-0.24121094,-1.0056763,0.082458496
1602579574805,970,-0.24145508,-1.019104,0.09100342
1602579574884,971,-0.203125,-1.024231,0.093688965
1602579574963,972,-0.22729492,-1.0151978,0.07977295
1602579575041,973,-0.24975586,-1.0264282,0.05682373
1602579575120,974,-0.22583008,-1.0100708,0.066345215
1602579575199,975,-0.19897461,-1.0283813,0.06439209
1602579575278,976,-0.19335938,-1.0293579,0.07684326
1602579575356,977,-0.20483398,-1.0227661,0.048034668
1602579575435,978,-0.19799805,-1.0234985,0.05218506
1602579575514,979,-0.18554688,-1.0217896,0.04144287
1602579575593,980,-0.19165039,-1.0181274,0.049743652
1602579575671,981,-0.1940918,-1.0271606,0.050720215
1602579575750,982,-0.18920898,-1.0234985,0.04901123
1602579575829,983,-0.20385742,-1.0154419,0.050964355
1602579575908,984,-0.20727539,-1.0288696,0.055847168
1602579575986,985,-0.1875,-1.0105591,0.062438965
1602579576065,986,-0.18896484,-1.0308228,0.061706543
1602579576144,987,-0.21557617,-1.0274048,0.047546387
1602579576223,988,-0.20166016,-1.0098267,0.04510498
1602579576301,989,-0.21826172,-1.0213013,0.05267334
1602579576380,990,-0.20288086,-1.0239868,0.06903076
1602579576459,991,-0.19604492,-1.0147095,0.055847168
1602579576538,992,-0.18847656,-1.019104,0.066833496
1602579576630,993,-0.20263672,-1.038147,0.06414795
1602579576723,994,-0.234375,-1.0195923,0.062438965
1602579576815,995,-0.22729492,-1.0249634,0.05291748
1602579576908,996,-0.21508789,-1.0310669,0.050231934
1602579577000,997,-0.16699219,-1.0083618,0.061706543
1602579577093,998,-0.1899414,-1.024231,0.074401855
1602579577185,999,-0.2175293,-1.0300903,0.07244873
1602579577278,1000,-0.22094727,-1.0308228,0.070739746
1602579577370,1001,-0.20825195,-1.0256958,0.05267334
1602579577463,1002,-0.24511719,-1.02594,0.026550293
1602579577555,1003,-0.25390625,-1.0264282,0.02557373
1602579577648,1004,-0.25610352,-1.0232544,0.0040893555
1602579577740,1005,-0.26049805,-1.0195923,0.007507324
1602579577833,1006,-0.27734375,-1.0029907,-0.0037231445
1602579577925,1007,-0.19458008,-0.9927368,0.07733154
1602579578018,1008,-0.1694336,-1.0117798,0.14398193
1602579578110,1009,-0.15332031,-0.9866333,0.06585693
1602579578203,1010,-0.23144531,-0.9898071,0.046325684
1602579578295,1011,-0.17114258,-1.0239868,0.022644043
1602579578388,1012,-0.15917969,-0.9976196,0.02508545
1602579578480,1013,-0.09375,-1.0806274,0.011657715
1602579578573,1014,-0.27441406,-1.2166138,0.22650146
1602579578665,1015,-0.007080078,-0.986145,0.013366699
1602579578758,1016,-0.07006836,-1.0161743,0.07220459
1602579578850,1017,0.033203125,-1.0166626,0.008972168
1602579578943,1018,9.765625E-4,-1.03302,0.066345215
1602579579035,1019,0.024169922,-1.0252075,0.05267334
1602579579128,1020,0.026855469,-1.0352173,0.042663574
1602579579220,1021,0.0012207031,-1.038147,0.026550293
1602579579313,1022,0.040283203,-1.0388794,0.01751709
1602579579405,1023,-0.024658203,-1.0339966,0.031921387
1602579579498,1024,0.060791016,-1.0325317,0.0018920898
1602579579576,1025,-0.044677734,-1.0420532,-0.023498535
1602579579655,1026,-0.07788086,-1.0432739,-0.050354004
1602579579734,1027,-0.12451172,-1.0422974,-0.047912598
1602579579813,1028,-0.068603516,-1.0386353,-0.010559082
1602579579891,1029,0.030517578,-1.0393677,-0.010314941
1602579579970,1030,-0.045654297,-1.0388794,0.009216309
1602579580049,1031,-0.049560547,-1.0337524,-0.030334473
1602579580128,1032,-0.08569336,-1.046936,-0.03741455
1602579580206,1033,-0.080322266,-1.0425415,-0.04107666
1602579580285,1034,-0.011962891,-1.0357056,-0.0413208
1602579580364,1035,-0.041259766,-1.0349731,-0.042053223
1602579580443,1036,-0.047607422,-1.0369263,-0.054016113
1602579580521,1037,-0.06542969,-1.0413208,-0.05206299
1602579580600,1038,-0.07348633,-1.0337524,-0.07305908
1602579580679,1039,-0.08886719,-1.0437622,-0.081604004
1602579580758,1040,-0.08300781,-1.0369263,-0.09112549
1602579580836,1041,-0.06274414,-1.0376587,-0.07086182
1602579580915,1042,-0.08666992,-1.0430298,-0.07550049
1602579580994,1043,-0.079589844,-1.0388794,-0.077941895
1602579581073,1044,-0.03100586,-1.0298462,-0.050109863
1602579581151,1045,-0.084472656,-1.0401001,-0.029846191
1602579581230,1046,-0.0949707,-1.0349731,-0.06304932
1602579581309,1047,-0.115722656,-1.0352173,-0.06011963
1602579581388,1048,-0.03540039,-1.0471802,-0.03668213
1602579581466,1049,-0.1015625,-1.0269165,-0.057434082
1602579581545,1050,-0.09399414,-1.0432739,-0.066467285
1602579581624,1051,-0.12207031,-1.046936,-0.07745361
1602579581703,1052,-0.11816406,-1.0293579,-0.08526611
1602579581781,1053,-0.10644531,-1.031311,-0.059631348
1602579581860,1054,-0.07788086,-1.0376587,-0.035461426
1602579581939,1055,-0.08544922,-1.0303345,-0.05328369
1602579582018,1056,-0.08203125,-1.0244751,-0.04522705
1602579582096,1057,-0.099609375,-1.0442505,-0.020324707
1602579582175,1058,-0.11328125,-1.0408325,-0.016418457
1602579582254,1059,-0.103759766,-1.0442505,-0.0178833
1602579582333,1060,-0.09472656,-1.0332642,-0.028381348
1602579582411,1061,-0.107177734,-1.0374146,-0.046936035
1602579582490,1062,-0.13574219,-1.0396118,-0.039367676
1602579582569,1063,-0.09887695,-1.0359497,-0.042785645
1602579582648,1064,-0.09814453,-1.0410767,-0.034484863
1602579582726,1065,-0.07495117,-1.0376587,-0.042541504
1602579582805,1066,-0.107177734,-1.0352173,-0.06524658
1602579582884,1067,-0.11279297,-1.03302,-0.06060791
1602579582963,1068,-0.095703125,-1.0337524,-0.050842285
1602579583041,1069,-0.1616211,-1.0349731,-0.047668457
1602579583120,1070,-0.032226562,-1.0510864,-0.035217285
1602579583199,1071,-0.10131836,-1.0274048,-0.054992676
1602579583278,1072,-0.06225586,-1.0401001,-0.04034424
1602579583356,1073,-0.15478516,-1.0513306,-0.05255127
1602579583435,1074,-0.12426758,-1.0298462,-0.06695557
1602579583514,1075,-0.13305664,-1.0352173,-0.07745361
1602579583593,1076,-0.13305664,-1.0188599,-0.077941895
1602579583671,1077,-0.15722656,-1.0484009,-0.06793213
1602579583750,1078,-0.16381836,-1.0337524,-0.05670166
1602579583829,1079,-0.095458984,-1.039856,-0.024719238
1602579583908,1080,-0.06323242,-1.0376587,-0.013000488
1602579583986,1081,-0.061767578,-1.034729,-0.023742676
1602579584065,1082,-0.068603516,-1.0327759,-0.030578613
1602579584144,1083,-0.09716797,-1.0413208,-0.031555176
1602579584223,1084,-0.08569336,-1.039856,-0.039367676
1602579584301,1085,-0.08984375,-1.0437622,-0.047180176
1602579584380,1086,-0.05444336,-1.0401001,-0.054504395
1602579584459,1087,-0.06665039,-1.0278931,-0.058166504
1602579584538,1088,-0.08496094,-1.0339966,-0.058898926
1602579584616,1089,-0.11206055,-1.0435181,-0.022521973
1602579584695,1090,-0.07104492,-1.0396118,-0.020080566
1602579584774,1091,-0.06616211,-1.0386353,-0.019836426
1602579584853,1092,-0.07299805,-1.038147,-0.026916504
1602579584931,1093,-0.06518555,-1.0361938,-0.028869629
1602579585010,1094,-0.07348633,-1.0369263,-0.007873535
1602579585089,1095,-0.028076172,-1.0371704,-0.015197754
1602579585168,1096,-0.06298828,-1.0388794,-0.02545166
1602579585246,1097,-0.049560547,-1.0440063,-0.034484863
1602579585325,1098,-0.056152344,-1.0401001,-0.07672119
1602579585404,1099,-0.043945312,-1.0405884,-0.09527588
1602579585483,1100,-0.007080078,-1.0484009,-0.08795166
1602579585561,1101,0.09887695,-1.0408325,-0.04083252
1602579585640,1102,0.123046875,-1.0266724,-0.02545166
1602579585719,1103,-0.03100586,-1.0510864,0.016784668
1602579585798,1104,-0.056884766,-1.0256958,-0.003479004
1602579585876,1105,-0.009277344,-1.0613403,0.019470215
1602579585955,1106,0.045654297,-1.0403442,-0.023742676
1602579586034,1107,-0.038085938,-1.013977,-0.059387207
1602579586113,1108,-0.08984375,-1.046936,-0.06500244
1602579586191,1109,-0.068847656,-1.0337524,-0.062561035
1602579586270,1110,-0.056640625,-1.0325317,-0.030822754
1602579586349,1111,-0.10571289,-1.0542603,-0.010314941
1602579586428,1112,-0.037353516,-1.0317993,-0.023742676
1602579586506,1113,-0.03149414,-1.0271606,0.011413574
1602579586585,1114,-0.072021484,-1.0464478,0.0138549805
1602579586664,1115,-0.12036133,-1.0274048,-0.011047363
1602579586743,1116,-0.14575195,-1.0459595,-0.013244629
1602579586821,1117,-0.08300781,-1.0413208,-3.0517578E-4
1602579586900,1118,-0.06665039,-1.0303345,-0.0044555664
1602579586979,1119,-0.088134766,-1.0161743,-0.0025024414
1602579587058,1120,-0.09765625,-1.0408325,-0.003479004
1602579587136,1121,-0.07495117,-1.0332642,0.020446777
1602579587215,1122,-0.053222656,-1.0320435,0.026306152
1602579587294,1123,-0.08227539,-1.0474243,0.019714355
1602579587373,1124,-0.080322266,-1.0217896,4.272461E-4
1602579587451,1125,-0.07006836,-1.0344849,0.0072631836
1602579587530,1126,-0.12719727,-1.0501099,0.0033569336
1602579587609,1127,-0.13500977,-1.0650024,0.0368042
1602579587688,1128,-0.16064453,-1.0657349,0.14324951
1602579587766,1129,-0.08129883,-1.0686646,0.21307373
1602579587845,1130,-0.107177734,-1.005188,0.089538574
1602579587924,1131,-0.16357422,-0.94366455,0.20599365
1602579588003,1132,-0.17382812,-0.91851807,0.24090576
1602579588081,1133,-0.18408203,-0.9390259,0.28900146
1602579588160,1134,-0.23583984,-0.99102783,0.3102417
1602579588239,1135,-0.1875,-0.85357666,0.25091553
1602579588318,1136,-0.25048828,-1.2202759,0.21502686
1602579588396,1137,0.009521484,-0.973938,-0.013000488
1602579588475,1138,-0.052978516,-1.0471802,0.022888184
1602579588554,1139,0.061767578,-1.0542603,-0.074279785
1602579588633,1140,-0.12768555,-1.0425415,0.0067749023
1602579588711,1141,-0.08251953,-1.0501099,-0.057922363
1602579588790,1142,-0.08862305,-1.0420532,-0.089660645
1602579588869,1143,-0.07006836,-1.0383911,-0.034973145
1602579588948,1144,-0.04321289,-1.038147,-0.020324707
1602579589026,1145,-0.06713867,-1.0386353,-0.012023926
1602579589105,1146,-0.014892578,-1.039856,-7.9345703E-4
1602579589184,1147,-7.324219E-4,-1.0464478,-0.008850098
1602579589263,1148,-0.0546875,-1.0442505,-0.027160645
1602579589341,1149,-0.05102539,-1.0374146,-0.042785645
1602579589420,1150,-0.04663086,-1.0435181,-0.035217285
1602579589499,1151,-0.03173828,-1.038147,-0.03717041
1602579589578,1152,-0.026855469,-1.0396118,-0.030822754
1602579589656,1153,-0.032714844,-1.0396118,-0.023498535
1602579589735,1154,-0.025634766,-1.0354614,-0.018615723
1602579589814,1155,-0.037597656,-1.0427856,-0.0051879883
1602579589893,1156,-0.025634766,-1.0403442,0.0053100586
1602579589971,1157,-0.012451172,-1.0339966,0.003112793
1602579590050,1158,-0.01586914,-1.0447388,0.023376465
1602579590129,1159,-0.014892578,-1.0418091,0.020935059
1602579590208,1160,-0.02368164,-1.034729,0.021911621
1602579590286,1161,-0.04272461,-1.0374146,0.034362793
1602579590365,1162,-0.09692383,-1.0403442,-0.0154418945
1602579590444,1163,-0.08251953,-1.0432739,0.014587402
1602579590523,1164,-0.08618164,-1.0252075,0.043884277
1602579590601,1165,-0.111816406,-1.0298462,0.06097412
1602579590680,1166,-0.13916016,-1.0234985,0.06317139
1602579590759,1167,-0.12915039,-1.0269165,0.06439209
1602579590838,1168,-0.15405273,-1.0283813,0.085632324
1602579590916,1169,-0.12988281,-1.0281372,0.105163574
1602579590995,1170,-0.110839844,-1.0278931,0.14813232
1602579591074,1171,-0.11328125,-1.0222778,0.13250732
1602579591153,1172,-0.12890625,-1.019104,0.1239624
1602579591231,1173,-0.15283203,-1.0213013,0.10882568
1602579591310,1174,-0.12866211,-1.020813,0.10101318
1602579591389,1175,-0.14624023,-1.0193481,0.12884521
1602579591468,1176,-0.09741211,-1.0183716,0.1618042
1602579591546,1177,-0.08935547,-1.0198364,0.14227295
1602579591625,1178,-0.11303711,-1.0283813,0.1071167
1602579591704,1179,-0.1015625,-1.0291138,0.11199951
1602579591783,1180,-0.115234375,-1.0252075,0.12982178
1602579591861,1181,-0.12158203,-1.0232544,0.11029053
1602579591940,1182,-0.13354492,-1.0379028,0.08685303
1602579592019,1183,-0.12817383,-1.03302,0.090270996
1602579592098,1184,-0.05419922,-1.0234985,0.09954834
1602579592176,1185,-0.053222656,-1.0213013,0.14642334
1602579592255,1186,-0.103027344,-1.0230103,0.117370605
1602579592334,1187,-0.15649414,-1.02594,0.09661865
1602579592413,1188,-0.10522461,-1.0276489,0.10345459
1602579592491,1189,-0.08325195,-1.0288696,0.11834717
1602579592570,1190,-0.092041016,-1.0283813,0.10101318
1602579592649,1191,-0.119140625,-1.0269165,0.08734131
1602579592728,1192,-0.12719727,-1.0281372,0.08758545
1602579592806,1193,-0.12866211,-1.029602,0.086120605
1602579592885,1194,-0.10522461,-1.0274048,0.089538574
1602579592964,1195,-0.09448242,-1.029602,0.09564209
1602579593043,1196,-0.11987305,-1.031311,0.09442139
1602579593121,1197,-0.122802734,-1.0325317,0.078063965
1602579593200,1198,-0.12915039,-1.0278931,0.073913574
1602579593279,1199,-0.12182617,-1.0261841,0.081726074
1602579593358,1200,-0.10571289,-1.0274048,0.09197998
1602579593436,1201,-0.10961914,-1.0320435,0.097839355
1602579593515,1202,-0.103271484,-1.0298462,0.08294678
1602579593594,1203,-0.122802734,-1.0281372,0.07244873
1602579593673,1204,-0.1105957,-1.0237427,0.08685303
1602579593751,1205,-0.10839844,-1.0274048,0.09075928
1602579593830,1206,-0.1809082,-1.0293579,0.070251465
1602579593909,1207,-0.1394043,-1.0393677,0.04852295
1602579593988,1208,-0.10253906,-1.0366821,0.04559326
1602579594066,1209,-0.107421875,-1.0305786,0.039489746
1602579594145,1210,-0.10424805,-1.0305786,0.049987793
1602579594224,1211,-0.099365234,-1.0317993,0.029968262
1602579594303,1212,-0.125,-1.0335083,0.030456543
1602579594381,1213,-0.09350586,-1.0371704,0.013366699
1602579594460,1214,-0.088134766,-1.0393677,0.014831543
1602579594539,1215,-0.084228516,-1.0337524,0.0028686523
1602579594618,1216,-0.09448242,-1.0369263,0.004333496
1602579594714,1217,-0.076416016,-1.038147,0.004333496
1602579594810,1218,-0.10839844,-1.0352173,-0.00982666
1602579594906,1219,-0.11230469,-1.0337524,-0.018371582
1602579595002,1220,-0.08544922,-1.0403442,-0.008850098
1602579595098,1221,-0.072265625,-1.0444946,-0.010803223
1602579595194,1222,-0.083496094,-1.0357056,-0.034240723
1602579595290,1223,-0.078125,-1.034729,-0.032043457
1602579595386,1224,-0.118652344,-1.0337524,-0.036193848
1602579595482,1225,-0.10595703,-1.0464478,-0.031555176
1602579595578,1226,-0.115234375,-1.0383911,-0.058654785
1602579595674,1227,-0.10620117,-1.0361938,-0.0569458
1602579595770,1228,-0.09887695,-1.0459595,-0.050109863
1602579595866,1229,-0.088134766,-1.0442505,-0.061828613
1602579595962,1230,-0.07128906,-1.0344849,-0.066711426
1602579596058,1231,-0.076660156,-1.031311,-0.054504395
1602579596155,1232,-0.087402344,-1.0374146,-0.039855957
1602579596251,1233,-0.07763672,-1.0349731,-0.034729004
1602579596347,1234,-0.048095703,-1.03302,-0.018371582
1602579596443,1235,-0.043701172,-1.0432739,-0.019836426
1602579596539,1236,-0.072021484,-1.0369263,-0.035949707
1602579596635,1237,-0.0546875,-1.0393677,-0.04156494
1602579596731,1238,-0.0637207,-1.0393677,-0.033996582
1602579596827,1239,-0.07104492,-1.0442505,-0.034973145
1602579596923,1240,-0.06713867,-1.0427856,-0.04840088
1602579597019,1241,-0.06933594,-1.0332642,-0.0491333
1602579597115,1242,-0.057373047,-1.041565,-0.038146973
1602579597211,1243,-0.053222656,-1.0369263,-0.014465332
1602579597307,1244,-0.043945312,-1.041565,-0.0095825195
1602579597403,1245,-0.060546875,-1.038147,0.0033569336
1602579597499,1246,-0.06689453,-1.0405884,-0.0037231445
1602579597595,1247,-0.05810547,-1.0388794,0.006286621
1602579597692,1248,-0.057861328,-1.0339966,0.015808105
1602579597770,1249,-0.08227539,-1.0327759,0.031433105
1602579597849,1250,-0.07299805,-1.036438,0.038269043
1602579597928,1251,-0.064453125,-1.031311,0.03656006
1602579598007,1252,-0.064208984,-1.0322876,0.05657959
1602579598085,1253,-0.064208984,-1.034729,0.043151855
1602579598164,1254,-0.080078125,-1.036438,0.038269043
1602579598243,1255,-0.079833984,-1.038147,0.026794434
1602579598322,1256,-0.08886719,-1.036438,0.015563965
1602579598400,1257,-0.0703125,-1.0374146,0.010925293
1602579598479,1258,-0.06762695,-1.0357056,0.022888184
1602579598558,1259,-0.061523438,-1.041565,0.018981934
1602579598637,1260,-0.080566406,-1.0383911,0.014099121
1602579598715,1261,-0.092285156,-1.0369263,0.009216309
1602579598794,1262,-0.06762695,-1.0374146,0.022399902
1602579598873,1263,-0.088378906,-1.0352173,0.010192871
1602579598952,1264,-0.12060547,-1.0352173,0.0067749023
1602579599030,1265,-0.087402344,-1.0374146,0.00970459
1602579599109,1266,-0.083740234,-1.0383911,0.014587402
1602579599188,1267,-0.076660156,-1.034729,0.020690918
1602579599267,1268,-0.08886719,-1.0342407,0.023620605
1602579599345,1269,-0.087890625,-1.0357056,0.019226074
1602579599424,1270,-0.07885742,-1.0349731,0.018981934
1602579599503,1271,-0.071777344,-1.0396118,0.012145996
1602579599582,1272,-0.07080078,-1.0391235,0.011657715
1602579599660,1273,-0.08178711,-1.0354614,0.016296387
1602579599739,1274,-0.08569336,-1.0418091,0.00970459
1602579599818,1275,-0.09106445,-1.0366821,0.0018920898
1602579599897,1276,-0.08251953,-1.0386353,-0.0037231445
1602579599975,1277,-0.07788086,-1.0418091,0.0014038086
1602579600054,1278,-0.0715332,-1.0357056,-0.0068969727
1602579600133,1279,-0.07495117,-1.039856,-0.0029907227
1602579600212,1280,-0.076660156,-1.0420532,-0.0071411133
1602579600290,1281,-0.0871582,-1.0393677,-0.008605957
1602579600369,1282,-0.10253906,-1.0359497,-0.0071411133
1602579600448,1283,-0.08911133,-1.0383911,-0.006652832
1602579600527,1284,-0.08984375,-1.0354614,-0.010314941
1602579600605,1285,-0.06689453,-1.0388794,0.0038452148
1602579600684,1286,-0.055908203,-1.038147,0.008239746
1602579600763,1287,-0.07861328,-1.036438,-0.0064086914
1602579600842,1288,-0.10107422,-1.0361938,-0.021057129
1602579600920,1289,-0.088134766,-1.041565,-0.010070801
1602579600999,1290,-0.08251953,-1.0371704,-0.010070801
1602579601078,1291,-0.083496094,-1.0374146,-0.0134887695
1602579601157,1292,-0.083740234,-1.0366821,-0.023986816
1602579601235,1293,-0.07519531,-1.0401001,-0.009338379
1602579601314,1294,-0.08178711,-1.0391235,-0.0068969727
1602579601393,1295,-0.08081055,-1.0354614,-0.018615723
1602579601472,1296,-0.080078125,-1.0410767,-0.019836426
1602579601550,1297,-0.08886719,-1.0349731,-0.023742676
1602579601629,1298,-0.0793457,-1.0369263,-0.02935791
1602579601708,1299,-0.07836914,-1.039856,-0.030090332
1602579601787,1300,-0.091796875,-1.0386353,-0.026184082
1602579601865,1301,-0.083984375,-1.0359497,-0.008850098
1602579601944,1302,-0.091308594,-1.0315552,0.0033569336
1602579602023,1303,-0.0925293,-1.0332642,-0.0051879883
1602579602102,1304,-0.08203125,-1.0332642,-0.003967285
1602579602180,1305,-0.084228516,-1.0342407,-0.003967285
1602579602259,1306,-0.09765625,-1.0413208,-0.038879395
1602579602338,1307,-0.09301758,-1.0401001,-0.07110596
1602579602417,1308,-0.041992188,-1.0422974,-0.04156494
1602579602495,1309,0.060791016,-1.0435181,9.1552734E-4
1602579602574,1310,0.07348633,-1.0308228,-0.0064086914
1602579602653,1311,-0.034423828,-1.0217896,0.05218506
1602579602732,1312,0.048828125,-1.0501099,0.094177246
1602579602810,1313,-0.010498047,-1.0418091,-0.0049438477
1602579602889,1314,-0.08886719,-1.0440063,-0.101867676
1602579602968,1315,-0.103759766,-1.0545044,-0.109436035
1602579603047,1316,-0.0793457,-1.031311,-0.13092041
1602579603125,1317,-0.06518555,-1.050354,-0.06964111
1602579603204,1318,-0.0703125,-1.0305786,-0.0647583
1602579603283,1319,-0.061279297,-1.0276489,-0.009338379
1602579603362,1320,-0.05493164,-1.0476685,0.041931152
1602579603440,1321,-0.095458984,-1.0393677,-0.012268066
1602579603519,1322,-0.10058594,-1.0305786,-0.027893066
1602579603598,1323,-0.10083008,-1.0410767,-0.06304932
1602579603677,1324,-0.10888672,-1.0440063,-0.074035645
1602579603755,1325,-0.099365234,-1.0361938,-0.08795166
1602579603834,1326,-0.087890625,-1.034729,-0.09039307
1602579603913,1327,-0.06323242,-1.0427856,-0.073791504
1602579603992,1328,-0.057861328,-1.0327759,-0.07354736
1602579604070,1329,-0.072265625,-1.0440063,-0.08673096
1602579604149,1330,-0.08520508,-1.0374146,-0.08648682
1602579604228,1331,-0.076660156,-1.0437622,-0.08526611
1602579604307,1332,-0.0690918,-1.034729,-0.085510254
1602579604385,1333,-0.07543945,-1.0420532,-0.089904785
1602579604464,1334,-0.06591797,-1.0405884,-0.062561035
1602579604543,1335,-0.053222656,-1.0388794,-0.058654785
1602579604622,1336,-0.06738281,-1.0357056,-0.06378174
1602579604700,1337,-0.08081055,-1.0403442,-0.06402588
1602579604779,1338,-0.07885742,-1.0349731,-0.07672119
1602579604858,1339,-0.063964844,-1.041565,-0.06427002
1602579604937,1340,-0.0546875,-1.0369263,-0.06378174
1602579605015,1341,-0.07519531,-1.0401001,-0.06842041
1602579605094,1342,-0.08178711,-1.0391235,-0.06500244
1602579605173,1343,-0.0703125,-1.036438,-0.049621582
1602579605252,1344,-0.088134766,-1.0342407,-0.030090332
1602579605330,1345,-0.028320312,-1.0405884,-0.0017700195
1602579605409,1346,-0.09375,-1.0303345,-0.04156494
1602579605488,1347,-0.10620117,-1.0437622,-0.0725708
1602579605567,1348,-0.064208984,-1.0361938,-0.074035645
1602579605645,1349,-0.07299805,-1.0388794,-0.061340332
1602579605724,1350,-0.11352539,-1.0396118,-0.08331299
1602579605803,1351,-0.12231445,-1.0422974,-0.07476807
1602579605882,1352,-0.076171875,-1.0459595,-0.06573486
1602579605960,1353,-0.07421875,-1.0252075,-0.059387207
1602579606039,1354,-0.0925293,-1.0393677,-0.0647583
1602579606118,1355,-0.10131836,-1.0386353,-0.05230713
1602579606197,1356,-0.06542969,-1.0361938,-0.054016113
1602579606275,1357,-0.09716797,-1.0435181,-0.069885254
1602579606354,1358,-0.1015625,-1.0337524,-0.09893799
1602579606433,1359,-0.107910156,-1.0396118,-0.09088135
1602579606512,1360,-0.095947266,-1.0376587,-0.06060791
1602579606590,1361,-0.1003418,-1.0339966,-0.046447754
1602579606669,1362,-0.09350586,-1.0256958,-0.032043457
1602579606748,1363,-0.1159668,-1.048645,-0.03326416
1602579606827,1364,-0.099365234,-1.0366821,-0.069885254
1602579606905,1365,-0.10107422,-1.0308228,-0.089660645
1602579606984,1366,-0.13061523,-1.0479126,-0.093811035
1602579607063,1367,-0.06665039,-1.0193481,-0.03741455
1602579607142,1368,-0.049072266,-1.0474243,-0.016906738
1602579607220,1369,-0.104003906,-1.0232544,-0.06768799
1602579607299,1370,-0.09033203,-1.0510864,-0.08453369
1602579607378,1371,-0.08203125,-1.0371704,-0.078430176
1602579607457,1372,-0.053466797,-1.0369263,-0.0725708
1602579607535,1373,-0.083740234,-1.0388794,-0.090148926
1602579607614,1374,-0.1508789,-1.0432739,-0.11993408
1602579607693,1375,-0.08544922,-1.0357056,-0.101623535
1602579607772,1376,-0.052246094,-1.0344849,-0.08331299
1602579607850,1377,-0.07055664,-1.0408325,-0.0869751
1602579607929,1378,-0.11206055,-1.0361938,-0.09039307
1602579608008,1379,-0.07324219,-1.0420532,-0.07720947
1602579608087,1380,-0.08105469,-1.0366821,-0.07525635
1602579608165,1381,-0.115478516,-1.0325317,-0.08013916
1602579608244,1382,-0.06958008,-1.03302,-0.0491333
1602579608323,1383,-0.071777344,-1.0391235,-0.03643799
1602579608402,1384,-0.083740234,-1.038147,-0.05987549
1602579608480,1385,-0.052001953,-1.0315552,-0.074523926
1602579608559,1386,-0.06347656,-1.0344849,-0.047424316
1602579608638,1387,-0.05029297,-1.0444946,-0.05206299
1602579608717,1388,-0.052246094,-1.0403442,-0.0869751
1602579608795,1389,-0.091552734,-1.0410767,-0.09918213
1602579608874,1390,-0.05908203,-1.0369263,-0.09039307
1602579608953,1391,-0.040771484,-1.041565,-0.08331299
1602579609032,1392,-0.048828125,-1.0374146,-0.06427002
1602579609110,1393,-0.05493164,-1.0466919,-0.06402588
1602579609189,1394,-0.06640625,-1.0357056,-0.07867432
1602579609268,1395,-0.05810547,-1.0459595,-0.073791504
1602579609347,1396,-0.041015625,-1.038147,-0.057678223
1602579609425,1397,-0.039794922,-1.0366821,-0.058898926
1602579609504,1398,-0.057128906,-1.0327759,-0.06549072
1602579609583,1399,-0.06298828,-1.0386353,-0.08502197
1602579609662,1400,-0.07519531,-1.0393677,-0.0947876
1602579609740,1401,-0.057128906,-1.0405884,-0.081848145
1602579609819,1402,-0.06274414,-1.036438,-0.08673096
1602579609898,1403,-0.05834961,-1.0342407,-0.085510254
1602579609977,1404,-0.047607422,-1.0383911,-0.08526611
1602579610055,1405,-0.06762695,-1.0391235,-0.08331299
1602579610134,1406,-0.0625,-1.0320435,-0.09136963
1602579610213,1407,-0.038085938,-1.0447388,-0.078430176
1602579610292,1408,-0.06347656,-1.0352173,-0.09039307
1602579610370,1409,-0.08178711,-1.0388794,-0.09454346
1602579610449,1410,-0.04663086,-1.0325317,-0.093322754
1602579610528,1411,-0.06542969,-1.0288696,-0.08648682
1602579610607,1412,-0.05102539,-1.0447388,-0.09844971
1602579610685,1413,-0.057861328,-1.0401001,-0.08258057
1602579610764,1414,-0.04272461,-1.0379028,-0.09185791
1602579610843,1415,-0.061767578,-1.039856,-0.101135254
1602579610922,1416,-0.06347656,-1.0325317,-0.10797119
1602579611000,1417,-0.041503906,-1.0420532,-0.09039307
1602579611079,1418,0.0073242188,-1.0327759,-0.08502197
1602579611158,1419,-0.05126953,-1.0420532,-0.097229004
1602579611237,1420,-0.068115234,-1.0405884,-0.10333252
1602579611315,1421,-0.025878906,-1.0361938,-0.09136963
1602579611394,1422,-0.031982422,-1.0369263,-0.094055176
1602579611473,1423,-0.084472656,-1.0449829,-0.11895752
1602579611552,1424,-0.0859375,-1.0332642,-0.12554932
1602579611630,1425,-0.05493164,-1.0408325,-0.093811035
1602579611709,1426,-0.024169922,-1.0361938,-0.074279785
1602579611788,1427,-0.045166016,-1.0320435,-0.08648682
1602579611867,1428,-0.072265625,-1.0481567,-0.09307861
1602579611945,1429,-0.076416016,-1.0325317,-0.10748291
1602579612024,1430,-0.035888672,-1.0303345,-0.09429932
1602579612103,1431,-0.0043945312,-1.036438,-0.059631348
1602579612182,1432,-0.10180664,-1.0383911,-0.074035645
1602579612260,1433,-0.060791016,-1.0425415,-0.07330322
1602579612339,1434,-0.033935547,-1.0396118,-0.070129395
1602579612418,1435,-0.045654297,-1.0388794,-0.08673096
1602579612497,1436,-0.056152344,-1.041565,-0.09454346
1602579612575,1437,-0.057861328,-1.0464478,-0.0869751
1602579612654,1438,-0.02368164,-1.0339966,-0.08258057
1602579612733,1439,-0.05126953,-1.0401001,-0.07476807
1602579612812,1440,-0.047607422,-1.0366821,-0.07672119
1602579612908,1441,-0.034179688,-1.0396118,-0.07232666
1602579613005,1442,-0.052734375,-1.0349731,-0.0713501
1602579613101,1443,-0.049560547,-1.038147,-0.073791504
1602579613198,1444,-0.060302734,-1.0344849,-0.07574463
1602579613294,1445,-0.056152344,-1.0391235,-0.07672119
1602579613391,1446,-0.060302734,-1.0383911,-0.06817627
1602579613487,1447,-0.057861328,-1.036438,-0.06695557
1602579613584,1448,-0.0546875,-1.0357056,-0.058166504
1602579613680,1449,-0.04663086,-1.0410767,-0.054748535
1602579613777,1450,-0.043701172,-1.0401001,-0.053771973
1602579613873,1451,-0.061279297,-1.0337524,-0.057678223
1602579613970,1452,-0.07446289,-1.0437622,-0.0491333
1602579614066,1453,-0.09863281,-1.0413208,-0.06329346
1602579614163,1454,-0.068115234,-1.0305786,-0.059143066
1602579614259,1455,-0.024169922,-1.0393677,-0.028869629
1602579614356,1456,-0.06347656,-1.0474243,-0.043762207
1602579614453,1457,-0.08569336,-1.0447388,-0.10064697
1602579614549,1458,-0.05444336,-1.0276489,-0.070129395
1602579614646,1459,-0.0053710938,-1.0327759,-0.03375244
1602579614742,1460,-0.013183594,-1.0344849,-0.032043457
1602579614839,1461,-0.06640625,-1.0396118,-0.051574707
1602579614935,1462,-0.06665039,-1.0479126,-0.04937744
1602579615032,1463,-0.06665039,-1.0371704,-0.061340332
1602579615128,1464,-0.061279297,-1.0396118,-0.07305908
1602579615225,1465,-0.09765625,-1.0444946,-0.05645752
1602579615321,1466,-0.10205078,-1.036438,-0.053527832
1602579615418,1467,-0.045410156,-1.0440063,-0.022277832
1602579615514,1468,-0.051513672,-1.0332642,-0.022033691
1602579615611,1469,-0.08227539,-1.036438,-0.045715332
1602579615707,1470,-0.1015625,-1.0369263,-0.062316895
1602579615804,1471,-0.09326172,-1.0479126,-0.066223145
1602579615901,1472,-0.087646484,-1.0357056,-0.06817627
1602579615979,1473,-0.0769043,-1.0315552,-0.0647583
1602579616058,1474,-0.071777344,-1.0432739,-0.053527832
1602579616137,1475,-0.084472656,-1.0442505,-0.06402588
1602579616216,1476,-0.083984375,-1.0325317,-0.07574463
1602579616294,1477,-0.08251953,-1.0449829,-0.05987549
1602579616373,1478,-0.07006836,-1.0403442,-0.05206299
1602579616452,1479,-0.053466797,-1.0369263,-0.057678223
1602579616531,1480,-0.064697266,-1.0405884,-0.044006348
1602579616609,1481,-0.06274414,-1.0388794,-0.038391113
1602579616688,1482,-0.079833984,-1.0393677,-0.06378174
1602579616767,1483,-0.056640625,-1.0308228,-0.054016113
1602579616846,1484,-0.048339844,-1.036438,-0.03643799
1602579616924,1485,-0.06762695,-1.0427856,-0.05279541
1602579617003,1486,-0.05078125,-1.0379028,-0.07159424
1602579617082,1487,-0.05126953,-1.0388794,-0.07183838
1602579617161,1488,-0.056884766,-1.0342407,-0.053527832
1602579617239,1489,-0.059814453,-1.0440063,-0.05279541
1602579617318,1490,-0.072021484,-1.0410767,-0.05670166
1602579617397,1491,-0.068847656,-1.0369263,-0.0791626
1602579617476,1492,-0.057861328,-1.0401001,-0.0725708
1602579617554,1493,-0.037841797,-1.0401001,-0.077697754
1602579617633,1494,-0.059570312,-1.0386353,-0.09112549
1602579617712,1495,-0.07080078,-1.0303345,-0.09307861
1602579617791,1496,-0.07470703,-1.0440063,-0.07696533
1602579617869,1497,-0.061035156,-1.0396118,-0.08453369
1602579617948,1498,-0.052246094,-1.0359497,-0.09649658
1602579618027,1499,-0.07421875,-1.0393677,-0.10626221
1602579618106,1500,-0.06933594,-1.0405884,-0.10333252
1602579618184,1501,-0.052978516,-1.0391235,-0.09674072
1602579618263,1502,-0.059326172,-1.0388794,-0.09625244
1602579618342,1503,-0.056640625,-1.0374146,-0.09649658
1602579618421,1504,-0.044433594,-1.0369263,-0.08282471
1602579618499,1505,-0.03564453,-1.0361938,-0.08013916
1602579618578,1506,-0.06347656,-1.0325317,-0.09136963
1602579618657,1507,-0.07739258,-1.0510864,-0.08404541
1602579618736,1508,-0.08081055,-1.0425415,-0.08111572
1602579618814,1509,-0.060546875,-1.0376587,-0.058410645
1602579618893,1510,-0.036132812,-1.0325317,-0.034973145
1602579618972,1511,-0.046142578,-1.0369263,-0.03253174
1602579619051,1512,-0.057128906,-1.0383911,-0.04156494
1602579619129,1513,-0.07104492,-1.036438,-0.041809082
1602579619208,1514,-0.07128906,-1.0396118,-0.04034424
1602579619287,1515,-0.07128906,-1.0408325,-0.045959473
1602579619366,1516,-0.07470703,-1.038147,-0.045715332
1602579619444,1517,-0.036865234,-1.0317993,-0.034240723
1602579619523,1518,-0.034179688,-1.0386353,-0.039123535
1602579619602,1519,-0.0715332,-1.0396118,-0.058898926
1602579619681,1520,-0.07299805,-1.0410767,-0.06768799
1602579619759,1521,-0.064697266,-1.0393677,-0.07476807
1602579619838,1522,-0.03491211,-1.0418091,-0.062805176
1602579619917,1523,-0.032958984,-1.0442505,-0.053771973
1602579619996,1524,-0.047851562,-1.0432739,-0.07623291
1602579620074,1525,-0.107177734,-1.0466919,-0.10357666
1602579620153,1526,-0.09692383,-1.0523071,-0.101379395
1602579620232,1527,-0.099853516,-1.0396118,-0.08721924
1602579620311,1528,-0.08618164,-1.0303345,-0.06085205
1602579620389,1529,-0.0769043,-1.0278931,-0.032287598
1602579620468,1530,-0.104003906,-1.031311,0.01361084
1602579620547,1531,-0.053955078,-1.0349731,0.04144287
1602579620626,1532,-0.043701172,-1.0379028,0.05267334
1602579620704,1533,-0.056884766,-1.0405884,0.035583496
1602579620783,1534,-0.09716797,-1.0278931,-0.031555176
1602579620862,1535,-0.12060547,-1.0305786,-0.054016113
1602579620941,1536,-0.16552734,-1.0366821,-0.05328369
1602579621019,1537,-0.12988281,-1.0508423,-0.013244629
1602579621098,1538,-0.099609375,-1.0269165,-0.0037231445
1602579621177,1539,-0.079589844,-1.0403442,-0.008605957
1602579621256,1540,-0.08618164,-1.0369263,-0.017150879
1602579621334,1541,-0.08300781,-1.0376587,-0.04937744
1602579621413,1542,-0.09448242,-1.038147,-0.057922363
1602579621492,1543,-0.095703125,-1.0376587,-0.046447754
1602579621571,1544,-0.087402344,-1.0361938,-0.038635254
1602579621649,1545,-0.09277344,-1.0413208,-0.035705566
1602579621728,1546,-0.11425781,-1.0371704,-0.038879395
1602579621807,1547,-0.14575195,-1.0349731,-0.02960205
1602579621886,1548,-0.08081055,-1.0391235,-0.01739502
1602579621964,1549,-0.079589844,-1.038147,-0.013977051
1602579622043,1550,-0.103027344,-1.0396118,-0.0178833
1602579622122,1551,-0.103271484,-1.0361938,-0.0256958
1602579622201,1552,-0.10620117,-1.0371704,-0.039611816
1602579622279,1553,-0.09472656,-1.0369263,-0.03643799
1602579622358,1554,-0.09277344,-1.0376587,-0.031555176
1602579622437,1555,-0.091308594,-1.0354614,-0.035705566
1602579622516,1556,-0.12182617,-1.0442505,-0.042541504
1602579622594,1557,-0.10913086,-1.0261841,-0.05255127
1602579622673,1558,-0.09814453,-1.0371704,-0.038146973
1602579622752,1559,-0.088134766,-1.0418091,-0.03692627
1602579622831,1560,-0.095947266,-1.0300903,-0.039123535
1602579622909,1561,-0.104003906,-1.0352173,-0.05279541
1602579622988,1562,-0.111816406,-1.0437622,-0.05230713
1602579623067,1563,-0.12133789,-1.0391235,-0.041809082
1602579623146,1564,-0.103027344,-1.03302,-0.033996582
1602579623224,1565,-0.091796875,-1.039856,-0.039123535
1602579623303,1566,-0.09765625,-1.0393677,-0.043518066
1602579623382,1567,-0.09033203,-1.03302,-0.04473877
1602579623461,1568,-0.099609375,-1.0379028,-0.04498291
1602579623539,1569,-0.099121094,-1.0366821,-0.047424316
1602579623618,1570,-0.10449219,-1.0371704,-0.050109863
1602579623697,1571,-0.096191406,-1.0403442,-0.055480957
1602579623776,1572,-0.09741211,-1.0354614,-0.04937744
1602579623854,1573,-0.09692383,-1.0391235,-0.046691895
1602579623933,1574,-0.11254883,-1.0320435,-0.042053223
1602579624012,1575,-0.11376953,-1.0403442,-0.039123535
1602579624091,1576,-0.10961914,-1.041565,-0.031311035
1602579624169,1577,-0.10913086,-1.0320435,-0.035461426
1602579624248,1578,-0.09106445,-1.0210571,-0.042053223
1602579624327,1579,-0.056640625,-1.0342407,-0.082092285
1602579624406,1580,-0.01586914,-1.0579224,-0.09088135
1602579624484,1581,-0.0056152344,-1.0586548,-0.04083252
1602579624563,1582,0.027832031,-1.02594,-0.0413208
1602579624642,1583,-0.084472656,-1.0505981,0.023864746
1602579624721,1584,0.0146484375,-1.0388794,0.022399902
1602579624799,1585,0.043945312,-1.0435181,-0.011779785
1602579624878,1586,-0.12646484,-1.0623169,0.11395264
1602579624957,1587,-0.10888672,-1.1026001,0.19451904
1602579625036,1588,-0.038330078,-1.1416626,0.24383545
1602579625114,1589,-0.08691406,-0.989563,0.184021
1602579625193,1590,-0.084472656,-0.9092407,0.3847046
1602579625272,1591,-0.063964844,-0.8147583,0.46966553
1602579625351,1592,0.0043945312,-0.78863525,0.53167725
1602579625429,1593,-0.060302734,-0.77471924,0.5133667
1602579625508,1594,-0.14111328,-0.8076782,0.5692749
1602579625587,1595,-0.1640625,-0.8081665,0.5426636
1602579625666,1596,-0.28686523,-0.7280884,0.48944092
1602579625744,1597,-0.39941406,-0.7647095,0.31195068
1602579625823,1598,-0.4411621,-0.94000244,0.29241943
1602579625902,1599,-0.47680664,-1.1167603,0.14569092
1602579625981,1600,-0.3725586,-1.1287231,0.04852295
1602579626059,1601,-0.16333008,-1.0076294,-0.057434082
1602579626138,1602,-0.14282227,-0.9898071,-0.108947754
1602579626217,1603,-0.038085938,-1.1890259,-0.03692627
1602579626296,1604,0.21972656,-1.0095825,-0.027893066
1602579626374,1605,0.03100586,-1.006897,0.039245605
1602579626453,1606,0.040283203,-1.0320435,0.10028076
1602579626532,1607,0.11425781,-1.0371704,0.06829834
1602579626611,1608,0.12060547,-1.0105591,0.13323975
1602579626689,1609,-0.09082031,-1.0598755,0.1605835
1602579626768,1610,-0.119384766,-1.2678833,0.09881592
1602579626847,1611,-0.32983398,-1.0466919,0.24188232
1602579626926,1612,0.043701172,-0.8599243,0.109558105
1602579627004,1613,-0.08984375,-0.73150635,0.3607788
1602579627083,1614,-0.39331055,-0.8110962,0.46038818
1602579627162,1615,-0.5317383,-0.86260986,0.3192749
1602579627241,1616,-0.50390625,-0.8399048,0.18499756
1602579627319,1617,-0.33911133,-1.3936157,0.14984131
1602579627398,1618,0.079589844,-0.9338989,0.08880615
1602579627477,1619,0.068603516,-1.1192017,0.09564209
1602579627556,1620,-0.0021972656,-1.0396118,0.113708496
1602579627634,1621,0.11376953,-1.00177,0.14178467
1602579627713,1622,0.07324219,-1.0159302,0.18255615
1602579627792,1623,0.0793457,-1.0339966,0.22894287
1602579627871,1624,0.14746094,-1.0730591,0.14178467
1602579627949,1625,-0.0625,-1.1609497,0.1149292
1602579628028,1626,-0.02319336,-1.0945435,0.12835693
1602579628107,1627,0.16796875,-1.0535278,0.011169434
1602579628186,1628,-0.09350586,-0.8357544,0.16107178
1602579628264,1629,-0.052246094,-0.8652954,0.11175537
1602579628343,1630,-0.16210938,-1.0715942,0.17254639
1602579628422,1631,-0.24707031,-1.0818481,0.26531982
1602579628501,1632,0.05419922,-0.89019775,0.17376709
1602579628579,1633,-0.13427734,-1.1199341,0.17254639
1602579628658,1634,-0.04345703,-0.99053955,0.19281006
1602579628737,1635,0.02319336,-1.048645,0.26531982
1602579628816,1636,-0.103515625,-0.9553833,0.2633667
1602579628894,1637,-0.033691406,-0.9717407,0.37347412
1602579628973,1638,0.088134766,-0.9170532,0.3973999
1602579629052,1639,0.12426758,-0.9402466,0.42840576
1602579629131,1640,0.0793457,-0.911438,0.40374756
1602579629209,1641,0.111816406,-0.9668579,0.4484253
1602579629288,1642,0.07495117,-0.8418579,0.46575928
1602579629367,1643,0.080566406,-0.88604736,0.46258545
1602579629446,1644,0.060791016,-0.850647,0.4725952
1602579629524,1645,-0.029785156,-0.8574829,0.4694214
1602579629603,1646,-0.015380859,-0.9390259,0.43011475
1602579629682,1647,0.03100586,-0.9985962,0.45599365
1602579629761,1648,0.0014648438,-0.98516846,0.42791748
1602579629839,1649,0.049560547,-0.9702759,0.41131592
1602579629918,1650,-0.03955078,-0.9824829,0.369812
1602579629997,1651,-0.044433594,-1.0176392,0.38885498
1602579630076,1652,0.038085938,-0.8833618,0.39837646
1602579630154,1653,0.107666016,-0.8413696,0.4159546
1602579630233,1654,0.029785156,-0.8723755,0.45281982
1602579630312,1655,-0.016601562,-0.94976807,0.46673584
1602579630391,1656,0.0056152344,-0.9656372,0.5001831
1602579630469,1657,0.041259766,-0.95269775,0.50579834
1602579630548,1658,0.024169922,-0.9873657,0.49847412
1602579630627,1659,0.0075683594,-0.95318604,0.4557495
1602579630706,1660,0.009521484,-0.9360962,0.42669678
1602579630784,1661,0.009277344,-0.90704346,0.4381714
1602579630863,1662,-0.011962891,-0.89678955,0.45135498
1602579630942,1663,0.010498047,-0.8701782,0.47747803
1602579631021,1664,0.022705078,-0.83599854,0.4887085
1602579631099,1665,0.035888672,-0.83673096,0.49749756
1602579631178,1666,-0.015380859,-0.82403564,0.5231323
1602579631257,1667,0.037597656,-0.8255005,0.5385132
1602579631336,1668,0.0949707,-0.831604,0.5187378
1602579631414,1669,0.103027344,-0.84039307,0.49847412
1602579631493,1670,0.092285156,-0.88653564,0.49822998
1602579631572,1671,0.018798828,-0.87750244,0.48529053
1602579631651,1672,0.033691406,-0.8713989,0.4833374
1602579631729,1673,0.03466797,-0.89019775,0.4694214
1602579631808,1674,2.4414062E-4,-0.9036255,0.47698975
1602579631887,1675,-0.036132812,-0.9282837,0.46722412
1602579631966,1676,-0.01977539,-0.93951416,0.44696045
1602579632044,1677,-0.047851562,-0.9541626,0.43597412
1602579632123,1678,0.010498047,-0.9290161,0.41278076
1602579632202,1679,-0.018554688,-0.9378052,0.38787842
1602579632281,1680,-0.09277344,-0.97613525,0.37249756
1602579632359,1681,-0.039794922,-0.9421997,0.38006592
1602579632438,1682,-0.021484375,-0.9534302,0.36175537
1602579632517,1683,-0.012207031,-0.98223877,0.3493042
1602579632596,1684,-0.043701172,-0.99176025,0.29730225
1602579632674,1685,-0.13720703,-1.0234985,0.2321167
1602579632753,1686,-0.08129883,-1.0315552,0.1984253
1602579632832,1687,-0.04638672,-1.0220337,0.17694092
1602579632911,1688,0.0087890625,-1.0159302,0.15423584
1602579632989,1689,0.009765625,-1.0269165,0.11468506
1602579633068,1690,0.021728516,-1.0254517,0.09832764
1602579633147,1691,0.07421875,-1.0071411,0.10345459
1602579633226,1692,0.05810547,-0.9956665,0.120788574
1602579633304,1693,0.12231445,-1.010315,0.121032715
1602579633383,1694,0.0793457,-1.0376587,0.08050537
1602579633462,1695,0.060546875,-1.0488892,0.06976318
1602579633541,1696,0.04248047,-1.0305786,0.038269043
1602579633619,1697,0.039794922,-1.0137329,0.051452637
1602579633698,1698,0.08154297,-1.0291138,0.032409668
1602579633777,1699,0.032226562,-1.0349731,0.021911621
1602579633856,1700,0.057617188,-1.0120239,0.007507324
1602579633934,1701,0.061035156,-1.0303345,0.022888184
1602579634013,1702,0.05419922,-1.0342407,0.005554199
1602579634092,1703,0.03564453,-1.0396118,0.015563965
1602579634171,1704,0.05517578,-1.02594,0.012390137
1602579634249,1705,0.043945312,-1.0300903,0.0033569336
1602579634328,1706,0.07397461,-1.0310669,0.0021362305
1602579634407,1707,0.08276367,-1.0325317,0.0053100586
1602579634486,1708,0.075927734,-1.0300903,0.009460449
1602579634564,1709,0.060058594,-1.0134888,0.055603027
1602579634643,1710,0.057861328,-1.0059204,0.07757568
1602579634722,1711,0.12060547,-1.0037231,0.08660889
1602579634801,1712,0.088134766,-0.9963989,0.097595215
1602579634879,1713,0.12060547,-0.98883057,0.042907715
1602579634958,1714,0.032958984,-1.0222778,-0.0076293945
1602579635037,1715,0.060058594,-1.2061157,-0.04083252
1602579635116,1716,-0.02319336,-1.1848755,0.12249756
1602579635194,1717,-0.052978516,-1.1265259,0.121032715
1602579635273,1718,0.10253906,-1.2988892,0.057800293
1602579635352,1719,-0.022216797,-1.2236938,0.37054443
1602579635431,1720,-0.07055664,-0.76275635,0.28045654
1602579635509,1721,-0.15209961,-0.2798462,0.28778076
1602579635588,1722,-0.118896484,-0.55596924,0.42840576
1602579635667,1723,-0.29516602,-0.9522095,0.44354248
1602579635746,1724,-0.7338867,-1.4541626,0.27679443
1602579635824,1725,0.22485352,-0.8933716,0.10736084
1602579635903,1726,0.06665039,-1.1619263,0.10028076
1602579635982,1727,-0.011230469,-1.0269165,0.062683105
1602579636061,1728,0.048583984,-1.0195923,0.042175293
1602579636139,1729,0.015380859,-1.0183716,0.0211792
1602579636218,1730,-0.06225586,-1.0205688,0.007751465
1602579636297,1731,-0.013671875,-1.0584106,-0.0335083
1602579636376,1732,0.036865234,-1.0474243,-0.047180176
1602579636454,1733,-0.033447266,-1.0403442,-0.028869629
1602579636533,1734,-0.047607422,-1.029602,-0.031555176
1602579636612,1735,-0.05908203,-1.0440063,-0.03326416
1602579636691,1736,-0.08569336,-1.0501099,-0.02960205
1602579636769,1737,-0.06591797,-1.0303345,-0.02960205
1602579636848,1738,-0.056884766,-1.041565,-0.020080566
1602579636927,1739,-0.03466797,-1.0335083,-0.045959473
1602579637006,1740,-0.084472656,-1.0410767,-0.05645752
1602579637084,1741,-0.0625,-1.041565,-0.06768799
1602579637163,1742,-0.076416016,-1.0388794,-0.05596924
1602579637242,1743,-0.040771484,-1.0335083,-0.042053223
1602579637321,1744,-0.021728516,-1.0391235,-0.035949707
1602579637399,1745,-0.036376953,-1.0427856,-0.034484863
1602579637478,1746,-0.06542969,-1.0403442,-0.07989502
1602579637557,1747,-0.053710938,-1.0366821,-0.10455322
1602579637636,1748,-0.056152344,-1.0464478,-0.10870361
1602579637714,1749,-0.041503906,-1.0457153,-0.09991455
1602579637793,1750,-0.0390625,-1.0359497,-0.0869751
1602579637872,1751,-0.048828125,-1.0396118,-0.07305908
1602579637951,1752,-0.045410156,-1.0427856,-0.05328369
1602579638029,1753,-0.015136719,-1.0383911,-0.05987549
1602579638108,1754,-0.041748047,-1.038147,-0.07183838
1602579638187,1755,-0.026367188,-1.0383911,-0.074279785
1602579638266,1756,-0.012451172,-1.0408325,-0.054992676
1602579638344,1757,-0.010498047,-1.0349731,-0.04937744
1602579638423,1758,-0.038085938,-1.0393677,-0.055480957
1602579638502,1759,-0.016357422,-1.0393677,-0.04888916
1602579638581,1760,-0.011962891,-1.0403442,-0.054748535
1602579638659,1761,-0.0056152344,-1.0335083,-0.054504395
1602579638738,1762,-0.017089844,-1.0379028,-0.046447754
1602579638817,1763,0.005126953,-1.0354614,-0.047180176
1602579638896,1764,-0.012451172,-1.0374146,-0.05987549
1602579638974,1765,-0.036132812,-1.0430298,-0.04473877
1602579639053,1766,-0.02734375,-1.041565,-0.031311035
1602579639132,1767,-0.016601562,-1.0427856,-0.042053223
1602579639211,1768,-0.038085938,-1.0357056,-0.03643799
1602579639289,1769,-0.041503906,-1.0322876,-0.018859863
1602579639368,1770,-0.016845703,-1.0403442,-0.015686035
1602579639447,1771,-0.022216797,-1.0437622,-0.0256958
1602579639526,1772,-0.018066406,-1.0361938,-0.022277832
1602579639604,1773,-0.013183594,-1.0388794,-0.01763916
1602579639683,1774,-0.053955078,-1.0386353,-0.031066895
1602579639762,1775,-0.088378906,-1.041565,-0.024963379
1602579639841,1776,-0.024414062,-1.0371704,-0.00982666
1602579639919,1777,-0.025634766,-1.0366821,0.0045776367
1602579639998,1778,-0.016845703,-1.036438,-0.023010254
1602579640077,1779,-0.028320312,-1.0396118,-0.024963379
1602579640156,1780,-0.04296875,-1.0405884,-0.035217285
1602579640234,1781,-0.03515625,-1.0420532,-0.032043457
1602579640313,1782,-0.027832031,-1.0405884,-0.020568848
1602579640392,1783,-0.024169922,-1.0376587,-0.028381348
1602579640471,1784,-0.017822266,-1.0388794,-0.027404785
1602579640549,1785,-0.01953125,-1.0386353,-0.032287598
1602579640628,1786,-0.043701172,-1.0393677,-0.04107666
1602579640707,1787,-0.02758789,-1.0386353,-0.04034424
1602579640786,1788,-0.03857422,-1.038147,-0.032287598
1602579640864,1789,-0.041015625,-1.0410767,-0.035949707
1602579640943,1790,-0.01977539,-1.0418091,-0.030090332
1602579641022,1791,-0.049072266,-1.0366821,-0.030334473
1602579641101,1792,-0.06616211,-1.0388794,-0.02178955
1602579641194,1793,-0.013427734,-1.038147,-0.014221191
1602579641288,1794,-0.02709961,-1.0359497,-0.005432129
1602579641382,1795,-0.010986328,-1.0371704,-0.019836426
1602579641475,1796,-0.0063476562,-1.0376587,-0.013244629
1602579641569,1797,-0.04736328,-1.0396118,-0.01373291
1602579641663,1798,-0.05834961,-1.0418091,-0.020568848
1602579641756,1799,-0.020507812,-1.03302,-0.0095825195
1602579641850,1800,-0.044433594,-1.0374146,-0.002746582
1602579641944,1801,-0.036376953,-1.0427856,-0.024230957
1602579642037,1802,-0.0087890625,-1.0393677,-0.026184082
1602579642131,1803,-0.041259766,-1.0369263,-0.02545166
1602579642225,1804,-0.044677734,-1.0366821,-0.032287598
1602579642318,1805,-0.036376953,-1.0401001,-0.032043457
1602579642412,1806,-0.01953125,-1.0386353,-0.03302002
1602579642506,1807,0.0063476562,-1.0391235,-0.023498535
1602579642600,1808,-0.016357422,-1.0361938,-0.035217285
1602579642693,1809,-0.07055664,-1.0432739,-0.031311035
1602579642787,1810,-0.06762695,-1.0430298,-0.027404785
1602579642881,1811,-0.044677734,-1.0379028,-0.012756348
1602579642974,1812,-0.032470703,-1.0393677,-0.0068969727
1602579643068,1813,-0.02368164,-1.039856,0.001159668
1602579643162,1814,-0.05517578,-1.0354614,-0.012268066
1602579643255,1815,-0.088378906,-1.0396118,-0.0017700195
1602579643349,1816,-0.041748047,-1.0342407,0.0040893555
1602579643443,1817,-0.07128906,-1.0386353,0.008728027
1602579643536,1818,-0.07055664,-1.0369263,-0.0029907227
1602579643630,1819,-0.05444336,-1.0352173,0.0072631836
1602579643724,1820,-0.0625,-1.0374146,0.0033569336
1602579643817,1821,-0.07397461,-1.0354614,-0.007385254
1602579643911,1822,-0.08642578,-1.0366821,-0.013244629
1602579644005,1823,-0.08959961,-1.0405884,-0.019348145
1602579644099,1824,-0.064208984,-1.0357056,-0.02178955
1602579644177,1825,-0.056396484,-1.0393677,-0.012023926
1602579644256,1826,-0.08105469,-1.0418091,-0.018371582
1602579644335,1827,-0.079589844,-1.0427856,-0.031066895
1602579644414,1828,-0.06982422,-1.0408325,-0.03253174
1602579644492,1829,-0.056640625,-1.0393677,-0.022033691
1602579644571,1830,-0.052734375,-1.0410767,-0.016662598
1602579644650,1831,-0.0769043,-1.0401001,-0.03668213
1602579644729,1832,-0.087890625,-1.0479126,-0.039855957
1602579644807,1833,-0.08642578,-1.0435181,-0.039367676
1602579644886,1834,-0.053710938,-1.0391235,-0.030822754
1602579644965,1835,-0.079833984,-1.0369263,-0.014953613
1602579645044,1836,-0.08203125,-1.0391235,-0.005432129
1602579645122,1837,-0.08129883,-1.0371704,0.001159668
1602579645201,1838,-0.08178711,-1.0420532,0.00579834
1602579645280,1839,-0.107421875,-1.0393677,0.012878418
1602579645359,1840,-0.11010742,-1.0379028,0.0060424805
1602579645437,1841,-0.08544922,-1.0361938,0.012390137
1602579645516,1842,-0.05883789,-1.0266724,0.036071777
1602579645595,1843,-0.06738281,-1.036438,0.039733887
1602579645674,1844,-0.09716797,-1.0432739,0.018249512
1602579645752,1845,-0.10498047,-1.0427856,-0.0064086914
1602579645831,1846,-0.07055664,-1.0376587,-0.0071411133
1602579645910,1847,-0.07543945,-1.0354614,0.01361084
1602579645989,1848,-0.092041016,-1.0505981,-0.003967285
1602579646067,1849,-0.114746094,-1.0418091,-0.019592285
1602579646146,1850,-0.095458984,-1.0064087,0.004333496
1602579646225,1851,-0.07543945,-1.0200806,0.11077881
1602579646304,1852,-0.084472656,-1.0213013,0.19769287
1602579646382,1853,-0.15014648,-1.02594,0.17791748
1602579646461,1854,-0.18945312,-1.0161743,0.1708374
1602579646540,1855,-0.16796875,-1.015686,0.15350342
1602579646619,1856,-0.17504883,-1.0178833,0.13323975
1602579646697,1857,-0.17333984,-1.0232544,0.11566162
1602579646776,1858,-0.1394043,-1.0256958,0.105163574
1602579646855,1859,-0.14648438,-1.0230103,0.11102295
1602579646934,1860,-0.118652344,-1.0286255,0.09466553
1602579647012,1861,-0.1184082,-1.0291138,0.09515381
1602579647091,1862,-0.10644531,-1.0256958,0.0848999
1602579647170,1863,-0.1003418,-1.0305786,0.08270264
1602579647249,1864,-0.107910156,-1.0266724,0.08074951
1602579647327,1865,-0.11352539,-1.0291138,0.07220459
1602579647406,1866,-0.106933594,-1.0366821,0.043884277
1602579647485,1867,-0.1430664,-1.0361938,0.042907715
1602579647564,1868,-0.1184082,-1.036438,0.03729248
1602579647642,1869,-0.13745117,-1.0310669,0.049987793
1602579647721,1870,-0.13232422,-1.0322876,0.04144287
1602579647800,1871,-0.13842773,-1.0374146,0.05731201
1602579647879,1872,-0.19335938,-1.062561,0.097839355
1602579647957,1873,-0.2644043,-1.0759888,0.15350342
1602579648036,1874,-0.19873047,-1.0120239,0.2814331
1602579648115,1875,-0.075683594,-0.895813,0.16400146
1602579648194,1876,-0.30419922,-0.8394165,0.21917725
1602579648272,1877,-0.45410156,-0.9143677,0.25946045
1602579648351,1878,-0.5788574,-0.89923096,0.26287842
1602579648430,1879,-0.52490234,-0.8357544,0.26434326
1602579648509,1880,-0.32788086,-1.3135376,0.4232788
1602579648587,1881,0.052490234,-0.9229126,-0.08404541
1602579648666,1882,-0.036376953,-1.0671997,0.09539795
1602579648745,1883,-0.072265625,-1.0491333,0.1762085
1602579648824,1884,-0.095458984,-1.00177,0.20037842
1602579648902,1885,-0.18017578,-0.97369385,0.24163818
1602579648981,1886,0.068359375,-1.0383911,0.17816162
1602579649060,1887,-0.06591797,-1.0220337,0.12738037
1602579649139,1888,-0.08911133,-1.0317993,0.059753418
1602579649217,1889,-0.043945312,-1.0484009,-0.027404785
1602579649296,1890,-0.20654297,-1.0342407,-0.012512207
1602579649375,1891,-0.103271484,-1.0496216,-0.046447754
1602579649454,1892,-0.0546875,-1.0432739,-0.03668213
1602579649532,1893,-0.037597656,-1.0354614,-0.035461426
1602579649611,1894,-0.04736328,-1.0354614,-0.06011963
1602579649690,1895,-0.064453125,-1.0374146,-0.06402588
1602579649769,1896,-0.023925781,-1.0379028,-0.070617676
1602579649847,1897,-0.044189453,-1.0427856,-0.06719971
1602579649926,1898,-0.057617188,-1.0374146,-0.073791504
1602579650005,1899,-0.036865234,-1.0408325,-0.058410645
1602579650084,1900,-0.028076172,-1.0374146,-0.050354004
1602579650162,1901,-0.0068359375,-1.0396118,-0.05670166
1602579650241,1902,-0.04272461,-1.041565,-0.05987549
1602579650320,1903,-0.052978516,-1.0383911,-0.066467285
1602579650399,1904,-0.059326172,-1.0405884,-0.06866455
1602579650477,1905,-0.02758789,-1.0391235,-0.06500244
1602579650556,1906,-0.025634766,-1.0374146,-0.05206299
1602579650635,1907,-0.032226562,-1.0408325,-0.065979004
1602579650714,1908,-0.045410156,-1.0435181,-0.07598877
1602579650792,1909,-0.038330078,-1.0435181,-0.07232666
1602579650871,1910,-0.03466797,-1.0352173,-0.06549072
1602579650950,1911,-0.033691406,-1.0403442,-0.059387207
1602579651029,1912,-0.048828125,-1.041565,-0.070373535
1602579651107,1913,-0.036621094,-1.036438,-0.06573486
1602579651186,1914,-0.026123047,-1.0376587,-0.050109863
1602579651265,1915,-0.037109375,-1.0379028,-0.04547119
1602579651344,1916,-0.060058594,-1.0413208,-0.06304932
1602579651422,1917,-0.041259766,-1.0391235,-0.07330322
1602579651501,1918,-0.038330078,-1.0342407,-0.06427002
1602579651580,1919,-0.036865234,-1.0352173,-0.043762207
1602579651659,1920,-0.037353516,-1.0388794,-0.04156494
1602579651737,1921,-0.049072266,-1.0418091,-0.059387207
1602579651816,1922,-0.052246094,-1.0391235,-0.07598877
1602579651895,1923,-0.057861328,-1.036438,-0.059387207
1602579651974,1924,-0.041992188,-1.0413208,-0.05328369
1602579652052,1925,-0.028076172,-1.0379028,-0.054748535
1602579652131,1926,-0.028076172,-1.0413208,-0.057434082
1602579652210,1927,-0.028076172,-1.0349731,-0.05303955
1602579652289,1928,-0.045654297,-1.0403442,-0.05718994
1602579652367,1929,-0.056396484,-1.0386353,-0.055725098
1602579652446,1930,-0.044189453,-1.0393677,-0.0647583
1602579652525,1931,-0.04711914,-1.0361938,-0.06109619
1602579652604,1932,-0.07324219,-1.036438,-0.0635376
1602579652682,1933,-0.052246094,-1.0376587,-0.07232666
1602579652761,1934,-0.037109375,-1.0359497,-0.04473877
1602579652840,1935,-0.0234375,-1.038147,-0.04522705
1602579652919,1936,-0.038085938,-1.0408325,-0.043029785
1602579652997,1937,-0.053466797,-1.0420532,-0.05987549
1602579653076,1938,-0.076416016,-1.038147,-0.070129395
1602579653155,1939,-0.061767578,-1.0349731,-0.061340332
1602579653234,1940,-0.049560547,-1.0386353,-0.055236816
1602579653312,1941,-0.060058594,-1.0405884,-0.062561035
1602579653391,1942,-0.061035156,-1.0427856,-0.06524658
1602579653470,1943,-0.014892578,-1.0391235,-0.066467285
1602579653549,1944,-0.034423828,-1.041565,-0.06378174
1602579653627,1945,-0.05834961,-1.0403442,-0.06866455
1602579653706,1946,-0.04321289,-1.0396118,-0.062805176
1602579653785,1947,-0.02734375,-1.036438,-0.051086426
1602579653864,1948,-0.05419922,-1.039856,-0.051330566
1602579653942,1949,-0.056152344,-1.0393677,-0.058654785
1602579654021,1950,-0.05810547,-1.0388794,-0.04083252
1602579654100,1951,-0.059570312,-1.039856,-0.041809082
1602579654179,1952,-0.0715332,-1.0388794,-0.054748535
1602579654257,1953,-0.07885742,-1.0393677,-0.05328369
1602579654336,1954,-0.056640625,-1.039856,-0.04864502
1602579654415,1955,-0.0690918,-1.0357056,-0.038146973
1602579654494,1956,-0.04345703,-1.041565,-0.04522705
1602579654572,1957,-0.07861328,-1.0366821,-0.053771973
1602579654651,1958,-0.10888672,-1.039856,-0.06011963
1602579654730,1959,-0.07080078,-1.0359497,-0.055236816
1602579654809,1960,-0.08178711,-1.0376587,-0.039611816
1602579654887,1961,-0.06713867,-1.0386353,-0.054260254
1602579654966,1962,-0.083984375,-1.0393677,-0.046691895
1602579655045,1963,-0.05053711,-1.0386353,-0.046691895
1602579655124,1964,-0.057617188,-1.0413208,-0.045715332
1602579655202,1965,-0.068115234,-1.0401001,-0.06036377
1602579655281,1966,-0.07763672,-1.0418091,-0.073791504
1602579655360,1967,-0.08496094,-1.0388794,-0.074035645
1602579655439,1968,-0.075683594,-1.0391235,-0.0635376
1602579655517,1969,-0.067871094,-1.0396118,-0.047668457
1602579655596,1970,-0.05834961,-1.0388794,-0.04425049
1602579655675,1971,-0.05859375,-1.038147,-0.05328369
1602579655754,1972,-0.067871094,-1.0393677,-0.05621338
1602579655832,1973,-0.064697266,-1.0391235,-0.0491333
1602579655911,1974,-0.0690918,-1.0386353,-0.050842285
1602579655990,1975,-0.09423828,-1.0413208,-0.051574707
1602579656069,1976,-0.09375,-1.0361938,-0.058898926
1602579656147,1977,-0.067871094,-1.0391235,-0.046691895
1602579656226,1978,-0.072753906,-1.039856,-0.04522705
1602579656305,1979,-0.09790039,-1.0388794,-0.054504395
1602579656384,1980,-0.08935547,-1.0418091,-0.053771973
1602579656462,1981,-0.095703125,-1.0403442,-0.04840088
1602579656541,1982,-0.09741211,-1.0357056,-0.04840088
1602579656620,1983,-0.05126953,-1.0449829,-0.07550049
1602579656699,1984,-0.028564453,-1.0457153,-0.081848145
1602579656777,1985,-0.030761719,-1.0291138,-0.04547119
1602579656856,1986,-0.056396484,-1.0435181,0.0524292
1602579656935,1987,-0.047607422,-1.0422974,0.048034668
1602579657014,1988,-0.06958008,-1.0261841,-0.0037231445
1602579657092,1989,-0.0625,-1.0352173,-0.012512207
1602579657171,1990,-0.040283203,-1.0335083,0.0014038086
1602579657250,1991,0.009033203,-1.0447388,0.018493652
1602579657329,1992,-0.022460938,-1.0401001,0.012878418
1602579657407,1993,-0.033691406,-1.0359497,0.011169434
1602579657486,1994,-0.03515625,-1.0366821,-0.01763916
1602579657565,1995,-0.10205078,-1.0337524,-0.019836426
1602579657644,1996,-0.1015625,-1.0349731,-0.017150879
1602579657722,1997,-0.075927734,-1.0366821,-0.011291504
1602579657801,1998,-0.07324219,-1.0344849,-0.012023926
1602579657880,1999,-0.072265625,-1.0391235,-0.013244629
1602579657959,2000,-0.09667969,-1.0413208,-0.030334473
1602579658037,2001,-0.123046875,-1.0435181,-0.035461426
1602579658116,2002,-0.15527344,-1.0371704,-0.04840088
1602579658195,2003,-0.1862793,-1.0232544,-0.057434082
1602579658274,2004,-0.20141602,-1.0447388,-0.058898926
1602579658352,2005,-0.21020508,-1.0266724,-0.07574463
1602579658431,2006,-0.18676758,-1.0132446,-0.06695557
1602579658510,2007,-0.17236328,-1.0344849,-0.06402588
1602579658589,2008,-0.19628906,-1.0383911,-0.069885254
1602579658667,2009,-0.19116211,-1.0300903,-0.06866455
1602579658746,2010,-0.18481445,-1.0217896,-0.062805176
1602579658825,2011,-0.16552734,-1.0217896,-0.06036377
1602579658904,2012,-0.1821289,-1.0266724,-0.06842041
1602579658982,2013,-0.20458984,-1.0339966,-0.08380127
1602579659061,2014,-0.20458984,-1.029602,-0.08721924
1602579659140,2015,-0.18603516,-1.0501099,-0.07867432
1602579659219,2016,-0.15136719,-1.0164185,-0.04840088
1602579659315,2017,-0.1538086,-1.0183716,-0.055236816
1602579659411,2018,-0.20166016,-1.0337524,-0.0791626
1602579659507,2019,-0.20825195,-1.0410767,-0.08111572
1602579659604,2020,-0.19873047,-1.0110474,-0.055236816
1602579659700,2021,-0.23486328,-1.0095825,-0.078186035
1602579659796,2022,-0.3269043,-1.0132446,-0.07086182
1602579659893,2023,-0.23242188,-0.9968872,0.0065307617
1602579659989,2024,-0.20117188,-0.9951782,-0.005432129
1602579660085,2025,-0.35961914,-1.0547485,0.059020996
1602579660182,2026,-0.17504883,-1.0339966,-0.20391846
1602579660278,2027,-0.3779297,-1.0877075,0.03729248
1602579660374,2028,-0.051513672,-0.99884033,-0.09869385
1602579660471,2029,0.068115234,-1.0369263,-0.097717285
1602579660567,2030,0.018066406,-1.062561,-0.03741455
1602579660663,2031,-0.12988281,-1.0308228,0.06512451
1602579660760,2032,-0.05834961,-0.99884033,0.19281006
1602579660856,2033,0.17797852,-0.9397583,0.31878662
1602579660952,2034,0.020263672,-0.9229126,0.6012573
1602579661048,2035,-0.15478516,-0.7263794,0.6486206
1602579661145,2036,-0.04345703,-0.7642212,0.6793823
1602579661241,2037,-0.2565918,-0.7788696,0.57244873
1602579661337,2038,-0.3046875,-0.76397705,0.5873413
1602579661434,2039,-0.31079102,-0.8052368,0.619812
1602579661530,2040,-0.34838867,-0.7498169,0.63616943
1602579661626,2041,-0.31323242,-0.79522705,0.61639404
1602579661723,2042,-0.2368164,-0.78741455,0.5927124
1602579661819,2043,-0.19824219,-0.80426025,0.5519409
1602579661915,2044,-0.12963867,-0.8320923,0.52996826
1602579662012,2045,-0.13842773,-0.87872314,0.4935913
1602579662108,2046,-0.08642578,-0.8748169,0.46697998
1602579662204,2047,-0.055419922,-0.8616333,0.49945068
1602579662301,2048,-0.0234375,-0.90875244,0.45135498
1602579662379,2049,-0.020996094,-0.9224243,0.4105835
1602579662458,2050,-0.033203125,-0.9487915,0.40203857
1602579662537,2051,0.05444336,-0.9331665,0.3619995
1602579662616,2052,0.09082031,-0.9483032,0.34857178
1602579662694,2053,0.041748047,-0.9812622,0.28216553
1602579662773,2054,0.08886719,-0.98760986,0.27313232
1602579662852,2055,0.10205078,-0.96588135,0.26556396
1602579662931,2056,0.055908203,-0.9871216,0.25994873
1602579663009,2057,0.072509766,-1.000061,0.2399292
1602579663088,2058,0.034179688,-0.97784424,0.25726318
1602579663167,2059,0.09692383,-1.0149536,0.21429443
1602579663246,2060,0.083496094,-1.050354,0.17889404
1602579663324,2061,-0.028808594,-1.0667114,0.14813232
1602579663403,2062,0.028076172,-1.02594,0.14569092
1602579663482,2063,0.043701172,-1.0447388,0.11834717
1602579663561,2064,-0.03125,-1.0315552,0.07879639
1602579663639,2065,0.0056152344,-1.0195923,0.051452637
1602579663718,2066,0.041015625,-1.0239868,0.054626465
1602579663797,2067,0.052978516,-1.0532837,-0.012756348
1602579663876,2068,-0.08129883,-1.0283813,-0.01373291
1602579663954,2069,-0.0949707,-1.0354614,0.010437012
1602579664033,2070,-0.053710938,-1.0322876,0.005065918
1602579664112,2071,-0.07885742,-1.0535278,0.022644043
1602579664191,2072,-0.064941406,-1.0730591,-0.0025024414
1602579664269,2073,-0.110839844,-1.0464478,-0.0017700195
1602579664348,2074,-0.07885742,-1.0122681,0.012145996
1602579664427,2075,-0.048095703,-0.98028564,0.007507324
1602579664506,2076,-0.056884766,-1.0188599,0.005065918
1602579664584,2077,-0.10253906,-1.0684204,0.023132324
1602579664663,2078,-0.08984375,-1.0715942,0.03265381
1602579664742,2079,-0.067871094,-1.0444946,0.04534912
1602579664821,2080,-0.06689453,-1.0857544,0.11566162
1602579664899,2081,-0.25756836,-1.0505981,0.24603271
1602579664978,2082,-0.19067383,-0.98394775,0.1281128
1602579665057,2083,-0.10424805,-0.89312744,0.13153076
1602579665136,2084,-0.2783203,-0.86920166,0.082458496
1602579665214,2085,-0.5058594,-0.9788208,0.15106201
1602579665293,2086,-0.4885254,-1.0425415,0.05999756
1602579665372,2087,-0.32910156,-1.12677,-0.04864502
1602579665451,2088,-0.1850586,-1.1231079,0.04168701
1602579665529,2089,0.009521484,-0.97125244,-0.08892822
1602579665608,2090,0.13354492,-1.0513306,-0.011779785
1602579665687,2091,0.09106445,-1.0496216,-0.007385254
1602579665766,2092,-0.044433594,-1.0386353,0.09124756
1602579665844,2093,-0.27563477,-0.9939575,0.19281006
1602579665923,2094,0.12060547,-1.2332153,0.3390503
1602579666002,2095,-0.118652344,-0.93634033,0.32025146
1602579666081,2096,0.06274414,-0.76348877,0.3065796
1602579666159,2097,-0.328125,-0.8040161,0.33294678
1602579666238,2098,-0.43798828,-0.881897,0.3756714
1602579666317,2099,-0.39379883,-0.7998657,0.3397827
1602579666396,2100,-0.4633789,-0.9390259,0.42132568
1602579666474,2101,-0.43310547,-1.2217407,0.081970215
1602579666553,2102,0.013671875,-0.92388916,0.047546387
1602579666632,2103,0.0793457,-1.145813,0.19696045
1602579666711,2104,0.05908203,-1.0193481,0.030700684
1602579666789,2105,-0.025634766,-1.045227,0.0045776367
1602579666868,2106,-4.8828125E-4,-1.0405884,0.07366943
1602579666947,2107,-0.047607422,-1.0422974,0.08441162
1602579667026,2108,-0.11621094,-1.0247192,0.058044434
1602579667104,2109,0.071777344,-1.09552,0.05999756
1602579667183,2110,-0.16357422,-1.12677,0.12908936
1602579667262,2111,-0.23754883,-1.0501099,0.3949585
1602579667341,2112,0.056152344,-0.9026489,0.1473999
1602579667419,2113,-0.18798828,-0.80010986,0.199646
1602579667498,2114,-0.24707031,-0.9639282,0.31488037
1602579667577,2115,-0.3864746,-0.9819946,0.16400146
1602579667656,2116,-0.3293457,-0.9961548,0.13348389
1602579667734,2117,-0.3088379,-1.0054321,0.12713623
1602579667813,2118,0.15942383,-1.1953735,-0.008117676
1602579667892,2119,-0.10546875,-1.0210571,0.070251465
1602579667971,2120,0.15112305,-0.96832275,0.023132324
1602579668049,2121,0.068603516,-1.0476685,0.05706787
1602579668128,2122,0.0061035156,-1.0574341,0.06903076
1602579668207,2123,-0.02368164,-0.9961548,0.13787842
1602579668286,2124,-0.005859375,-1.0405884,0.19793701
1602579668364,2125,-0.059814453,-1.0601196,0.2267456
1602579668443,2126,-0.087890625,-1.0078735,0.23577881
1602579668522,2127,-0.1262207,-1.005188,0.2230835
1602579668601,2128,-0.0769043,-1.0144653,0.16741943
1602579668679,2129,-0.09326172,-1.0198364,0.14007568
1602579668758,2130,-0.057373047,-1.022522,0.14300537
1602579668837,2131,-0.05493164,-1.0286255,0.18499756
1602579668916,2132,-0.072753906,-1.0213013,0.16278076
1602579668994,2133,-0.07714844,-1.0371704,0.1515503
1602579669073,2134,-0.16601562,-0.99664307,0.12371826
1602579669152,2135,-0.018066406,-1.0410767,-0.002746582
1602579669231,2136,-0.24804688,-1.0559692,-0.042053223
1602579669309,2137,-0.35107422,-1.1328735,0.078063965
1602579669388,2138,-0.24536133,-0.9937134,-0.00982666
1602579669467,2139,-0.16748047,-0.9727173,0.020202637
1602579669546,2140,-0.19042969,-0.9963989,0.0067749023
1602579669624,2141,-0.2097168,-0.9837036,0.17645264
1602579669703,2142,-0.17041016,-1.020813,-0.0071411133
1602579669782,2143,-0.27490234,-1.0567017,0.15350342
1602579669861,2144,-0.08984375,-1.038147,0.05706787
1602579669939,2145,-0.10595703,-1.0271606,0.05218506
1602579670018,2146,-0.20214844,-1.0200806,0.049987793
1602579670097,2147,-0.17529297,-1.0349731,0.045837402
1602579670176,2148,-0.10864258,-1.0371704,0.035827637
1602579670254,2149,-0.13500977,-1.0440063,0.051696777
1602579670333,2150,-0.10473633,-1.0205688,0.022888184
1602579670412,2151,-0.12817383,-1.0342407,0.05316162
1602579670491,2152,-0.11279297,-1.0410767,0.036315918
1602579670569,2153,-0.11450195,-1.019104,0.030700684
1602579670648,2154,-0.11035156,-1.0344849,0.007751465
1602579670727,2155,-0.114746094,-1.0230103,0.0016479492
1602579670806,2156,-0.071777344,-1.0442505,0.021911621
1602579670884,2157,-0.13427734,-1.0591431,0.026550293
1602579670963,2158,-0.13452148,-1.0217896,0.012634277
1602579671042,2159,-0.06933594,-1.0369263,0.015563965
1602579671121,2160,-0.06982422,-1.0322876,0.02166748
1602579671199,2161,-0.11206055,-1.0376587,0.02166748
1602579671278,2162,-0.13378906,-1.0386353,-0.0020141602
1602579671357,2163,-0.14379883,-1.0344849,-0.003967285
1602579671436,2164,-0.119140625,-1.0369263,0.005065918
1602579671514,2165,-0.11035156,-1.0337524,0.016784668
1602579671593,2166,-0.123291016,-1.0422974,0.012878418
1602579671672,2167,-0.14575195,-1.0371704,0.004333496
1602579671751,2168,-0.13842773,-1.0337524,0.008728027
1602579671829,2169,-0.10131836,-1.0315552,0.028259277
1602579671908,2170,-0.08666992,-1.0276489,0.04852295
1602579671987,2171,-0.12133789,-1.0386353,0.03363037
1602579672066,2172,-0.16186523,-1.0449829,0.019226074
1602579672144,2173,-0.16772461,-1.0325317,0.012878418
1602579672223,2174,-0.15332031,-1.0217896,0.014587402
1602579672302,2175,-0.15258789,-1.0369263,0.02532959
1602579672381,2176,-0.118652344,-1.031311,0.04901123
1602579672459,2177,-0.10058594,-1.0374146,0.066833496
1602579672538,2178,-0.11621094,-1.0239868,0.051452637
1602579672617,2179,-0.12939453,-1.022522,0.050964355
1602579672696,2180,-0.12646484,-1.034729,0.058044434
1602579672774,2181,-0.123291016,-1.0357056,0.05731201
1602579672853,2182,-0.13012695,-1.0269165,0.06561279
1602579672932,2183,-0.13183594,-1.0308228,0.06072998
1602579673011,2184,-0.15307617,-1.0325317,0.049987793
1602579673089,2185,-0.12988281,-1.0227661,0.051696777
1602579673168,2186,-0.13549805,-1.0300903,0.054138184
1602579673247,2187,-0.14428711,-1.022522,0.06439209
1602579673326,2188,-0.11694336,-1.0342407,0.06439209
1602579673404,2189,-0.13745117,-1.0369263,0.07537842
1602579673483,2190,-0.14453125,-1.0239868,0.05340576
1602579673562,2191,-0.1303711,-1.0183716,0.050964355
1602579673641,2192,-0.14624023,-1.0459595,0.053894043
1602579673719,2193,-0.14355469,-1.0247192,0.053894043
1602579673798,2194,-0.12573242,-1.0325317,0.061462402
1602579673877,2195,-0.15063477,-1.0300903,0.055358887
1602579673956,2196,-0.13354492,-1.0220337,0.06585693
1602579674034,2197,-0.107666016,-1.0271606,0.08685303
1602579674113,2198,-0.10083008,-1.029602,0.09295654
1602579674192,2199,-0.088378906,-1.0322876,0.113464355
1602579674271,2200,-0.08178711,-1.0425415,0.16131592
1602579674349,2201,-0.028320312,-1.0911255,0.20404053
1602579674428,2202,-0.025146484,-1.0762329,0.17010498
1602579674507,2203,0.068847656,-1.065979,0.17181396
1602579674586,2204,-0.10546875,-0.9380493,0.2074585
1602579674664,2205,-0.095458984,-0.8772583,0.22869873
1602579674743,2206,-0.057861328,-0.83673096,0.28338623
1602579674822,2207,-0.04711914,-0.81378174,0.30511475
1602579674901,2208,0.2055664,-1.1463013,0.15350342
1602579674979,2209,-0.37939453,-1.2039185,0.085632324
1602579675058,2210,0.17895508,-1.1541138,-0.15899658
1602579675137,2211,-0.1772461,-1.0249634,0.047058105
1602579675216,2212,-0.076171875,-1.0654907,-0.066223145
1602579675294,2213,0.1706543,-1.125061,-0.03277588
1602579675373,2214,-0.14038086,-1.1550903,0.023620605
1602579675452,2215,-0.123046875,-0.89508057,0.16741943
1602579675531,2216,0.084472656,-1.1004028,0.21331787
1602579675609,2217,0.23950195,-0.9404907,0.24090576
1602579675688,2218,-0.088134766,-0.75250244,0.32366943
1602579675767,2219,-0.06640625,-1.0112915,0.3222046
1602579675846,2220,-0.43823242,-0.82281494,0.31219482
1602579675924,2221,-0.4248047,-0.9661255,0.19598389
1602579676003,2222,-0.2055664,-1.3269653,0.2374878
1602579676082,2223,0.09667969,-1.0637817,-0.24029541
1602579676161,2224,0.16503906,-1.0967407,-0.01373291
1602579676239,2225,0.18798828,-0.9746704,0.27459717
1602579676318,2226,-0.12036133,-0.99591064,0.3156128
1602579676397,2227,-0.19189453,-1.1026001,0.18621826
1602579676476,2228,-0.107666016,-1.1621704,0.34906006
1602579676554,2229,0.020263672,-0.84088135,0.15252686
1602579676633,2230,-0.02734375,-0.7529907,0.21795654
1602579676712,2231,-0.23291016,-0.9187622,0.26531982
1602579676791,2232,-0.33911133,-0.99713135,0.48382568
1602579676869,2233,-0.3203125,-0.99176025,-0.058898926
1602579676948,2234,-0.28588867,-1.2788696,0.10003662
1602579677027,2235,-0.020507812,-0.94976807,-0.11016846
1602579677106,2236,0.06518555,-1.0215454,-0.07183838
