# Sensor position: Front pocket (trouser)
# Sensor side: Left
# Activity type: Movement
# Activity code: 9
# Subject id: s1758499
timestamp,seq,accel_x,accel_y,accel_z
1602701911547,0,0.10668945,-0.7161255,-0.22393799
1602701911557,1,0.10668945,-0.7161255,-0.22393799
1602701911558,2,0.10668945,-0.7161255,-0.22393799
1602701911559,3,-0.4243164,-1.06427,-0.003967285
1602701911559,4,-0.4243164,-1.06427,-0.003967285
1602701911559,5,-0.4243164,-1.06427,-0.003967285
1602701911560,6,-0.18115234,-0.93048096,0.09490967
1602701911560,7,-0.18115234,-0.93048096,0.09490967
1602701911562,8,-0.18115234,-0.93048096,0.09490967
1602701911565,9,-0.33203125,-0.9331665,-0.047912598
1602701911569,10,-0.33203125,-0.9331665,-0.047912598
1602701911569,11,-0.33203125,-0.9331665,-0.047912598
1602701911570,12,-0.40014648,-1.0908813,0.1005249
1602701911574,13,-0.40014648,-1.0908813,0.1005249
1602701911580,14,-0.40014648,-1.0908813,0.1005249
1602701911581,15,-0.5686035,-1.352356,0.11590576
1602701911588,16,-0.5686035,-1.352356,0.11590576
1602701911589,17,0.119384766,-1.3359985,-0.06036377
1602701911589,18,-0.5686035,-1.352356,0.11590576
1602701911589,19,-0.44555664,-1.0435181,-0.19024658
1602701911589,20,0.119384766,-1.3359985,-0.06036377
1602701911590,21,0.119384766,-1.3359985,-0.06036377
1602701911597,22,-0.028808594,-0.7908325,-0.08843994
1602701911598,23,-0.44555664,-1.0435181,-0.19024658
1602701911599,24,-0.44555664,-1.0435181,-0.19024658
1602701911599,25,0.10522461,-0.44122314,-0.019348145
1602701911600,26,-0.028808594,-0.7908325,-0.08843994
1602701911605,27,-0.028808594,-0.7908325,-0.08843994
1602701911606,28,-0.100097656,-1.3381958,0.68573
1602701911606,29,0.10522461,-0.44122314,-0.019348145
1602701911607,30,0.10522461,-0.44122314,-0.019348145
1602701911615,31,0.12402344,-1.2129517,0.18988037
1602701911616,32,-0.100097656,-1.3381958,0.68573
1602701911616,33,-0.100097656,-1.3381958,0.68573
1602701911616,34,-0.09082031,-0.8755493,-0.21954346
1602701911616,35,-0.41601562,-1.1489868,-0.04937744
1602701911617,36,0.12402344,-1.2129517,0.18988037
1602701911617,37,0.12402344,-1.2129517,0.18988037
1602701911621,38,-0.08862305,-0.8921509,-0.0713501
1602701911622,39,-0.09082031,-0.8755493,-0.21954346
1602701911622,40,-0.09082031,-0.8755493,-0.21954346
1602701911622,41,-0.24707031,-0.94317627,-0.09649658
1602701911624,42,-0.41601562,-1.1489868,-0.04937744
1602701911626,43,-0.15258789,-0.98809814,0.06097412
1602701911629,44,-0.08862305,-0.8921509,-0.0713501
1602701911629,45,-0.41601562,-1.1489868,-0.04937744
1602701911629,46,-0.5187988,-1.0952759,0.08734131
1602701911631,47,-0.24707031,-0.94317627,-0.09649658
1602701911633,48,-0.3996582,-1.2637329,0.11956787
1602701911634,49,-0.15258789,-0.98809814,0.06097412
1602701911636,50,0.072021484,-1.2219849,-0.0010375977
1602701911638,51,-0.5187988,-1.0952759,0.08734131
1602701911641,52,-0.5288086,-1.1187134,-0.18536377
1602701911641,53,-0.3996582,-1.2637329,0.11956787
1602701911642,54,-0.08862305,-0.8921509,-0.0713501
1602701911645,55,0.072021484,-1.2219849,-0.0010375977
1602701911646,56,-0.12084961,-0.89141846,-0.007385254
1602701911646,57,-0.24707031,-0.94317627,-0.09649658
1602701911648,58,-0.5288086,-1.1187134,-0.18536377
1602701911649,59,-0.15258789,-0.98809814,0.06097412
1602701911651,60,-0.12084961,-0.89141846,-0.007385254
1602701911653,61,-0.5187988,-1.0952759,0.08734131
1602701911659,62,0.1496582,-0.50567627,-0.014709473
1602701911660,63,-0.3996582,-1.2637329,0.11956787
1602701911660,64,0.1496582,-0.50567627,-0.014709473
1602701911660,65,0.072021484,-1.2219849,-0.0010375977
1602701911660,66,-0.028808594,-0.96539307,0.28851318
1602701911661,67,-0.5288086,-1.1187134,-0.18536377
1602701911661,68,-0.028808594,-0.96539307,0.28851318
1602701911661,69,-0.06665039,-1.411438,0.73065186
1602701911665,70,-0.12084961,-0.89141846,-0.007385254
1602701911665,71,-0.06665039,-1.411438,0.73065186
1602701911666,72,-0.2211914,-1.1790161,-0.17437744
1602701911666,73,0.1496582,-0.50567627,-0.014709473
1602701911669,74,-0.2211914,-1.1790161,-0.17437744
1602701911670,75,0.12524414,-0.7234497,-0.3237915
1602701911670,76,-0.028808594,-0.96539307,0.28851318
1602701911671,77,0.12524414,-0.7234497,-0.3237915
1602701911674,78,-0.48291016,-1.0957642,0.11907959
1602701911677,79,-0.48291016,-1.0957642,0.11907959
1602701911677,80,-0.06665039,-1.411438,0.73065186
1602701911677,81,-0.125,-0.9055786,-0.002746582
1602701911678,82,-0.2211914,-1.1790161,-0.17437744
1602701911681,83,-0.2692871,-0.9678345,-0.028137207
1602701911682,84,-0.125,-0.9055786,-0.002746582
1602701911683,85,0.12524414,-0.7234497,-0.3237915
1602701911683,86,-0.31835938,-1.0598755,0.078308105
1602701911686,87,-0.2692871,-0.9678345,-0.028137207
1602701911686,88,-0.48291016,-1.0957642,0.11907959
1602701911686,89,-0.47143555,-1.2988892,0.09979248
1602701911687,90,-0.31835938,-1.0598755,0.078308105
1602701911691,91,-0.47143555,-1.2988892,0.09979248
1602701911691,92,-0.125,-0.9055786,-0.002746582
1602701911693,93,-0.2692871,-0.9678345,-0.028137207
1602701911696,94,-0.31835938,-1.0598755,0.078308105
1602701911698,95,-0.47143555,-1.2988892,0.09979248
1602701914052,96,0.115234375,-1.3477173,-0.021057129
1602701914052,97,0.115234375,-1.3477173,-0.021057129
1602701914053,98,0.115234375,-1.3477173,-0.021057129
1602701914057,99,-0.46875,-1.0984497,-0.12188721
1602701914058,100,-0.46875,-1.0984497,-0.12188721
1602701914058,101,-0.076171875,-0.7271118,-0.04840088
1602701914070,102,-0.076171875,-0.7271118,-0.04840088
1602701914070,103,-0.46875,-1.0984497,-0.12188721
1602701914071,104,0.11206055,-0.52423096,0.07342529
1602701914071,105,0.11206055,-0.52423096,0.07342529
1602701914071,106,-0.038330078,-1.258606,0.5426636
1602701914071,107,-0.038330078,-1.258606,0.5426636
1602701914072,108,-0.076171875,-0.7271118,-0.04840088
1602701914073,109,0.17163086,-1.2417603,0.3036499
1602701914073,110,0.17163086,-1.2417603,0.3036499
1602701914073,111,0.11206055,-0.52423096,0.07342529
1602701914074,112,-0.12548828,-0.92559814,-0.17999268
1602701914076,113,-0.12548828,-0.92559814,-0.17999268
1602701914076,114,-0.038330078,-1.258606,0.5426636
1602701914077,115,-0.26464844,-1.0569458,0.09051514
1602701914079,116,-0.26464844,-1.0569458,0.09051514
1602701914079,117,0.17163086,-1.2417603,0.3036499
1602701914080,118,-0.14794922,-0.9505005,0.008728027
1602701914081,119,-0.14794922,-0.9505005,0.008728027
1602701914082,120,-0.10888672,-0.88897705,-0.06378174
1602701914083,121,-0.10888672,-0.88897705,-0.06378174
1602701914084,122,-0.21679688,-0.9985962,0.081726074
1602701914085,123,-0.21679688,-0.9985962,0.081726074
1602701914087,124,-0.4230957,-1.0718384,0.042175293
1602701914087,125,-0.12548828,-0.92559814,-0.17999268
1602701914087,126,-0.4230957,-1.0718384,0.042175293
1602701914090,127,-0.4885254,-1.3821411,0.04876709
1602701914091,128,-0.26464844,-1.0569458,0.09051514
1602701914091,129,-0.4885254,-1.3821411,0.04876709
1602701914094,130,0.0859375,-1.2346802,0.094177246
1602701914095,131,0.0859375,-1.2346802,0.094177246
1602701914096,132,-0.14794922,-0.9505005,0.008728027
1602701914101,133,-0.84887695,-1.1287231,-0.23492432
1602701914102,134,-0.84887695,-1.1287231,-0.23492432
1602701914102,135,0.11816406,-0.76275635,-0.02178955
1602701914102,136,0.11816406,-0.76275635,-0.02178955
1602701914102,137,-0.10888672,-0.88897705,-0.06378174
1602701914103,138,0.10961914,-0.487854,-0.12701416
1602701914104,139,-0.21679688,-0.9985962,0.081726074
1602701914105,140,-0.12646484,-1.3196411,0.6046753
1602701914107,141,-0.4230957,-1.0718384,0.042175293
1602701914113,142,-0.38793945,-1.2537231,0.1149292
1602701914113,143,0.10961914,-0.487854,-0.12701416
1602701914113,144,-0.4885254,-1.3821411,0.04876709
1602701914113,145,-0.12646484,-1.3196411,0.6046753
1602701914113,146,0.0859375,-1.2346802,0.094177246
1602701914113,147,0.24731445,-0.8049927,-0.22857666
1602701914113,148,-0.84887695,-1.1287231,-0.23492432
1602701914118,149,-0.42993164,-1.1882935,0.054138184
1602701914118,150,-0.38793945,-1.2537231,0.1149292
1602701914118,151,0.11816406,-0.76275635,-0.02178955
1602701914126,152,-0.1796875,-0.9163208,-0.14678955
1602701914126,153,0.10961914,-0.487854,-0.12701416
1602701914126,154,-0.09423828,-0.9619751,0.010681152
1602701914127,155,0.24731445,-0.8049927,-0.22857666
1602701914127,156,-0.24707031,-1.0147095,0.08294678
1602701914127,157,-0.12646484,-1.3196411,0.6046753
1602701914127,158,-0.42993164,-1.1882935,0.054138184
1602701914128,159,-0.38793945,-1.2537231,0.1149292
1602701914128,160,-0.5637207,-1.2800903,0.07733154
1602701914128,161,-0.1796875,-0.9163208,-0.14678955
1602701914128,162,-0.0637207,-1.3013306,-0.046691895
1602701914129,163,0.24731445,-0.8049927,-0.22857666
1602701914131,164,-0.3623047,-1.086731,-0.13092041
1602701914131,165,-0.09423828,-0.9619751,0.010681152
1602701914131,166,-0.42993164,-1.1882935,0.054138184
1602701914133,167,-0.33422852,-0.96881104,-0.10089111
1602701914134,168,-0.1796875,-0.9163208,-0.14678955
1602701914135,169,0.17138672,-0.6018677,-0.055236816
1602701914136,170,-0.09423828,-0.9619751,0.010681152
1602701914137,171,0.05102539,-0.9290161,0.15692139
1602701914138,172,-0.24707031,-1.0147095,0.08294678
1602701914142,173,0.010009766,-1.2920532,0.62371826
1602701914142,174,-0.24707031,-1.0147095,0.08294678
1602701914143,175,-0.5637207,-1.2800903,0.07733154
1602701914143,176,-0.5637207,-1.2800903,0.07733154
1602701914143,177,-0.0637207,-1.3013306,-0.046691895
1602701914143,178,-0.0637207,-1.3013306,-0.046691895
1602701914144,179,-0.41235352,-1.2288208,-0.37579346
1602701914145,180,-0.3623047,-1.086731,-0.13092041
1602701914146,181,-0.3623047,-1.086731,-0.13092041
1602701914151,182,-0.33422852,-0.96881104,-0.10089111
1602701914152,183,0.17138672,-0.6018677,-0.055236816
1602701914153,184,-0.33422852,-0.96881104,-0.10089111
1602701914153,185,0.05102539,-0.9290161,0.15692139
1602701914154,186,0.17138672,-0.6018677,-0.055236816
1602701914156,187,0.010009766,-1.2920532,0.62371826
1602701914156,188,0.05102539,-0.9290161,0.15692139
1602701914157,189,-0.41235352,-1.2288208,-0.37579346
1602701914159,190,0.010009766,-1.2920532,0.62371826
1602701914164,191,-0.41235352,-1.2288208,-0.37579346
1602701916647,192,0.21289062,-0.894104,-0.054504395
1602701916658,193,0.21289062,-0.894104,-0.054504395
1602701916658,194,-0.29956055,-0.9944458,0.049743652
1602701916659,195,0.21289062,-0.894104,-0.054504395
1602701916659,196,-0.2565918,-0.9324341,0.062927246
1602701916660,197,-0.29956055,-0.9944458,0.049743652
1602701916661,198,-0.29956055,-0.9944458,0.049743652
1602701916661,199,-0.2565918,-0.9324341,0.062927246
1602701916662,200,-0.10498047,-0.96417236,0.059753418
1602701916665,201,-0.2565918,-0.9324341,0.062927246
1602701916667,202,-0.10498047,-0.96417236,0.059753418
1602701916677,203,-0.10498047,-0.96417236,0.059753418
1602701916677,204,-0.4399414,-1.0681763,-0.009094238
1602701916678,205,-0.4399414,-1.0681763,-0.009094238
1602701916678,206,-0.22705078,-1.291565,0.13787842
1602701916679,207,-0.22705078,-1.291565,0.13787842
1602701916679,208,-0.4399414,-1.0681763,-0.009094238
1602701916680,209,-0.21606445,-1.2085571,0.16351318
1602701916683,210,-0.21606445,-1.2085571,0.16351318
1602701916683,211,-0.22705078,-1.291565,0.13787842
1602701916684,212,-0.6230469,-1.123352,-0.28741455
1602701916688,213,-0.6230469,-1.123352,-0.28741455
1602701916688,214,-0.17382812,-0.9024048,0.08416748
1602701916689,215,-0.21606445,-1.2085571,0.16351318
1602701916689,216,-0.2277832,-0.64849854,-0.13482666
1602701916694,217,-0.6230469,-1.123352,-0.28741455
1602701916695,218,-0.17382812,-0.9024048,0.08416748
1602701916695,219,-0.092041016,-1.1970825,-0.062561035
1602701916696,220,-0.2277832,-0.64849854,-0.13482666
1602701916696,221,0.51538086,-1.2371216,0.01776123
1602701916696,222,-0.17382812,-0.9024048,0.08416748
1602701916698,223,-0.092041016,-1.1970825,-0.062561035
1602701916701,224,-0.2277832,-0.64849854,-0.13482666
1602701916701,225,-0.70092773,-0.92633057,0.0067749023
1602701916702,226,0.51538086,-1.2371216,0.01776123
1602701916704,227,-0.092041016,-1.1970825,-0.062561035
1602701916706,228,-0.70092773,-0.92633057,0.0067749023
1602701916709,229,0.51538086,-1.2371216,0.01776123
1602701916710,230,0.20483398,-1.0488892,0.26385498
1602701916710,231,-0.70092773,-0.92633057,0.0067749023
1602701916714,232,0.20483398,-1.0488892,0.26385498
1602701916714,233,-0.18676758,-0.9902954,0.21453857
1602701916715,234,-0.18676758,-0.9902954,0.21453857
1602701916718,235,-0.07495117,-1.0215454,0.19207764
1602701916719,236,0.20483398,-1.0488892,0.26385498
1602701916719,237,-0.07495117,-1.0215454,0.19207764
1602701916726,238,-0.008544922,-1.0142212,0.16790771
1602701916728,239,-0.18676758,-0.9902954,0.21453857
1602701916728,240,-0.008544922,-1.0142212,0.16790771
1602701916729,241,0.057128906,-0.97857666,0.19378662
1602701916731,242,-0.07495117,-1.0215454,0.19207764
1602701916734,243,0.19238281,-0.895813,0.22723389
1602701916735,244,0.057128906,-0.97857666,0.19378662
1602701916735,245,-0.008544922,-1.0142212,0.16790771
1602701916740,246,0.12963867,-0.7493286,0.43914795
1602701916740,247,0.057128906,-0.97857666,0.19378662
1602701916740,248,0.29345703,-0.756897,0.37176514
1602701916743,249,0.19238281,-0.895813,0.22723389
1602701916743,250,0.19238281,-0.895813,0.22723389
1602701916744,251,0.30566406,-0.442688,0.5895386
1602701916744,252,0.12963867,-0.7493286,0.43914795
1602701916745,253,0.12963867,-0.7493286,0.43914795
1602701916746,254,0.29345703,-0.756897,0.37176514
1602701916749,255,0.29345703,-0.756897,0.37176514
1602701916750,256,0.27416992,-0.46905518,0.7868042
1602701916750,257,0.30566406,-0.442688,0.5895386
1602701916750,258,-0.0026855469,-0.29058838,1.1193237
1602701916750,259,0.30566406,-0.442688,0.5895386
1602701916755,260,-0.1328125,-0.473938,1.4476929
1602701916755,261,0.27416992,-0.46905518,0.7868042
1602701916756,262,0.27416992,-0.46905518,0.7868042
1602701916756,263,-0.0026855469,-0.29058838,1.1193237
1602701916756,264,0.100097656,-0.037902832,1.1085815
1602701916757,265,-0.0026855469,-0.29058838,1.1193237
1602701916757,266,-0.1328125,-0.473938,1.4476929
1602701916760,267,-0.037841797,-0.12359619,0.75653076
1602701916760,268,-0.1328125,-0.473938,1.4476929
1602701916760,269,0.100097656,-0.037902832,1.1085815
1602701916762,270,0.13769531,0.14642334,0.83807373
1602701916763,271,0.100097656,-0.037902832,1.1085815
1602701916763,272,-0.037841797,-0.12359619,0.75653076
1602701916765,273,0.2800293,-0.03375244,0.99554443
1602701916765,274,-0.037841797,-0.12359619,0.75653076
1602701916765,275,0.13769531,0.14642334,0.83807373
1602701916767,276,0.15161133,-0.15240479,0.9957886
1602701916770,277,0.2800293,-0.03375244,0.99554443
1602701916770,278,0.13769531,0.14642334,0.83807373
1602701916771,279,0.06225586,-0.0068969727,0.9254761
1602701916771,280,0.2800293,-0.03375244,0.99554443
1602701916771,281,0.15161133,-0.15240479,0.9957886
1602701916772,282,0.2434082,-0.06695557,0.91082764
1602701916774,283,0.06225586,-0.0068969727,0.9254761
1602701916778,284,0.15161133,-0.15240479,0.9957886
1602701916778,285,0.2434082,-0.06695557,0.91082764
1602701916778,286,0.06225586,-0.0068969727,0.9254761
1602701916779,287,0.2434082,-0.06695557,0.91082764
1602701919149,288,0.16333008,-0.035461426,0.91204834
1602701919168,289,0.16333008,-0.035461426,0.91204834
1602701919169,290,0.16333008,-0.035461426,0.91204834
1602701919170,291,0.18579102,-0.042541504,0.8878784
1602701919170,292,0.18579102,-0.042541504,0.8878784
1602701919171,293,0.18579102,-0.042541504,0.8878784
1602701919172,294,0.21704102,-0.13970947,0.9430542
1602701919172,295,0.21704102,-0.13970947,0.9430542
1602701919172,296,0.21704102,-0.13970947,0.9430542
1602701919173,297,0.11743164,-0.10333252,0.8331909
1602701919174,298,0.11743164,-0.10333252,0.8331909
1602701919174,299,0.11743164,-0.10333252,0.8331909
1602701919177,300,0.13330078,-0.16485596,1.0692749
1602701919179,301,0.13330078,-0.16485596,1.0692749
1602701919187,302,0.25732422,-0.03717041,0.9437866
1602701919188,303,0.13330078,-0.16485596,1.0692749
1602701919189,304,0.25732422,-0.03717041,0.9437866
1602701919189,305,0.25732422,-0.03717041,0.9437866
1602701919190,306,0.17114258,-0.031066895,0.81048584
1602701919193,307,0.17114258,-0.031066895,0.81048584
1602701919199,308,0.24633789,-0.031799316,0.92840576
1602701919200,309,0.17114258,-0.031066895,0.81048584
1602701919200,310,0.24633789,-0.031799316,0.92840576
1602701919201,311,0.115478516,-0.046203613,1.0211792
1602701919202,312,0.24633789,-0.031799316,0.92840576
1602701919204,313,0.115478516,-0.046203613,1.0211792
1602701919210,314,0.115478516,-0.046203613,1.0211792
1602701919210,315,0.05859375,-0.0015258789,0.9508667
1602701919211,316,0.05859375,-0.0015258789,0.9508667
1602701919213,317,0.05859375,-0.0015258789,0.9508667
1602701919219,318,0.19238281,0.012390137,0.8768921
1602701919219,319,0.19238281,0.012390137,0.8768921
1602701919220,320,0.19238281,0.012390137,0.8768921
1602701919236,321,0.25317383,0.08099365,0.9442749
1602701919237,322,0.25317383,0.08099365,0.9442749
1602701919237,323,0.25317383,0.08099365,0.9442749
1602701919237,324,0.18676758,-0.08721924,0.979187
1602701919238,325,0.18676758,-0.08721924,0.979187
1602701919238,326,0.18676758,-0.08721924,0.979187
1602701919238,327,0.32250977,0.061462402,0.83343506
1602701919241,328,0.32250977,0.061462402,0.83343506
1602701919243,329,0.32250977,0.061462402,0.83343506
1602701919244,330,0.030029297,-0.09552002,1.0221558
1602701919244,331,0.030029297,-0.09552002,1.0221558
1602701919250,332,0.030029297,-0.09552002,1.0221558
1602701919250,333,0.22827148,0.028747559,0.9237671
1602701919251,334,0.22827148,0.028747559,0.9237671
1602701919253,335,0.22827148,0.028747559,0.9237671
1602701919257,336,0.42895508,0.054382324,0.8312378
1602701919258,337,0.42895508,0.054382324,0.8312378
1602701919258,338,0.42895508,0.054382324,0.8312378
1602701919262,339,0.2890625,-0.023986816,0.8978882
1602701919262,340,0.2890625,-0.023986816,0.8978882
1602701919264,341,0.2890625,-0.023986816,0.8978882
1602701919265,342,0.25195312,-6.1035156E-5,0.8656616
1602701919266,343,0.25195312,-6.1035156E-5,0.8656616
1602701919274,344,0.19506836,0.07928467,0.9249878
1602701919275,345,0.25195312,-6.1035156E-5,0.8656616
1602701919275,346,0.19506836,0.07928467,0.9249878
1602701919276,347,0.19506836,0.07928467,0.9249878
1602701919276,348,0.25073242,0.08782959,0.78656006
1602701919277,349,0.25073242,0.08782959,0.78656006
1602701919277,350,0.2614746,0.047546387,0.7994995
1602701919277,351,0.25073242,0.08782959,0.78656006
1602701919280,352,0.2614746,0.047546387,0.7994995
1602701919281,353,0.23095703,-0.144104,0.9970093
1602701919281,354,0.2614746,0.047546387,0.7994995
1602701919283,355,0.23095703,-0.144104,0.9970093
1602701919288,356,0.36328125,-0.21661377,0.9503784
1602701919288,357,0.23095703,-0.144104,0.9970093
1602701919289,358,0.36328125,-0.21661377,0.9503784
1602701919289,359,0.36328125,-0.21661377,0.9503784
1602701919289,360,0.24194336,-0.14898682,0.90448
1602701919291,361,0.24194336,-0.14898682,0.90448
1602701919294,362,0.4230957,-0.19732666,0.8270874
1602701919295,363,0.24194336,-0.14898682,0.90448
1602701919295,364,0.4230957,-0.19732666,0.8270874
1602701919303,365,0.34985352,-0.04058838,0.84710693
1602701919304,366,0.4230957,-0.19732666,0.8270874
1602701919304,367,0.34985352,-0.04058838,0.84710693
1602701919304,368,0.34985352,-0.04058838,0.84710693
1602701919305,369,0.2915039,-0.16217041,1.0101929
1602701919305,370,0.2915039,-0.16217041,1.0101929
1602701919305,371,0.2915039,-0.16217041,1.0101929
1602701919306,372,0.2446289,0.14349365,0.79974365
1602701919306,373,0.2446289,0.14349365,0.79974365
1602701919306,374,0.2446289,0.14349365,0.79974365
1602701919308,375,0.24633789,-0.31280518,1.0089722
1602701919311,376,0.24633789,-0.31280518,1.0089722
1602701919312,377,0.24633789,-0.31280518,1.0089722
1602701919312,378,0.2319336,-0.117004395,0.7909546
1602701919315,379,0.2319336,-0.117004395,0.7909546
1602701919315,380,0.2319336,-0.117004395,0.7909546
1602701919318,381,0.27563477,-0.40631104,1.0333862
1602701919319,382,0.27563477,-0.40631104,1.0333862
1602701919319,383,0.27563477,-0.40631104,1.0333862
1602701921643,384,0.3005371,-0.33087158,1.0092163
1602701921647,385,0.33203125,-0.37286377,0.99090576
1602701921648,386,0.3005371,-0.33087158,1.0092163
1602701921648,387,0.3005371,-0.33087158,1.0092163
1602701921648,388,0.33203125,-0.37286377,0.99090576
1602701921648,389,0.3269043,-0.40679932,0.8734741
1602701921649,390,0.33203125,-0.37286377,0.99090576
1602701921649,391,0.3269043,-0.40679932,0.8734741
1602701921650,392,0.23779297,-0.49468994,0.76727295
1602701921653,393,0.23779297,-0.49468994,0.76727295
1602701921653,394,0.3269043,-0.40679932,0.8734741
1602701921654,395,0.22363281,-0.5996704,0.6793823
1602701921654,396,0.22363281,-0.5996704,0.6793823
1602701921656,397,0.23779297,-0.49468994,0.76727295
1602701921657,398,0.15454102,-0.79278564,0.5180054
1602701921657,399,0.15454102,-0.79278564,0.5180054
1602701921660,400,0.22363281,-0.5996704,0.6793823
1602701921660,401,0.11425781,-0.81988525,0.38812256
1602701921660,402,0.11425781,-0.81988525,0.38812256
1602701921661,403,0.15454102,-0.79278564,0.5180054
1602701921662,404,0.044677734,-0.8740845,0.291687
1602701921665,405,0.11425781,-0.81988525,0.38812256
1602701921665,406,0.044677734,-0.8740845,0.291687
1602701921665,407,-0.04248047,-0.93414307,0.19598389
1602701921669,408,0.044677734,-0.8740845,0.291687
1602701921669,409,-0.0073242188,-0.9143677,0.1005249
1602701921669,410,-0.04248047,-0.93414307,0.19598389
1602701921670,411,-0.08886719,-1.005188,0.08660889
1602701921671,412,-0.04248047,-0.93414307,0.19598389
1602701921672,413,-0.22680664,-1.1008911,0.042419434
1602701921675,414,-0.0073242188,-0.9143677,0.1005249
1602701921676,415,-0.0073242188,-0.9143677,0.1005249
1602701921676,416,-0.08886719,-1.005188,0.08660889
1602701921676,417,-0.14575195,-1.1856079,0.06951904
1602701921677,418,-0.08886719,-1.005188,0.08660889
1602701921679,419,-0.22680664,-1.1008911,0.042419434
1602701921679,420,0.1694336,-1.140686,0.116882324
1602701921679,421,-0.22680664,-1.1008911,0.042419434
1602701921682,422,-0.14575195,-1.1856079,0.06951904
1602701921682,423,-0.2199707,-0.93927,0.13812256
1602701921682,424,-0.14575195,-1.1856079,0.06951904
1602701921683,425,0.1694336,-1.140686,0.116882324
1602701921684,426,-0.22583008,-0.9758911,-0.021057129
1602701921685,427,-0.2199707,-0.93927,0.13812256
1602701921686,428,0.061035156,-0.94366455,0.10882568
1602701921687,429,-0.22583008,-0.9758911,-0.021057129
1602701921690,430,0.001953125,-0.8464966,0.13641357
1602701921690,431,0.1694336,-1.140686,0.116882324
1602701921690,432,0.061035156,-0.94366455,0.10882568
1602701921691,433,-0.11767578,-0.87213135,0.322937
1602701921693,434,-0.2199707,-0.93927,0.13812256
1602701921693,435,0.001953125,-0.8464966,0.13641357
1602701921694,436,-0.14990234,-1.0542603,0.51605225
1602701921694,437,-0.22583008,-0.9758911,-0.021057129
1602701921696,438,-0.09326172,-1.2927856,0.022155762
1602701921696,439,-0.11767578,-0.87213135,0.322937
1602701921697,440,0.061035156,-0.94366455,0.10882568
1602701921702,441,0.05419922,-0.7752075,-0.21759033
1602701921702,442,-0.14990234,-1.0542603,0.51605225
1602701921702,443,0.001953125,-0.8464966,0.13641357
1602701921703,444,-0.11767578,-0.87213135,0.322937
1602701921703,445,-0.14990234,-1.0542603,0.51605225
1602701921703,446,-0.09326172,-1.2927856,0.022155762
1602701921704,447,-0.44848633,-1.1699829,0.030700684
1602701921705,448,0.05419922,-0.7752075,-0.21759033
1602701921710,449,-0.1965332,-0.94732666,-0.04425049
1602701921711,450,-0.09326172,-1.2927856,0.022155762
1602701921711,451,-0.44848633,-1.1699829,0.030700684
1602701921711,452,0.05419922,-0.7752075,-0.21759033
1602701921711,453,-0.1965332,-0.94732666,-0.04425049
1602701921711,454,-0.44848633,-1.1699829,0.030700684
1602701921712,455,-0.16992188,-0.9678345,0.08758545
1602701921712,456,-0.16992188,-0.9678345,0.08758545
1602701921712,457,-0.31298828,-0.95269775,-0.008361816
1602701921714,458,-0.1965332,-0.94732666,-0.04425049
1602701921715,459,-0.28149414,-1.0098267,0.07171631
1602701921717,460,-0.16992188,-0.9678345,0.08758545
1602701921718,461,-0.31298828,-0.95269775,-0.008361816
1602701921718,462,-0.56225586,-1.1712036,-0.0051879883
1602701921722,463,-0.31298828,-0.95269775,-0.008361816
1602701921723,464,-0.28149414,-1.0098267,0.07171631
1602701921723,465,-0.28149414,-1.0098267,0.07171631
1602701921723,466,-0.56225586,-1.1712036,-0.0051879883
1602701921724,467,-0.32641602,-1.2793579,0.008239746
1602701921727,468,-0.56225586,-1.1712036,-0.0051879883
1602701921727,469,-0.32641602,-1.2793579,0.008239746
1602701921728,470,-0.19580078,-0.989563,0.0927124
1602701921728,471,-0.32641602,-1.2793579,0.008239746
1602701921730,472,-0.6032715,-1.1216431,-0.14263916
1602701921731,473,-0.19580078,-0.989563,0.0927124
1602701921732,474,-0.20776367,-0.9595337,0.19158936
1602701921733,475,-0.6032715,-1.1216431,-0.14263916
1602701921735,476,-0.19580078,-0.989563,0.0927124
1602701921736,477,-0.20776367,-0.9595337,0.19158936
1602701921738,478,-0.6032715,-1.1216431,-0.14263916
1602701921739,479,-0.20776367,-0.9595337,0.19158936
1602701924345,480,0.043945312,-0.55010986,-0.09161377
1602701924348,481,0.043945312,-0.55010986,-0.09161377
1602701924360,482,0.044433594,-0.8579712,0.22503662
1602701924360,483,0.043945312,-0.55010986,-0.09161377
1602701924361,484,0.044433594,-0.8579712,0.22503662
1602701924361,485,-0.09301758,-1.4209595,0.6972046
1602701924361,486,-0.43798828,-1.2463989,-0.13067627
1602701924362,487,-0.09301758,-1.4209595,0.6972046
1602701924362,488,0.044433594,-0.8579712,0.22503662
1602701924362,489,0.3449707,-0.6592407,-0.2756958
1602701924365,490,-0.43798828,-1.2463989,-0.13067627
1602701924373,491,-0.5698242,-1.1567993,0.22845459
1602701924373,492,-0.09301758,-1.4209595,0.6972046
1602701924374,493,-0.33276367,-0.8989868,-0.12286377
1602701924375,494,-0.43798828,-1.2463989,-0.13067627
1602701924375,495,0.3449707,-0.6592407,-0.2756958
1602701924376,496,-0.20898438,-0.9299927,-0.043762207
1602701924376,497,-0.5698242,-1.1567993,0.22845459
1602701924376,498,-0.2849121,-0.98809814,0.070739746
1602701924381,499,0.3449707,-0.6592407,-0.2756958
1602701924382,500,-0.33276367,-0.8989868,-0.12286377
1602701924382,501,-0.6845703,-1.1550903,0.05999756
1602701924383,502,-0.5698242,-1.1567993,0.22845459
1602701924386,503,-0.31225586,-1.2932739,0.03729248
1602701924386,504,-0.20898438,-0.9299927,-0.043762207
1602701924388,505,-0.11254883,-1.0671997,0.0065307617
1602701924393,506,-0.2849121,-0.98809814,0.070739746
1602701924393,507,-0.33276367,-0.8989868,-0.12286377
1602701924395,508,-0.7507324,-1.1218872,-0.23687744
1602701924395,509,-0.20898438,-0.9299927,-0.043762207
1602701924397,510,-0.6845703,-1.1550903,0.05999756
1602701924399,511,-0.2849121,-0.98809814,0.070739746
1602701924401,512,-0.31225586,-1.2932739,0.03729248
1602701924403,513,-0.6845703,-1.1550903,0.05999756
1602701924406,514,-0.11254883,-1.0671997,0.0065307617
1602701924408,515,0.10986328,-0.7761841,0.077819824
1602701924408,516,-0.31225586,-1.2932739,0.03729248
1602701924418,517,-0.7507324,-1.1218872,-0.23687744
1602701924418,518,0.12646484,-0.52545166,-0.08648682
1602701924419,519,0.10986328,-0.7761841,0.077819824
1602701924419,520,-0.16455078,-1.2595825,0.46575928
1602701924420,521,-0.11254883,-1.0671997,0.0065307617
1602701924421,522,0.12646484,-0.52545166,-0.08648682
1602701924421,523,-0.7507324,-1.1218872,-0.23687744
1602701924422,524,0.026855469,-1.2949829,0.56951904
1602701924422,525,-0.16455078,-1.2595825,0.46575928
1602701924422,526,0.10986328,-0.7761841,0.077819824
1602701924429,527,-0.37451172,-1.0481567,-0.34918213
1602701924429,528,0.026855469,-1.2949829,0.56951904
1602701924430,529,0.12646484,-0.52545166,-0.08648682
1602701924430,530,-0.05834961,-0.91290283,-0.1560669
1602701924431,531,-0.16455078,-1.2595825,0.46575928
1602701924431,532,-0.37451172,-1.0481567,-0.34918213
1602701924438,533,-0.4440918,-0.9663696,0.047058105
1602701924438,534,0.026855469,-1.2949829,0.56951904
1602701924439,535,-0.28564453,-0.9168091,0.053894043
1602701924439,536,-0.37451172,-1.0481567,-0.34918213
1602701924439,537,-0.31225586,-0.96221924,0.06390381
1602701924445,538,-0.05834961,-0.91290283,-0.1560669
1602701924445,539,-0.05834961,-0.91290283,-0.1560669
1602701924446,540,-0.4440918,-0.9663696,0.047058105
1602701924446,541,-0.34326172,-0.9536743,-0.032287598
1602701924446,542,-0.4440918,-0.9663696,0.047058105
1602701924451,543,-0.28564453,-0.9168091,0.053894043
1602701924452,544,-0.3293457,-1.1611938,0.00579834
1602701924452,545,-0.28564453,-0.9168091,0.053894043
1602701924456,546,-0.31225586,-0.96221924,0.06390381
1602701924463,547,-0.0859375,-1.3272095,0.030456543
1602701924463,548,-0.31225586,-0.96221924,0.06390381
1602701924464,549,-0.34326172,-0.9536743,-0.032287598
1602701924464,550,-0.34326172,-0.9536743,-0.032287598
1602701924465,551,-0.673584,-1.0320435,-0.049865723
1602701924465,552,-0.3293457,-1.1611938,0.00579834
1602701924466,553,-0.3293457,-1.1611938,0.00579834
1602701924466,554,-0.2854004,-0.97906494,-0.06109619
1602701924471,555,-0.0859375,-1.3272095,0.030456543
1602701924472,556,-0.0859375,-1.3272095,0.030456543
1602701924473,557,-0.02734375,-0.75787354,0.105651855
1602701924473,558,-0.673584,-1.0320435,-0.049865723
1602701924475,559,-0.673584,-1.0320435,-0.049865723
1602701924476,560,-0.46557617,-0.9602661,0.09686279
1602701924481,561,0.28320312,-0.9529419,-0.03643799
1602701924482,562,-0.2854004,-0.97906494,-0.06109619
1602701924482,563,-0.2854004,-0.97906494,-0.06109619
1602701924483,564,-0.36279297,-1.2197876,-0.006652832
1602701924488,565,-0.02734375,-0.75787354,0.105651855
1602701924488,566,-0.02734375,-0.75787354,0.105651855
1602701924488,567,-0.2734375,-1.0142212,-0.043518066
1602701924489,568,-0.46557617,-0.9602661,0.09686279
1602701924494,569,0.28320312,-0.9529419,-0.03643799
1602701924495,570,-0.46557617,-0.9602661,0.09686279
1602701924497,571,-0.36279297,-1.2197876,-0.006652832
1602701924498,572,0.28320312,-0.9529419,-0.03643799
1602701924502,573,-0.2734375,-1.0142212,-0.043518066
1602701924503,574,-0.36279297,-1.2197876,-0.006652832
1602701924503,575,-0.2734375,-1.0142212,-0.043518066
1602701926753,576,-0.17626953,-1.0410767,0.15057373
1602701926756,577,-0.17626953,-1.0410767,0.15057373
1602701926759,578,-0.17626953,-1.0410767,0.15057373
1602701926761,579,-0.20166016,-1.0049438,0.0079956055
1602701926763,580,-0.20166016,-1.0049438,0.0079956055
1602701926763,581,-0.20166016,-1.0049438,0.0079956055
1602701926769,582,-0.25708008,-1.0059204,-0.0068969727
1602701926770,583,-0.25708008,-1.0059204,-0.0068969727
1602701926772,584,-0.2836914,-1.0193481,0.04925537
1602701926772,585,-0.2836914,-1.0193481,0.04925537
1602701926774,586,-0.25708008,-1.0059204,-0.0068969727
1602701926775,587,-0.32885742,-0.9871216,-0.08892822
1602701926777,588,-0.32885742,-0.9871216,-0.08892822
1602701926782,589,-0.23413086,-1.0288696,-0.043273926
1602701926782,590,-0.2836914,-1.0193481,0.04925537
1602701926782,591,-0.23413086,-1.0288696,-0.043273926
1602701926783,592,-0.26831055,-1.0083618,-0.04498291
1602701926783,593,-0.26831055,-1.0083618,-0.04498291
1602701926783,594,-0.25927734,-0.99664307,-0.10797119
1602701926786,595,-0.25927734,-0.99664307,-0.10797119
1602701926786,596,-0.3330078,-1.0137329,-0.09088135
1602701926787,597,-0.3330078,-1.0137329,-0.09088135
1602701926790,598,-0.2253418,-1.0078735,0.11419678
1602701926791,599,-0.32885742,-0.9871216,-0.08892822
1602701926791,600,0.0146484375,-1.1506958,0.23626709
1602701926792,601,-0.23413086,-1.0288696,-0.043273926
1602701926794,602,-0.2668457,-1.0335083,0.15960693
1602701926795,603,-0.2253418,-1.0078735,0.11419678
1602701926795,604,-0.08129883,-1.0342407,-0.07354736
1602701926799,605,-0.26831055,-1.0083618,-0.04498291
1602701926799,606,0.0146484375,-1.1506958,0.23626709
1602701926799,607,0.080322266,-0.99298096,0.0036010742
1602701926799,608,-0.25927734,-0.99664307,-0.10797119
1602701926806,609,-0.2668457,-1.0335083,0.15960693
1602701926806,610,0.03857422,-0.9121704,0.2501831
1602701926806,611,-0.3330078,-1.0137329,-0.09088135
1602701926807,612,0.001953125,-0.7920532,0.1564331
1602701926807,613,-0.08129883,-1.0342407,-0.07354736
1602701926807,614,0.115478516,-1.0166626,0.37371826
1602701926807,615,-0.2253418,-1.0078735,0.11419678
1602701926808,616,-0.17993164,-1.1399536,0.29632568
1602701926808,617,0.080322266,-0.99298096,0.0036010742
1602701926808,618,-0.022216797,-1.2456665,0.12445068
1602701926812,619,0.03857422,-0.9121704,0.2501831
1602701926812,620,0.0146484375,-1.1506958,0.23626709
1602701926813,621,-0.15722656,-0.8557739,-0.28082275
1602701926813,622,-0.2668457,-1.0335083,0.15960693
1602701926814,623,-0.18066406,-1.0300903,0.066345215
1602701926814,624,0.001953125,-0.7920532,0.1564331
1602701926815,625,-0.08129883,-1.0342407,-0.07354736
1602701926817,626,0.115478516,-1.0166626,0.37371826
1602701926818,627,-0.32763672,-0.9920044,-0.1194458
1602701926818,628,0.080322266,-0.99298096,0.0036010742
1602701926819,629,-0.17993164,-1.1399536,0.29632568
1602701926821,630,0.03857422,-0.9121704,0.2501831
1602701926822,631,-0.2770996,-0.9175415,-0.06549072
1602701926822,632,-0.022216797,-1.2456665,0.12445068
1602701926825,633,0.001953125,-0.7920532,0.1564331
1602701926826,634,-0.36108398,-0.9314575,-0.02520752
1602701926826,635,-0.15722656,-0.8557739,-0.28082275
1602701926827,636,0.115478516,-1.0166626,0.37371826
1602701926829,637,-0.18066406,-1.0300903,0.066345215
1602701926830,638,-0.32763672,-0.9920044,-0.1194458
1602701926831,639,-0.17993164,-1.1399536,0.29632568
1602701926834,640,-0.2770996,-0.9175415,-0.06549072
1602701926834,641,-0.37304688,-0.96466064,0.044128418
1602701926834,642,-0.022216797,-1.2456665,0.12445068
1602701926835,643,-0.36108398,-0.9314575,-0.02520752
1602701926836,644,-0.15722656,-0.8557739,-0.28082275
1602701926839,645,-0.37304688,-0.96466064,0.044128418
1602701926839,646,-0.47436523,-1.1917114,0.009216309
1602701926840,647,-0.18066406,-1.0300903,0.066345215
1602701926841,648,-0.47436523,-1.1917114,0.009216309
1602701926842,649,-0.32763672,-0.9920044,-0.1194458
1602701926843,650,-0.24389648,-1.3926392,-0.1194458
1602701926844,651,-0.2770996,-0.9175415,-0.06549072
1602701926845,652,-0.008544922,-1.1170044,-0.054748535
1602701926847,653,-0.36108398,-0.9314575,-0.02520752
1602701926848,654,-0.24389648,-1.3926392,-0.1194458
1602701926848,655,-0.5605469,-1.0586548,-0.051330566
1602701926852,656,-0.37304688,-0.96466064,0.044128418
1602701926852,657,-0.008544922,-1.1170044,-0.054748535
1602701926853,658,0.032714844,-0.6465454,0.11077881
1602701926853,659,-0.5605469,-1.0586548,-0.051330566
1602701926853,660,-0.47436523,-1.1917114,0.009216309
1602701926853,661,0.032714844,-0.6465454,0.11077881
1602701926854,662,0.122558594,-0.47198486,0.13323975
1602701926856,663,-0.24389648,-1.3926392,-0.1194458
1602701926856,664,0.122558594,-0.47198486,0.13323975
1602701926856,665,-0.07788086,-1.2722778,0.75579834
1602701926857,666,-0.008544922,-1.1170044,-0.054748535
1602701926859,667,-0.5605469,-1.0586548,-0.051330566
1602701926860,668,-0.07788086,-1.2722778,0.75579834
1602701926863,669,0.032714844,-0.6465454,0.11077881
1602701926864,670,0.122558594,-0.47198486,0.13323975
1602701926865,671,-0.07788086,-1.2722778,0.75579834
1602701929253,672,-0.0029296875,-1.2883911,0.25408936
1602701929254,673,-0.0029296875,-1.2883911,0.25408936
1602701929255,674,-0.068115234,-1.0733032,-0.03717041
1602701929261,675,-0.0029296875,-1.2883911,0.25408936
1602701929262,676,-0.068115234,-1.0733032,-0.03717041
1602701929263,677,-0.12792969,-0.8213501,-0.3731079
1602701929265,678,-0.12792969,-0.8213501,-0.3731079
1602701929265,679,-0.068115234,-1.0733032,-0.03717041
1602701929270,680,-0.5361328,-1.0667114,0.22601318
1602701929270,681,-0.5361328,-1.0667114,0.22601318
1602701929270,682,-0.12792969,-0.8213501,-0.3731079
1602701929271,683,-0.115234375,-0.9121704,0.0602417
1602701929271,684,-0.115234375,-0.9121704,0.0602417
1602701929273,685,-0.5361328,-1.0667114,0.22601318
1602701929276,686,-0.34350586,-0.9204712,0.005065918
1602701929277,687,-0.34350586,-0.9204712,0.005065918
1602701929277,688,-0.115234375,-0.9121704,0.0602417
1602701929284,689,-0.3083496,-0.9258423,0.14300537
1602701929285,690,-0.3083496,-0.9258423,0.14300537
1602701929285,691,-0.34350586,-0.9204712,0.005065918
1602701929285,692,-0.53100586,-1.0193481,-0.027648926
1602701929285,693,-0.53100586,-1.0193481,-0.027648926
1602701929287,694,-0.3083496,-0.9258423,0.14300537
1602701929289,695,-0.31713867,-1.3909302,0.01361084
1602701929291,696,-0.53100586,-1.0193481,-0.027648926
1602701929293,697,-0.084472656,-1.2554321,0.11102295
1602701929298,698,-0.31713867,-1.3909302,0.01361084
1602701929300,699,-0.31713867,-1.3909302,0.01361084
1602701929301,700,-0.7421875,-0.99346924,-0.013000488
1602701929301,701,-0.084472656,-1.2554321,0.11102295
1602701929301,702,-0.084472656,-1.2554321,0.11102295
1602701929308,703,-0.7421875,-0.99346924,-0.013000488
1602701929309,704,-0.20922852,-0.72076416,-0.0115356445
1602701929309,705,-0.20922852,-0.72076416,-0.0115356445
1602701929309,706,-0.091308594,-0.8088989,0.08660889
1602701929309,707,-0.091308594,-0.8088989,0.08660889
1602701929309,708,-0.095214844,-1.0354614,-0.014465332
1602701929310,709,-0.7421875,-0.99346924,-0.013000488
1602701929313,710,-0.095214844,-1.0354614,-0.014465332
1602701929313,711,0.42114258,-1.0776978,-0.18218994
1602701929314,712,-0.20922852,-0.72076416,-0.0115356445
1602701929318,713,0.42114258,-1.0776978,-0.18218994
1602701929319,714,-0.45898438,-1.1572876,0.2555542
1602701929319,715,-0.091308594,-0.8088989,0.08660889
1602701929319,716,-0.44360352,-1.0437622,0.081970215
1602701929319,717,-0.45898438,-1.1572876,0.2555542
1602701929325,718,-0.095214844,-1.0354614,-0.014465332
1602701929325,719,-0.13330078,-0.99835205,0.24188232
1602701929326,720,-0.44360352,-1.0437622,0.081970215
1602701929326,721,-0.06298828,-0.9483032,0.14691162
1602701929326,722,0.42114258,-1.0776978,-0.18218994
1602701929326,723,-0.13330078,-0.99835205,0.24188232
1602701929332,724,-0.45898438,-1.1572876,0.2555542
1602701929333,725,-0.068115234,-0.8428345,0.10736084
1602701929333,726,-0.06298828,-0.9483032,0.14691162
1602701929333,727,-0.44360352,-1.0437622,0.081970215
1602701929334,728,-0.068115234,-0.8428345,0.10736084
1602701929334,729,0.10571289,-1.015686,0.28533936
1602701929336,730,-0.13330078,-0.99835205,0.24188232
1602701929337,731,0.22192383,-0.72198486,0.3756714
1602701929339,732,-0.06298828,-0.9483032,0.14691162
1602701929340,733,0.22143555,-0.59503174,0.50408936
1602701929341,734,-0.068115234,-0.8428345,0.10736084
1602701929342,735,0.064208984,-0.5088501,0.6659546
1602701929346,736,0.10571289,-1.015686,0.28533936
1602701929346,737,0.10571289,-1.015686,0.28533936
1602701929346,738,0.2084961,-0.3899536,0.729187
1602701929347,739,0.22192383,-0.72198486,0.3756714
1602701929347,740,0.22192383,-0.72198486,0.3756714
1602701929349,741,0.1899414,-0.30426025,0.8187866
1602701929349,742,0.22143555,-0.59503174,0.50408936
1602701929350,743,0.22143555,-0.59503174,0.50408936
1602701929352,744,0.39086914,0.06951904,1.2782593
1602701929353,745,0.064208984,-0.5088501,0.6659546
1602701929354,746,0.064208984,-0.5088501,0.6659546
1602701929355,747,0.48413086,0.2658081,1.2990112
1602701929356,748,0.2084961,-0.3899536,0.729187
1602701929356,749,0.40698242,0.5704956,0.9567261
1602701929357,750,0.2084961,-0.3899536,0.729187
1602701929358,751,0.33569336,0.4767456,0.8043823
1602701929359,752,0.1899414,-0.30426025,0.8187866
1602701929360,753,0.18359375,-0.015197754,0.71014404
1602701929364,754,0.39086914,0.06951904,1.2782593
1602701929364,755,0.1899414,-0.30426025,0.8187866
1602701929364,756,0.35546875,0.2501831,0.70428467
1602701929364,757,0.39086914,0.06951904,1.2782593
1602701929364,758,0.48413086,0.2658081,1.2990112
1602701929367,759,0.48413086,0.2658081,1.2990112
1602701929367,760,0.40698242,0.5704956,0.9567261
1602701929368,761,0.40698242,0.5704956,0.9567261
1602701929369,762,0.33569336,0.4767456,0.8043823
1602701929371,763,0.33569336,0.4767456,0.8043823
1602701929372,764,0.18359375,-0.015197754,0.71014404
1602701929373,765,0.18359375,-0.015197754,0.71014404
1602701929374,766,0.35546875,0.2501831,0.70428467
1602701929376,767,0.35546875,0.2501831,0.70428467
1602701931749,768,0.4387207,0.35906982,0.79901123
1602701931766,769,0.4387207,0.35906982,0.79901123
1602701931767,770,0.4387207,0.35906982,0.79901123
1602701931769,771,0.4453125,0.33807373,0.78948975
1602701931770,772,0.4453125,0.33807373,0.78948975
1602701931771,773,0.3786621,0.18621826,0.7723999
1602701931771,774,0.4453125,0.33807373,0.78948975
1602701931772,775,0.3786621,0.18621826,0.7723999
1602701931774,776,0.3786621,0.18621826,0.7723999
1602701931776,777,0.35351562,0.17767334,0.8004761
1602701931777,778,0.35351562,0.17767334,0.8004761
1602701931778,779,0.43310547,0.097839355,0.8065796
1602701931781,780,0.35351562,0.17767334,0.8004761
1602701931782,781,0.45703125,0.08660889,0.84198
1602701931788,782,0.43310547,0.097839355,0.8065796
1602701931788,783,0.42407227,0.04071045,0.9345093
1602701931788,784,0.43310547,0.097839355,0.8065796
1602701931791,785,0.45703125,0.08660889,0.84198
1602701931795,786,0.35375977,0.19354248,0.8439331
1602701931796,787,0.42407227,0.04071045,0.9345093
1602701931796,788,0.35375977,0.19354248,0.8439331
1602701931800,789,0.28759766,0.035095215,0.85980225
1602701931801,790,0.45703125,0.08660889,0.84198
1602701931801,791,0.32714844,0.09686279,0.92352295
1602701931803,792,0.42407227,0.04071045,0.9345093
1602701931809,793,0.29248047,-6.1035156E-5,0.84539795
1602701931809,794,0.35375977,0.19354248,0.8439331
1602701931810,795,0.28759766,0.035095215,0.85980225
1602701931810,796,0.24609375,0.062438965,0.89349365
1602701931810,797,0.32714844,0.09686279,0.92352295
1602701931811,798,0.28759766,0.035095215,0.85980225
1602701931811,799,0.27392578,0.02947998,0.8817749
1602701931813,800,0.29248047,-6.1035156E-5,0.84539795
1602701931817,801,0.2770996,0.01727295,0.87323
1602701931817,802,0.24609375,0.062438965,0.89349365
1602701931830,803,0.3071289,0.039489746,0.87786865
1602701931831,804,0.30078125,0.059265137,0.89471436
1602701931831,805,0.27392578,0.02947998,0.8817749
1602701931832,806,0.25341797,0.05218506,0.8998413
1602701931832,807,0.2770996,0.01727295,0.87323
1602701931832,808,0.20581055,0.039978027,0.9244995
1602701931832,809,0.3071289,0.039489746,0.87786865
1602701931833,810,0.2290039,0.08782959,0.8727417
1602701931834,811,0.30078125,0.059265137,0.89471436
1602701931834,812,0.32714844,0.09686279,0.92352295
1602701931835,813,0.28442383,0.031433105,0.9164429
1602701931835,814,0.29248047,-6.1035156E-5,0.84539795
1602701931835,815,0.25341797,0.05218506,0.8998413
1602701931838,816,0.24609375,0.062438965,0.89349365
1602701931839,817,0.35986328,0.07122803,0.86590576
1602701931839,818,0.20581055,0.039978027,0.9244995
1602701931844,819,0.27392578,0.02947998,0.8817749
1602701931844,820,0.37670898,0.07171631,0.88031006
1602701931844,821,0.2770996,0.01727295,0.87323
1602701931845,822,0.28100586,0.04071045,0.8600464
1602701931845,823,0.3071289,0.039489746,0.87786865
1602701931847,824,0.2290039,0.08782959,0.8727417
1602701931851,825,0.28442383,0.031433105,0.9164429
1602701931852,826,0.20947266,0.020690918,0.91864014
1602701931852,827,0.35986328,0.07122803,0.86590576
1602701931852,828,0.31030273,-0.07232666,0.9369507
1602701931852,829,0.30078125,0.059265137,0.89471436
1602701931853,830,0.37670898,0.07171631,0.88031006
1602701931856,831,0.25341797,0.05218506,0.8998413
1602701931856,832,0.31225586,0.0036010742,0.75531006
1602701931856,833,0.28100586,0.04071045,0.8600464
1602701931859,834,0.20581055,0.039978027,0.9244995
1602701931861,835,0.20947266,0.020690918,0.91864014
1602701931861,836,0.45410156,0.29437256,0.82977295
1602701931861,837,0.31030273,-0.07232666,0.9369507
1602701931863,838,0.33032227,0.25335693,0.8016968
1602701931864,839,0.2290039,0.08782959,0.8727417
1602701931864,840,0.31225586,0.0036010742,0.75531006
1602701931866,841,0.35107422,0.2345581,0.8510132
1602701931867,842,0.28442383,0.031433105,0.9164429
1602701931867,843,0.45410156,0.29437256,0.82977295
1602701931868,844,0.31591797,0.3102417,0.8563843
1602701931870,845,0.33032227,0.25335693,0.8016968
1602701931875,846,0.26586914,0.2711792,0.83270264
1602701931875,847,0.35986328,0.07122803,0.86590576
1602701931876,848,0.35107422,0.2345581,0.8510132
1602701931876,849,0.37670898,0.07171631,0.88031006
1602701931876,850,0.31591797,0.3102417,0.8563843
1602701931876,851,0.25708008,0.22503662,0.9401245
1602701931877,852,0.26586914,0.2711792,0.83270264
1602701931877,853,0.28100586,0.04071045,0.8600464
1602701931880,854,0.25708008,0.22503662,0.9401245
1602701931881,855,0.20947266,0.020690918,0.91864014
1602701931882,856,0.31030273,-0.07232666,0.9369507
1602701931884,857,0.31225586,0.0036010742,0.75531006
1602701931885,858,0.45410156,0.29437256,0.82977295
1602701931886,859,0.33032227,0.25335693,0.8016968
1602701931887,860,0.35107422,0.2345581,0.8510132
1602701931888,861,0.31591797,0.3102417,0.8563843
1602701931890,862,0.26586914,0.2711792,0.83270264
1602701931891,863,0.25708008,0.22503662,0.9401245
1602701934345,864,0.30297852,0.28729248,1.2201538
1602701934345,865,0.30297852,0.28729248,1.2201538
1602701934345,866,0.30297852,0.28729248,1.2201538
1602701934355,867,0.61694336,0.01727295,1.074646
1602701934355,868,0.61694336,0.01727295,1.074646
1602701934356,869,0.61694336,0.01727295,1.074646
1602701934356,870,0.4465332,-0.15509033,0.77459717
1602701934356,871,0.4465332,-0.15509033,0.77459717
1602701934361,872,0.37597656,-0.4697876,0.78411865
1602701934361,873,0.37597656,-0.4697876,0.78411865
1602701934362,874,0.4465332,-0.15509033,0.77459717
1602701934365,875,0.27539062,-0.5913696,0.63983154
1602701934365,876,0.27539062,-0.5913696,0.63983154
1602701934365,877,0.37597656,-0.4697876,0.78411865
1602701934367,878,0.2211914,-0.7280884,0.59906006
1602701934368,879,0.2211914,-0.7280884,0.59906006
1602701934368,880,0.27539062,-0.5913696,0.63983154
1602701934370,881,-0.022949219,-0.692688,0.50115967
1602701934370,882,-0.022949219,-0.692688,0.50115967
1602701934370,883,0.2211914,-0.7280884,0.59906006
1602701934373,884,0.057861328,-0.74591064,0.3932495
1602701934373,885,-0.022949219,-0.692688,0.50115967
1602701934374,886,0.057861328,-0.74591064,0.3932495
1602701934375,887,0.0053710938,-0.8399048,0.5158081
1602701934382,888,0.0053710938,-0.8399048,0.5158081
1602701934383,889,0.057861328,-0.74591064,0.3932495
1602701934383,890,-0.18896484,-0.9439087,0.22235107
1602701934383,891,0.0053710938,-0.8399048,0.5158081
1602701934383,892,-0.1340332,-1.000061,-0.08282471
1602701934384,893,-0.18896484,-0.9439087,0.22235107
1602701934384,894,0.013671875,-1.00177,0.2802124
1602701934384,895,-0.18896484,-0.9439087,0.22235107
1602701934385,896,-0.18139648,-0.8308716,0.18914795
1602701934385,897,-0.1340332,-1.000061,-0.08282471
1602701934387,898,-0.111083984,-0.8167114,0.16400146
1602701934387,899,-0.1340332,-1.000061,-0.08282471
1602701934388,900,0.013671875,-1.00177,0.2802124
1602701934389,901,-0.0061035156,-0.99664307,0.36834717
1602701934390,902,-0.18139648,-0.8308716,0.18914795
1602701934391,903,-0.27270508,-1.3494263,0.30828857
1602701934392,904,-0.111083984,-0.8167114,0.16400146
1602701934393,905,0.07080078,-0.84332275,-0.17584229
1602701934394,906,-0.0061035156,-0.99664307,0.36834717
1602701934395,907,-0.35083008,-1.0669556,-0.14019775
1602701934396,908,-0.27270508,-1.3494263,0.30828857
1602701934397,909,-0.27954102,-0.95269775,0.008483887
1602701934398,910,0.07080078,-0.84332275,-0.17584229
1602701934399,911,-0.27246094,-0.95098877,-0.009094238
1602701934402,912,-0.35083008,-1.0669556,-0.14019775
1602701934402,913,0.013671875,-1.00177,0.2802124
1602701934403,914,-0.35302734,-0.93048096,0.016540527
1602701934406,915,-0.27954102,-0.95269775,0.008483887
1602701934407,916,-0.18139648,-0.8308716,0.18914795
1602701934407,917,-0.27734375,-0.9199829,0.15203857
1602701934408,918,-0.111083984,-0.8167114,0.16400146
1602701934408,919,-0.72314453,-1.0271606,-0.022277832
1602701934410,920,-0.27246094,-0.95098877,-0.009094238
1602701934410,921,-0.0061035156,-0.99664307,0.36834717
1602701934411,922,-0.22216797,-1.5459595,-0.07183838
1602701934413,923,-0.35302734,-0.93048096,0.016540527
1602701934413,924,-0.27270508,-1.3494263,0.30828857
1602701934414,925,0.025634766,-1.2407837,-0.13970947
1602701934416,926,-0.27734375,-0.9199829,0.15203857
1602701934416,927,0.07080078,-0.84332275,-0.17584229
1602701934416,928,-0.53393555,-0.91363525,-0.1338501
1602701934418,929,-0.72314453,-1.0271606,-0.022277832
1602701934420,930,0.04272461,-0.59332275,0.0028686523
1602701934421,931,-0.22216797,-1.5459595,-0.07183838
1602701934421,932,-0.35083008,-1.0669556,-0.14019775
1602701934422,933,0.107910156,-0.6799927,0.12982178
1602701934424,934,0.025634766,-1.2407837,-0.13970947
1602701934424,935,-0.27954102,-0.95269775,0.008483887
1602701934424,936,-0.20092773,-1.3335571,0.8168335
1602701934426,937,-0.53393555,-0.91363525,-0.1338501
1602701934427,938,-0.20166016,-1.0620728,-0.009094238
1602701934428,939,0.04272461,-0.59332275,0.0028686523
1602701934429,940,-0.07861328,-1.2131958,0.22137451
1602701934430,941,0.107910156,-0.6799927,0.12982178
1602701934431,942,-0.31347656,-0.8753052,-0.5352173
1602701934433,943,-0.20092773,-1.3335571,0.8168335
1602701934433,944,-0.27246094,-0.95098877,-0.009094238
1602701934435,945,-0.20166016,-1.0620728,-0.009094238
1602701934435,946,-0.35302734,-0.93048096,0.016540527
1602701934436,947,-0.07861328,-1.2131958,0.22137451
1602701934438,948,-0.27734375,-0.9199829,0.15203857
1602701934440,949,-0.31347656,-0.8753052,-0.5352173
1602701934440,950,-0.72314453,-1.0271606,-0.022277832
1602701934441,951,-0.22216797,-1.5459595,-0.07183838
1602701934443,952,0.025634766,-1.2407837,-0.13970947
1602701934444,953,-0.53393555,-0.91363525,-0.1338501
1602701934445,954,0.04272461,-0.59332275,0.0028686523
1602701934447,955,0.107910156,-0.6799927,0.12982178
1602701934448,956,-0.20092773,-1.3335571,0.8168335
1602701934449,957,-0.20166016,-1.0620728,-0.009094238
1602701934450,958,-0.07861328,-1.2131958,0.22137451
1602701934451,959,-0.31347656,-0.8753052,-0.5352173
1602701936855,960,-0.44873047,-0.93341064,0.061950684
1602701936855,961,-0.44873047,-0.93341064,0.061950684
1602701936856,962,-0.3173828,-0.9627075,0.026306152
1602701936857,963,-0.3173828,-0.9627075,0.026306152
1602701936865,964,-0.44873047,-0.93341064,0.061950684
1602701936865,965,-0.34692383,-0.9417114,0.0060424805
1602701936866,966,-0.34692383,-0.9417114,0.0060424805
1602701936873,967,-0.35424805,-0.9451294,0.047058105
1602701936874,968,-0.3173828,-0.9627075,0.026306152
1602701936875,969,-0.35424805,-0.9451294,0.047058105
1602701936876,970,-0.34692383,-0.9417114,0.0060424805
1602701936876,971,-0.30273438,-0.9534302,-0.003967285
1602701936876,972,-0.30273438,-0.9534302,-0.003967285
1602701936884,973,-0.35424805,-0.9451294,0.047058105
1602701936885,974,-0.57250977,-1.1436157,-0.128479
1602701936885,975,-0.57250977,-1.1436157,-0.128479
1602701936885,976,0.015625,-1.1751099,0.058776855
1602701936886,977,-0.30273438,-0.9534302,-0.003967285
1602701936886,978,0.015625,-1.1751099,0.058776855
1602701936886,979,-0.57250977,-1.1436157,-0.128479
1602701936887,980,-0.41967773,-1.1409302,-0.08306885
1602701936887,981,-0.41967773,-1.1409302,-0.08306885
1602701936889,982,0.015625,-1.1751099,0.058776855
1602701936892,983,-0.41967773,-1.1409302,-0.08306885
1602701936893,984,-0.32836914,-1.0137329,0.10003662
1602701936893,985,-0.32836914,-1.0137329,0.10003662
1602701936894,986,-0.099609375,-0.76226807,0.39300537
1602701936895,987,-0.099609375,-0.76226807,0.39300537
1602701936898,988,-0.32836914,-1.0137329,0.10003662
1602701936898,989,0.0107421875,-0.7258911,0.27947998
1602701936898,990,0.0107421875,-0.7258911,0.27947998
1602701936898,991,-0.099609375,-0.76226807,0.39300537
1602701936904,992,-0.12646484,-0.85650635,0.5079956
1602701936904,993,-0.12646484,-0.85650635,0.5079956
1602701936905,994,0.0107421875,-0.7258911,0.27947998
1602701936905,995,0.110839844,-1.1985474,0.13568115
1602701936905,996,-0.12646484,-0.85650635,0.5079956
1602701936906,997,0.110839844,-1.1985474,0.13568115
1602701936906,998,0.110839844,-1.1985474,0.13568115
1602701936909,999,-0.13549805,-1.0239868,0.2387085
1602701936909,1000,-0.13549805,-1.0239868,0.2387085
1602701936910,1001,-0.13549805,-1.0239868,0.2387085
1602701936910,1002,-0.40649414,-0.95635986,0.09979248
1602701936917,1003,-0.40649414,-0.95635986,0.09979248
1602701936917,1004,-0.40649414,-0.95635986,0.09979248
1602701936917,1005,-0.030761719,-1.0293579,0.23968506
1602701936918,1006,-0.030761719,-1.0293579,0.23968506
1602701936918,1007,-0.18896484,-1.0127563,0.15057373
1602701936918,1008,-0.030761719,-1.0293579,0.23968506
1602701936919,1009,-0.10131836,-0.9817505,0.16033936
1602701936919,1010,-0.18896484,-1.0127563,0.15057373
1602701936919,1011,-0.18896484,-1.0127563,0.15057373
1602701936924,1012,0.0061035156,-0.98272705,0.17449951
1602701936924,1013,-0.10131836,-0.9817505,0.16033936
1602701936924,1014,-0.10131836,-0.9817505,0.16033936
1602701936925,1015,0.0061035156,-0.98272705,0.17449951
1602701936925,1016,0.0061035156,-0.98272705,0.17449951
1602701936925,1017,-0.09887695,-0.90997314,0.25360107
1602701936932,1018,-0.09887695,-0.90997314,0.25360107
1602701936933,1019,-0.09887695,-0.90997314,0.25360107
1602701936934,1020,0.005859375,-0.8670044,0.37664795
1602701936934,1021,0.005859375,-0.8670044,0.37664795
1602701936934,1022,0.005859375,-0.8670044,0.37664795
1602701936935,1023,0.12451172,-0.7925415,0.4467163
1602701936935,1024,0.048583984,-0.68927,0.5055542
1602701936935,1025,0.12451172,-0.7925415,0.4467163
1602701936936,1026,0.12451172,-0.7925415,0.4467163
1602701936939,1027,0.14038086,-0.612854,0.6864624
1602701936939,1028,0.048583984,-0.68927,0.5055542
1602701936939,1029,0.048583984,-0.68927,0.5055542
1602701936944,1030,0.14990234,-0.49591064,0.7509155
1602701936944,1031,0.14038086,-0.612854,0.6864624
1602701936945,1032,0.14038086,-0.612854,0.6864624
1602701936945,1033,0.14990234,-0.49591064,0.7509155
1602701936945,1034,0.010986328,-0.41290283,0.98968506
1602701936947,1035,0.14990234,-0.49591064,0.7509155
1602701936948,1036,0.15527344,-0.15948486,1.3102417
1602701936949,1037,0.010986328,-0.41290283,0.98968506
1602701936953,1038,-0.03125,-0.0178833,1.2338257
1602701936953,1039,0.010986328,-0.41290283,0.98968506
1602701936953,1040,0.028564453,-0.15216064,0.79315186
1602701936955,1041,0.15527344,-0.15948486,1.3102417
1602701936958,1042,0.33935547,0.009460449,0.9508667
1602701936958,1043,0.15527344,-0.15948486,1.3102417
1602701936958,1044,-0.03125,-0.0178833,1.2338257
1602701936961,1045,0.07299805,-0.08087158,0.979187
1602701936961,1046,-0.03125,-0.0178833,1.2338257
1602701936962,1047,0.028564453,-0.15216064,0.79315186
1602701936963,1048,0.14135742,-0.0012817383,0.89227295
1602701936964,1049,0.33935547,0.009460449,0.9508667
1602701936968,1050,0.028564453,-0.15216064,0.79315186
1602701936968,1051,0.07299805,-0.08087158,0.979187
1602701936970,1052,0.33935547,0.009460449,0.9508667
1602701936970,1053,0.14135742,-0.0012817383,0.89227295
1602701936972,1054,0.07299805,-0.08087158,0.979187
1602701936974,1055,0.14135742,-0.0012817383,0.89227295
1602701939343,1056,0.18652344,-0.0017700195,0.8583374
1602701939350,1057,0.21679688,-0.22662354,1.0084839
1602701939350,1058,0.18652344,-0.0017700195,0.8583374
1602701939350,1059,0.18652344,-0.0017700195,0.8583374
1602701939351,1060,0.21875,-0.12799072,0.8793335
1602701939351,1061,0.21679688,-0.22662354,1.0084839
1602701939351,1062,0.21899414,0.0060424805,0.91571045
1602701939352,1063,0.21875,-0.12799072,0.8793335
1602701939352,1064,0.26342773,-0.09503174,0.87323
1602701939352,1065,0.21899414,0.0060424805,0.91571045
1602701939353,1066,0.21679688,-0.22662354,1.0084839
1602701939354,1067,0.14404297,-0.042785645,0.91033936
1602701939355,1068,0.26342773,-0.09503174,0.87323
1602701939358,1069,0.12597656,-0.13018799,0.9398804
1602701939358,1070,0.21875,-0.12799072,0.8793335
1602701939358,1071,0.14404297,-0.042785645,0.91033936
1602701939358,1072,0.16040039,-0.12896729,0.94940186
1602701939362,1073,0.21899414,0.0060424805,0.91571045
1602701939362,1074,0.12597656,-0.13018799,0.9398804
1602701939363,1075,0.15576172,-0.08111572,0.94036865
1602701939364,1076,0.26342773,-0.09503174,0.87323
1602701939364,1077,0.17822266,-0.08648682,0.91693115
1602701939364,1078,0.16040039,-0.12896729,0.94940186
1602701939364,1079,0.14404297,-0.042785645,0.91033936
1602701939365,1080,0.12988281,-0.081848145,0.965271
1602701939368,1081,0.12597656,-0.13018799,0.9398804
1602701939368,1082,0.15576172,-0.08111572,0.94036865
1602701939368,1083,0.16040039,-0.12896729,0.94940186
1602701939368,1084,0.17822266,-0.08648682,0.91693115
1602701939371,1085,0.08691406,-0.08380127,0.9425659
1602701939371,1086,0.15576172,-0.08111572,0.94036865
1602701939371,1087,0.12988281,-0.081848145,0.965271
1602701939372,1088,0.099121094,-0.09088135,0.93133545
1602701939374,1089,0.17822266,-0.08648682,0.91693115
1602701939375,1090,0.08691406,-0.08380127,0.9425659
1602701939375,1091,0.13916016,-0.11212158,0.932312
1602701939378,1092,0.12988281,-0.081848145,0.965271
1602701939379,1093,0.099121094,-0.09088135,0.93133545
1602701939379,1094,0.1665039,-0.15704346,0.96209717
1602701939379,1095,0.08691406,-0.08380127,0.9425659
1602701939384,1096,0.13916016,-0.11212158,0.932312
1602701939384,1097,0.15917969,-0.14727783,0.92108154
1602701939384,1098,0.099121094,-0.09088135,0.93133545
1602701939384,1099,0.18432617,-0.11578369,0.94940186
1602701939385,1100,0.13916016,-0.11212158,0.932312
1602701939385,1101,0.1665039,-0.15704346,0.96209717
1602701939385,1102,0.1665039,-0.15704346,0.96209717
1602701939386,1103,0.2241211,-0.07672119,0.8883667
1602701939387,1104,0.15917969,-0.14727783,0.92108154
1602701939388,1105,0.20874023,-0.19415283,0.91033936
1602701939390,1106,0.18432617,-0.11578369,0.94940186
1602701939391,1107,0.15917969,-0.14727783,0.92108154
1602701939391,1108,0.18066406,-0.12945557,0.8991089
1602701939392,1109,0.2241211,-0.07672119,0.8883667
1602701939396,1110,0.18432617,-0.11578369,0.94940186
1602701939396,1111,0.11328125,-0.09576416,0.9257202
1602701939396,1112,0.2241211,-0.07672119,0.8883667
1602701939397,1113,0.10498047,-0.09503174,0.95721436
1602701939398,1114,0.20874023,-0.19415283,0.91033936
1602701939399,1115,0.15991211,-0.112854004,0.94647217
1602701939400,1116,0.18066406,-0.12945557,0.8991089
1602701939402,1117,0.26171875,-0.09185791,0.8822632
1602701939402,1118,0.11328125,-0.09576416,0.9257202
1602701939403,1119,0.20874023,-0.19415283,0.91033936
1602701939404,1120,0.12060547,-0.16070557,0.81781006
1602701939405,1121,0.18066406,-0.12945557,0.8991089
1602701939406,1122,0.22753906,-0.18536377,1.1327515
1602701939407,1123,0.11328125,-0.09576416,0.9257202
1602701939408,1124,0.06201172,-0.30645752,0.9437866
1602701939411,1125,0.10498047,-0.09503174,0.95721436
1602701939411,1126,0.10498047,-0.09503174,0.95721436
1602701939411,1127,0.22363281,-0.6602173,0.99017334
1602701939411,1128,0.15991211,-0.112854004,0.94647217
1602701939412,1129,0.1665039,-0.550354,0.85491943
1602701939414,1130,0.15991211,-0.112854004,0.94647217
1602701939415,1131,0.26171875,-0.09185791,0.8822632
1602701939416,1132,0.26171875,-0.09185791,0.8822632
1602701939417,1133,0.12060547,-0.16070557,0.81781006
1602701939418,1134,0.12060547,-0.16070557,0.81781006
1602701939420,1135,0.22753906,-0.18536377,1.1327515
1602701939422,1136,0.15771484,-0.6548462,0.73236084
1602701939422,1137,0.06201172,-0.30645752,0.9437866
1602701939422,1138,0.22753906,-0.18536377,1.1327515
1602701939425,1139,0.04663086,-0.6843872,0.59295654
1602701939425,1140,0.22363281,-0.6602173,0.99017334
1602701939425,1141,0.06201172,-0.30645752,0.9437866
1602701939427,1142,-0.0546875,-0.83306885,0.42230225
1602701939430,1143,0.22363281,-0.6602173,0.99017334
1602701939430,1144,0.1665039,-0.550354,0.85491943
1602701939431,1145,0.1665039,-0.550354,0.85491943
1602701939433,1146,0.15771484,-0.6548462,0.73236084
1602701939433,1147,0.15771484,-0.6548462,0.73236084
1602701939435,1148,0.04663086,-0.6843872,0.59295654
1602701939435,1149,0.04663086,-0.6843872,0.59295654
1602701939436,1150,-0.0546875,-0.83306885,0.42230225
1602701939439,1151,-0.0546875,-0.83306885,0.42230225
