# Sensor position: Wrist
# Sensor side: Left
# Activity type: Movement
# Activity code: 9
# Subject id: s1758499
timestamp,seq,accel_x,accel_y,accel_z
1602698631743,0,-0.3154297,-0.538147,0.10760498
1602698631749,1,-0.034179688,-0.9031372,-0.21392822
1602698631749,2,-0.3154297,-0.538147,0.10760498
1602698631750,3,-0.013427734,-1.0925903,-0.15411377
1602698631760,4,-0.3154297,-0.538147,0.10760498
1602698631760,5,-0.034179688,-0.9031372,-0.21392822
1602698631760,6,0.115722656,-1.3357544,0.06854248
1602698631761,7,-0.034179688,-0.9031372,-0.21392822
1602698631761,8,-0.013427734,-1.0925903,-0.15411377
1602698631761,9,0.25805664,-1.2966919,0.1984253
1602698631764,10,-0.013427734,-1.0925903,-0.15411377
1602698631765,11,0.115722656,-1.3357544,0.06854248
1602698631767,12,0.45385742,-1.2410278,0.3048706
1602698631769,13,0.25805664,-1.2966919,0.1984253
1602698631770,14,0.44921875,-0.99005127,0.38226318
1602698631774,15,0.45385742,-1.2410278,0.3048706
1602698631774,16,0.115722656,-1.3357544,0.06854248
1602698631775,17,0.3491211,-0.6939087,0.6268921
1602698631775,18,0.44921875,-0.99005127,0.38226318
1602698631781,19,0.25805664,-1.2966919,0.1984253
1602698631782,20,0.20629883,-0.3015747,0.68963623
1602698631782,21,0.3491211,-0.6939087,0.6268921
1602698631783,22,0.03466797,-0.16802979,0.70599365
1602698631791,23,0.45385742,-1.2410278,0.3048706
1602698631795,24,0.44921875,-0.99005127,0.38226318
1602698631796,25,-0.08618164,-0.053771973,0.7523804
1602698631798,26,0.20629883,-0.3015747,0.68963623
1602698631799,27,0.3491211,-0.6939087,0.6268921
1602698631799,28,-0.0063476562,-0.120910645,0.87249756
1602698631803,29,0.03466797,-0.16802979,0.70599365
1602698631804,30,0.20629883,-0.3015747,0.68963623
1602698631804,31,0.15991211,-0.21905518,0.9706421
1602698631804,32,0.03466797,-0.16802979,0.70599365
1602698631805,33,-0.08618164,-0.053771973,0.7523804
1602698631807,34,-0.08618164,-0.053771973,0.7523804
1602698631813,35,-0.0063476562,-0.120910645,0.87249756
1602698631816,36,0.20922852,-0.21514893,1.045105
1602698631816,37,0.15991211,-0.21905518,0.9706421
1602698631816,38,0.20922852,-0.21514893,1.045105
1602698631816,39,0.16308594,-0.124572754,1.0580444
1602698631817,40,-0.0063476562,-0.120910645,0.87249756
1602698631821,41,0.0024414062,-0.1729126,1.0629272
1602698631821,42,0.15991211,-0.21905518,0.9706421
1602698631822,43,0.16308594,-0.124572754,1.0580444
1602698631822,44,0.20922852,-0.21514893,1.045105
1602698631822,45,-0.036376953,-0.10357666,0.949646
1602698631822,46,0.0024414062,-0.1729126,1.0629272
1602698631828,47,0.1352539,-0.14898682,1.0043335
1602698631828,48,0.16308594,-0.124572754,1.0580444
1602698631828,49,-0.036376953,-0.10357666,0.949646
1602698631829,50,0.1887207,-0.14703369,0.9320679
1602698631829,51,0.0024414062,-0.1729126,1.0629272
1602698631829,52,0.1352539,-0.14898682,1.0043335
1602698631830,53,0.16040039,-0.16412354,0.8776245
1602698631830,54,-0.036376953,-0.10357666,0.949646
1602698631834,55,0.1887207,-0.14703369,0.9320679
1602698631835,56,0.12646484,-0.17022705,0.8981323
1602698631835,57,0.1352539,-0.14898682,1.0043335
1602698631835,58,0.087890625,-0.17486572,0.9628296
1602698631835,59,0.1887207,-0.14703369,0.9320679
1602698631837,60,0.16040039,-0.16412354,0.8776245
1602698631838,61,0.16040039,-0.16412354,0.8776245
1602698631839,62,0.12646484,-0.17022705,0.8981323
1602698631841,63,0.12646484,-0.17022705,0.8981323
1602698631843,64,0.087890625,-0.17486572,0.9628296
1602698631844,65,0.07470703,-0.16412354,0.9569702
1602698631844,66,0.087890625,-0.17486572,0.9628296
1602698631846,67,0.07470703,-0.16412354,0.9569702
1602698631846,68,0.07470703,-0.16412354,0.9569702
1602698631848,69,0.07299805,-0.16827393,0.92767334
1602698631850,70,0.07299805,-0.16827393,0.92767334
1602698631850,71,0.07299805,-0.16827393,0.92767334
1602698631854,72,0.063964844,-0.21710205,0.90545654
1602698631854,73,0.063964844,-0.21710205,0.90545654
1602698631855,74,0.063964844,-0.21710205,0.90545654
1602698631855,75,0.06323242,-0.24493408,0.9069214
1602698631855,76,0.06323242,-0.24493408,0.9069214
1602698631858,77,0.06323242,-0.24493408,0.9069214
1602698631858,78,0.099853516,-0.206604,0.9335327
1602698631858,79,0.099853516,-0.206604,0.9335327
1602698631865,80,0.099853516,-0.206604,0.9335327
1602698631865,81,0.11328125,-0.078430176,0.9411011
1602698631866,82,0.11328125,-0.078430176,0.9411011
1602698631866,83,0.12890625,-0.17388916,0.95721436
1602698631866,84,0.12890625,-0.17388916,0.95721436
1602698631866,85,0.11328125,-0.078430176,0.9411011
1602698631866,86,0.092285156,-0.15826416,0.87298584
1602698631867,87,0.12890625,-0.17388916,0.95721436
1602698631869,88,0.079833984,-0.18707275,0.9581909
1602698631870,89,0.092285156,-0.15826416,0.87298584
1602698631870,90,0.092285156,-0.15826416,0.87298584
1602698631875,91,-0.016845703,-0.12408447,0.9525757
1602698631875,92,0.079833984,-0.18707275,0.9581909
1602698631876,93,-0.016845703,-0.12408447,0.9525757
1602698631876,94,0.079833984,-0.18707275,0.9581909
1602698631877,95,-0.016845703,-0.12408447,0.9525757
1602698634546,96,-0.05102539,-0.07623291,0.9281616
1602698634548,97,-0.05102539,-0.07623291,0.9281616
1602698634548,98,-0.05102539,-0.07623291,0.9281616
1602698634552,99,-0.028564453,-0.0725708,0.94036865
1602698634552,100,-0.028564453,-0.0725708,0.94036865
1602698634552,101,-0.028564453,-0.0725708,0.94036865
1602698634555,102,0.029785156,-0.1482544,1.0289917
1602698634556,103,0.029785156,-0.1482544,1.0289917
1602698634557,104,0.029785156,-0.1482544,1.0289917
1602698634562,105,0.005126953,-0.10308838,1.0563354
1602698634562,106,0.005126953,-0.10308838,1.0563354
1602698634563,107,0.005126953,-0.10308838,1.0563354
1602698634563,108,0.048339844,-0.07232666,0.996521
1602698634569,109,0.048339844,-0.07232666,0.996521
1602698634569,110,0.048339844,-0.07232666,0.996521
1602698634570,111,0.17407227,0.012878418,0.95062256
1602698634570,112,0.17407227,0.012878418,0.95062256
1602698634570,113,0.28173828,0.013122559,0.69989014
1602698634570,114,0.28173828,0.013122559,0.69989014
1602698634578,115,0.17407227,0.012878418,0.95062256
1602698634578,116,0.47265625,-0.0947876,0.8764038
1602698634579,117,0.47265625,-0.0947876,0.8764038
1602698634579,118,0.4489746,0.013122559,0.92889404
1602698634580,119,0.4489746,0.013122559,0.92889404
1602698634580,120,0.5085449,0.07879639,0.95184326
1602698634580,121,0.5085449,0.07879639,0.95184326
1602698634581,122,0.28173828,0.013122559,0.69989014
1602698634581,123,0.64282227,-0.04522705,0.75335693
1602698634587,124,0.64282227,-0.04522705,0.75335693
1602698634587,125,0.47265625,-0.0947876,0.8764038
1602698634588,126,0.65234375,-0.08135986,0.59051514
1602698634588,127,0.4489746,0.013122559,0.92889404
1602698634588,128,0.61206055,-0.18927002,0.5661011
1602698634589,129,0.5085449,0.07879639,0.95184326
1602698634590,130,0.65234375,-0.08135986,0.59051514
1602698634597,131,0.64282227,-0.04522705,0.75335693
1602698634597,132,0.7246094,-0.23443604,0.60150146
1602698634597,133,0.61206055,-0.18927002,0.5661011
1602698634598,134,0.65234375,-0.08135986,0.59051514
1602698634598,135,0.7246094,-0.23443604,0.60150146
1602698634599,136,0.61206055,-0.18927002,0.5661011
1602698634599,137,0.68847656,-0.18511963,0.4874878
1602698634601,138,0.68847656,-0.18511963,0.4874878
1602698634602,139,0.5905762,-0.06719971,0.33685303
1602698634604,140,0.5905762,-0.06719971,0.33685303
1602698634605,141,0.5957031,-0.105285645,0.37469482
1602698634606,142,0.5957031,-0.105285645,0.37469482
1602698634609,143,0.80371094,-0.08917236,0.3439331
1602698634610,144,0.7246094,-0.23443604,0.60150146
1602698634610,145,0.80371094,-0.08917236,0.3439331
1602698634612,146,1.2150879,-0.18902588,0.35809326
1602698634615,147,1.2150879,-0.18902588,0.35809326
1602698634615,148,0.68847656,-0.18511963,0.4874878
1602698634616,149,1.2624512,-0.5947876,0.12371826
1602698634617,150,1.2624512,-0.5947876,0.12371826
1602698634619,151,0.5905762,-0.06719971,0.33685303
1602698634621,152,0.9489746,-0.73516846,0.27630615
1602698634622,153,0.5957031,-0.105285645,0.37469482
1602698634624,154,0.9711914,-0.24493408,0.090270996
1602698634626,155,0.80371094,-0.08917236,0.3439331
1602698634627,156,0.81689453,-0.16534424,0.10101318
1602698634629,157,1.2150879,-0.18902588,0.35809326
1602698634630,158,0.9765625,-0.38970947,0.105407715
1602698634643,159,1.2624512,-0.5947876,0.12371826
1602698634643,160,0.9489746,-0.73516846,0.27630615
1602698634644,161,0.96362305,-0.6309204,0.26922607
1602698634644,162,0.9489746,-0.73516846,0.27630615
1602698634644,163,0.68896484,-0.54473877,0.33880615
1602698634645,164,0.9711914,-0.24493408,0.090270996
1602698634646,165,0.9711914,-0.24493408,0.090270996
1602698634646,166,0.81689453,-0.16534424,0.10101318
1602698634646,167,0.50561523,-0.35455322,0.5529175
1602698634647,168,0.9765625,-0.38970947,0.105407715
1602698634647,169,0.81689453,-0.16534424,0.10101318
1602698634647,170,0.62597656,-0.26861572,0.6613159
1602698634648,171,0.9765625,-0.38970947,0.105407715
1602698634648,172,0.96362305,-0.6309204,0.26922607
1602698634648,173,0.96362305,-0.6309204,0.26922607
1602698634652,174,0.73828125,-0.031311035,0.69647217
1602698634652,175,0.68896484,-0.54473877,0.33880615
1602698634652,176,0.68896484,-0.54473877,0.33880615
1602698634656,177,0.6999512,-0.06036377,0.81073
1602698634657,178,0.50561523,-0.35455322,0.5529175
1602698634657,179,0.50561523,-0.35455322,0.5529175
1602698634658,180,0.5344238,-0.07525635,0.72283936
1602698634659,181,0.62597656,-0.26861572,0.6613159
1602698634662,182,0.41088867,-0.14849854,0.7518921
1602698634662,183,0.62597656,-0.26861572,0.6613159
1602698634665,184,0.73828125,-0.031311035,0.69647217
1602698634665,185,0.73828125,-0.031311035,0.69647217
1602698634666,186,0.6999512,-0.06036377,0.81073
1602698634668,187,0.6999512,-0.06036377,0.81073
1602698634670,188,0.5344238,-0.07525635,0.72283936
1602698634671,189,0.5344238,-0.07525635,0.72283936
1602698634672,190,0.41088867,-0.14849854,0.7518921
1602698634675,191,0.41088867,-0.14849854,0.7518921
1602698636847,192,0.30395508,-0.029846191,0.7296753
1602698636848,193,0.30395508,-0.029846191,0.7296753
1602698636856,194,0.19433594,0.066589355,0.7626343
1602698636856,195,0.30395508,-0.029846191,0.7296753
1602698636857,196,0.19433594,0.066589355,0.7626343
1602698636864,197,0.19433594,0.066589355,0.7626343
1602698636864,198,0.17797852,0.022888184,0.8241577
1602698636865,199,0.17797852,0.022888184,0.8241577
1602698636865,200,0.15063477,0.059265137,0.8756714
1602698636865,201,0.15063477,0.059265137,0.8756714
1602698636866,202,0.17797852,0.022888184,0.8241577
1602698636868,203,0.16845703,0.19818115,1.0038452
1602698636877,204,0.15063477,0.059265137,0.8756714
1602698636878,205,0.16845703,0.19818115,1.0038452
1602698636878,206,0.23486328,0.15447998,1.2223511
1602698636878,207,0.23486328,0.15447998,1.2223511
1602698636879,208,0.009765625,0.16644287,0.94818115
1602698636879,209,0.009765625,0.16644287,0.94818115
1602698636879,210,-0.13012695,0.14422607,0.7885132
1602698636880,211,-0.13012695,0.14422607,0.7885132
1602698636881,212,0.16845703,0.19818115,1.0038452
1602698636887,213,0.021240234,0.061950684,0.9164429
1602698636888,214,0.23486328,0.15447998,1.2223511
1602698636889,215,-0.05883789,0.08441162,0.8305054
1602698636889,216,0.009765625,0.16644287,0.94818115
1602698636889,217,-0.09448242,0.13470459,0.7946167
1602698636890,218,0.021240234,0.061950684,0.9164429
1602698636890,219,-0.13012695,0.14422607,0.7885132
1602698636893,220,-0.1184082,0.31610107,0.8666382
1602698636894,221,0.021240234,0.061950684,0.9164429
1602698636894,222,-0.05883789,0.08441162,0.8305054
1602698636897,223,-0.07519531,0.20916748,0.95428467
1602698636905,224,-0.09448242,0.13470459,0.7946167
1602698636905,225,-0.05883789,0.08441162,0.8305054
1602698636906,226,-0.1184082,0.31610107,0.8666382
1602698636906,227,-0.09448242,0.13470459,0.7946167
1602698636906,228,-0.14135742,0.25628662,1.0043335
1602698636906,229,-0.07519531,0.20916748,0.95428467
1602698636907,230,-0.12231445,0.101989746,1.0162964
1602698636907,231,-0.14135742,0.25628662,1.0043335
1602698636908,232,-0.084472656,0.07269287,1.045105
1602698636908,233,-0.12231445,0.101989746,1.0162964
1602698636911,234,-0.1184082,0.31610107,0.8666382
1602698636911,235,0.05102539,0.031677246,1.0111694
1602698636912,236,-0.084472656,0.07269287,1.045105
1602698636915,237,-0.07519531,0.20916748,0.95428467
1602698636916,238,-0.0078125,0.17962646,0.8336792
1602698636916,239,0.05102539,0.031677246,1.0111694
1602698636919,240,-0.14135742,0.25628662,1.0043335
1602698636920,241,-0.044433594,0.24090576,0.84368896
1602698636920,242,-0.0078125,0.17962646,0.8336792
1602698636921,243,-0.12231445,0.101989746,1.0162964
1602698636923,244,-0.044433594,0.24090576,0.84368896
1602698636925,245,-0.005126953,0.30682373,0.87615967
1602698636926,246,-0.005126953,0.30682373,0.87615967
1602698636930,247,0.043945312,0.36102295,0.8407593
1602698636931,248,-0.084472656,0.07269287,1.045105
1602698636932,249,0.043945312,0.36102295,0.8407593
1602698636932,250,0.118896484,0.3685913,0.6762085
1602698636935,251,0.05102539,0.031677246,1.0111694
1602698636941,252,0.017333984,0.28704834,0.574646
1602698636941,253,0.118896484,0.3685913,0.6762085
1602698636942,254,-0.0078125,0.17962646,0.8336792
1602698636942,255,0.017333984,0.28704834,0.574646
1602698636943,256,0.11425781,0.3283081,0.7399292
1602698636943,257,0.11425781,0.3283081,0.7399292
1602698636945,258,-0.044433594,0.24090576,0.84368896
1602698636951,259,-0.005126953,0.30682373,0.87615967
1602698636951,260,0.4169922,0.02166748,0.68377686
1602698636951,261,0.4169922,0.02166748,0.68377686
1602698636951,262,0.043945312,0.36102295,0.8407593
1602698636952,263,0.118896484,0.3685913,0.6762085
1602698636958,264,0.41088867,0.20477295,0.42132568
1602698636958,265,0.41088867,0.20477295,0.42132568
1602698636958,266,0.017333984,0.28704834,0.574646
1602698636958,267,0.7849121,0.070251465,0.28460693
1602698636959,268,0.11425781,0.3283081,0.7399292
1602698636960,269,0.7849121,0.070251465,0.28460693
1602698636961,270,0.4169922,0.02166748,0.68377686
1602698636962,271,1.3327637,0.09124756,0.25653076
1602698636963,272,0.41088867,0.20477295,0.42132568
1602698636966,273,1.6992188,-0.2781372,0.2958374
1602698636968,274,1.3327637,0.09124756,0.25653076
1602698636968,275,0.7849121,0.070251465,0.28460693
1602698636969,276,1.3007812,-0.5027466,0.08831787
1602698636969,277,1.3327637,0.09124756,0.25653076
1602698636971,278,0.9470215,-0.26519775,-0.007385254
1602698636975,279,1.6992188,-0.2781372,0.2958374
1602698636975,280,1.6992188,-0.2781372,0.2958374
1602698636975,281,0.81762695,-0.43829346,0.008728027
1602698636976,282,1.3007812,-0.5027466,0.08831787
1602698636976,283,1.3007812,-0.5027466,0.08831787
1602698636979,284,0.9470215,-0.26519775,-0.007385254
1602698636979,285,0.9470215,-0.26519775,-0.007385254
1602698636982,286,0.81762695,-0.43829346,0.008728027
1602698636982,287,0.81762695,-0.43829346,0.008728027
1602698639446,288,0.9255371,-0.427063,-0.047912598
1602698639447,289,0.9255371,-0.427063,-0.047912598
1602698639448,290,0.9255371,-0.427063,-0.047912598
1602698639454,291,1.1396484,-0.35894775,-0.19854736
1602698639456,292,1.1396484,-0.35894775,-0.19854736
1602698639456,293,1.1674805,-0.27008057,-0.23834229
1602698639466,294,1.1396484,-0.35894775,-0.19854736
1602698639467,295,1.1674805,-0.27008057,-0.23834229
1602698639467,296,1.1674805,-0.27008057,-0.23834229
1602698639468,297,1.0537109,-0.31036377,-0.23199463
1602698639468,298,1.0537109,-0.31036377,-0.23199463
1602698639469,299,0.9123535,-0.25811768,-0.20928955
1602698639471,300,0.9123535,-0.25811768,-0.20928955
1602698639474,301,0.8017578,-0.19122314,-0.16534424
1602698639475,302,1.0537109,-0.31036377,-0.23199463
1602698639477,303,0.8017578,-0.19122314,-0.16534424
1602698639482,304,0.8742676,-0.15582275,-0.128479
1602698639482,305,0.8742676,-0.15582275,-0.128479
1602698639483,306,0.9123535,-0.25811768,-0.20928955
1602698639485,307,0.85253906,-0.20733643,0.002380371
1602698639487,308,0.8840332,-0.20880127,0.10028076
1602698639488,309,0.8017578,-0.19122314,-0.16534424
1602698639490,310,1.064209,-0.0049438477,-0.023498535
1602698639494,311,0.8742676,-0.15582275,-0.128479
1602698639495,312,0.85253906,-0.20733643,0.002380371
1602698639495,313,0.9133301,-0.14117432,0.09100342
1602698639495,314,0.8840332,-0.20880127,0.10028076
1602698639495,315,0.85253906,-0.20733643,0.002380371
1602698639498,316,1.064209,-0.0049438477,-0.023498535
1602698639499,317,0.8840332,-0.20880127,0.10028076
1602698639499,318,0.8405762,-0.16680908,0.11932373
1602698639500,319,0.9133301,-0.14117432,0.09100342
1602698639505,320,0.8679199,-0.1506958,0.0770874
1602698639505,321,1.064209,-0.0049438477,-0.023498535
1602698639505,322,0.8405762,-0.16680908,0.11932373
1602698639506,323,0.9133301,-0.14117432,0.09100342
1602698639506,324,0.8679199,-0.1506958,0.0770874
1602698639506,325,0.8405762,-0.16680908,0.11932373
1602698639508,326,0.8876953,-0.19537354,0.039001465
1602698639510,327,0.8679199,-0.1506958,0.0770874
1602698639511,328,0.9460449,-0.18243408,-0.019104004
1602698639511,329,0.8876953,-0.19537354,0.039001465
1602698639517,330,0.8876953,-0.19537354,0.039001465
1602698639518,331,0.9460449,-0.18243408,-0.019104004
1602698639518,332,0.9460449,-0.18243408,-0.019104004
1602698639518,333,1.0925293,-0.23321533,-0.08087158
1602698639518,334,1.0925293,-0.23321533,-0.08087158
1602698639519,335,1.1555176,-0.40802002,-0.03375244
1602698639519,336,1.0925293,-0.23321533,-0.08087158
1602698639521,337,1.1555176,-0.40802002,-0.03375244
1602698639522,338,0.99194336,-0.3850708,-0.008605957
1602698639522,339,1.1555176,-0.40802002,-0.03375244
1602698639523,340,0.99194336,-0.3850708,-0.008605957
1602698639526,341,0.99194336,-0.3850708,-0.008605957
1602698639526,342,1.1811523,-0.16192627,-0.101867676
1602698639526,343,1.1811523,-0.16192627,-0.101867676
1602698639529,344,1.1811523,-0.16192627,-0.101867676
1602698639529,345,1.0456543,-0.11773682,-0.12530518
1602698639529,346,1.0456543,-0.11773682,-0.12530518
1602698639533,347,1.0456543,-0.11773682,-0.12530518
1602698639533,348,0.93310547,-0.23248291,-0.16583252
1602698639534,349,0.93310547,-0.23248291,-0.16583252
1602698639534,350,0.8029785,-0.17462158,-0.15533447
1602698639536,351,0.8029785,-0.17462158,-0.15533447
1602698639536,352,0.93310547,-0.23248291,-0.16583252
1602698639537,353,0.69018555,-0.13067627,-0.1651001
1602698639538,354,0.8029785,-0.17462158,-0.15533447
1602698639540,355,0.66918945,-0.15997314,-0.08526611
1602698639542,356,0.69018555,-0.13067627,-0.1651001
1602698639546,357,1.0708008,-0.22198486,0.11883545
1602698639546,358,0.69018555,-0.13067627,-0.1651001
1602698639546,359,0.66918945,-0.15997314,-0.08526611
1602698639547,360,0.66918945,-0.15997314,-0.08526611
1602698639548,361,1.0334473,-0.19073486,0.32562256
1602698639550,362,1.0708008,-0.22198486,0.11883545
1602698639553,363,1.2231445,-0.28668213,0.23480225
1602698639554,364,1.0708008,-0.22198486,0.11883545
1602698639554,365,1.0463867,-0.4282837,0.21868896
1602698639556,366,1.0334473,-0.19073486,0.32562256
1602698639560,367,0.92822266,-0.38238525,0.13372803
1602698639561,368,1.0334473,-0.19073486,0.32562256
1602698639561,369,1.2231445,-0.28668213,0.23480225
1602698639561,370,1.2231445,-0.28668213,0.23480225
1602698639563,371,0.9272461,-0.26812744,0.08099365
1602698639564,372,1.0463867,-0.4282837,0.21868896
1602698639565,373,0.94677734,-0.26519775,0.053649902
1602698639567,374,0.92822266,-0.38238525,0.13372803
1602698639569,375,0.9304199,-0.22491455,0.01751709
1602698639570,376,0.9272461,-0.26812744,0.08099365
1602698639576,377,0.94677734,-0.26519775,0.053649902
1602698639576,378,1.0463867,-0.4282837,0.21868896
1602698639576,379,0.9304199,-0.22491455,0.01751709
1602698639576,380,0.92822266,-0.38238525,0.13372803
1602698639579,381,0.9272461,-0.26812744,0.08099365
1602698639580,382,0.94677734,-0.26519775,0.053649902
1602698639582,383,0.9304199,-0.22491455,0.01751709
1602698641942,384,0.9421387,-0.13067627,-0.027648926
1602698641949,385,0.9421387,-0.13067627,-0.027648926
1602698641950,386,0.9421387,-0.13067627,-0.027648926
1602698641950,387,0.9211426,-0.11920166,-0.034240723
1602698641950,388,0.9211426,-0.11920166,-0.034240723
1602698641951,389,0.9211426,-0.11920166,-0.034240723
1602698641952,390,0.9445801,-0.109680176,-0.109680176
1602698641958,391,0.9445801,-0.109680176,-0.109680176
1602698641958,392,0.9445801,-0.109680176,-0.109680176
1602698641959,393,1.003418,-0.050354004,-0.1182251
1602698641959,394,1.003418,-0.050354004,-0.1182251
1602698641961,395,1.003418,-0.050354004,-0.1182251
1602698641967,396,0.9362793,-0.11553955,0.026306152
1602698641971,397,0.9362793,-0.11553955,0.026306152
1602698641973,398,0.8552246,-0.03375244,0.18426514
1602698641973,399,0.8552246,-0.03375244,0.18426514
1602698641974,400,0.9362793,-0.11553955,0.026306152
1602698641976,401,0.7368164,-0.0725708,0.36468506
1602698641976,402,0.7368164,-0.0725708,0.36468506
1602698641977,403,0.8808594,-0.12701416,0.5438843
1602698641980,404,0.8552246,-0.03375244,0.18426514
1602698641980,405,0.8808594,-0.12701416,0.5438843
1602698641983,406,0.7368164,-0.0725708,0.36468506
1602698641984,407,0.61865234,-0.105285645,0.746521
1602698641988,408,0.61865234,-0.105285645,0.746521
1602698641991,409,0.8808594,-0.12701416,0.5438843
1602698641991,410,0.51293945,-0.22735596,0.78045654
1602698641993,411,0.57177734,-0.39996338,0.80218506
1602698641993,412,0.61865234,-0.105285645,0.746521
1602698641994,413,0.51293945,-0.22735596,0.78045654
1602698641994,414,0.51293945,-0.22735596,0.78045654
1602698642000,415,0.4501953,-0.117004395,0.86590576
1602698642001,416,0.57177734,-0.39996338,0.80218506
1602698642001,417,0.57177734,-0.39996338,0.80218506
1602698642002,418,0.32421875,-0.086242676,1.0060425
1602698642002,419,0.4501953,-0.117004395,0.86590576
1602698642002,420,0.4501953,-0.117004395,0.86590576
1602698642003,421,0.32421875,-0.086242676,1.0060425
1602698642003,422,0.32421875,-0.086242676,1.0060425
1602698642007,423,0.13134766,-0.2041626,0.8007202
1602698642007,424,0.13134766,-0.2041626,0.8007202
1602698642008,425,0.13134766,-0.2041626,0.8007202
1602698642013,426,0.06225586,-0.1716919,0.7658081
1602698642014,427,0.06225586,-0.1716919,0.7658081
1602698642014,428,0.06225586,-0.1716919,0.7658081
1602698642015,429,0.20629883,-0.26446533,1.0787964
1602698642015,430,0.20629883,-0.26446533,1.0787964
1602698642016,431,0.20629883,-0.26446533,1.0787964
1602698642027,432,0.12524414,-0.23468018,0.9476929
1602698642028,433,0.12524414,-0.23468018,0.9476929
1602698642028,434,0.12524414,-0.23468018,0.9476929
1602698642028,435,0.043701172,-0.18878174,0.8451538
1602698642028,436,0.043701172,-0.18878174,0.8451538
1602698642029,437,0.010009766,-0.47320557,1.0341187
1602698642029,438,0.043701172,-0.18878174,0.8451538
1602698642030,439,0.1550293,-0.3513794,0.8859253
1602698642031,440,0.010009766,-0.47320557,1.0341187
1602698642031,441,0.115722656,-0.34796143,0.8961792
1602698642031,442,0.1550293,-0.3513794,0.8859253
1602698642040,443,0.010009766,-0.47320557,1.0341187
1602698642040,444,0.0925293,-0.31280518,0.9064331
1602698642041,445,0.1550293,-0.3513794,0.8859253
1602698642041,446,0.115722656,-0.34796143,0.8961792
1602698642042,447,0.041748047,-0.2666626,0.9286499
1602698642043,448,0.115722656,-0.34796143,0.8961792
1602698642043,449,0.07348633,-0.3069458,0.91033936
1602698642043,450,0.0925293,-0.31280518,0.9064331
1602698642045,451,0.0925293,-0.31280518,0.9064331
1602698642049,452,0.041748047,-0.2666626,0.9286499
1602698642050,453,0.09643555,-0.2949829,0.91156006
1602698642050,454,0.041748047,-0.2666626,0.9286499
1602698642054,455,0.07348633,-0.3069458,0.91033936
1602698642055,456,0.11230469,-0.31549072,0.902771
1602698642055,457,0.07348633,-0.3069458,0.91033936
1602698642059,458,0.09643555,-0.2949829,0.91156006
1602698642060,459,0.12133789,-0.32476807,0.8978882
1602698642060,460,0.09643555,-0.2949829,0.91156006
1602698642066,461,0.11230469,-0.31549072,0.902771
1602698642066,462,0.15283203,-0.34552002,0.88812256
1602698642067,463,0.12133789,-0.32476807,0.8978882
1602698642068,464,0.15161133,-0.3477173,0.87713623
1602698642068,465,0.11230469,-0.31549072,0.902771
1602698642075,466,0.15283203,-0.34552002,0.88812256
1602698642076,467,0.13305664,-0.37335205,0.8842163
1602698642076,468,0.12133789,-0.32476807,0.8978882
1602698642077,469,0.15161133,-0.3477173,0.87713623
1602698642077,470,0.15283203,-0.34552002,0.88812256
1602698642077,471,0.11230469,-0.3291626,0.9310913
1602698642082,472,0.13305664,-0.37335205,0.8842163
1602698642083,473,0.15161133,-0.3477173,0.87713623
1602698642083,474,0.11230469,-0.3291626,0.9310913
1602698642083,475,0.05517578,-0.37408447,1.0143433
1602698642087,476,0.13305664,-0.37335205,0.8842163
1602698642088,477,0.05517578,-0.37408447,1.0143433
1602698642091,478,0.11230469,-0.3291626,0.9310913
1602698642093,479,0.05517578,-0.37408447,1.0143433
1602698644444,480,-0.02734375,-0.23736572,1.1293335
1602698644445,481,-0.02734375,-0.23736572,1.1293335
1602698644446,482,-0.02734375,-0.23736572,1.1293335
1602698644448,483,-0.091308594,-0.22296143,0.90911865
1602698644449,484,-0.091308594,-0.22296143,0.90911865
1602698644449,485,-0.091308594,-0.22296143,0.90911865
1602698644470,486,-0.24365234,-0.13873291,0.8331909
1602698644470,487,-0.24365234,-0.13873291,0.8331909
1602698644470,488,-0.25805664,-0.15948486,0.9257202
1602698644470,489,-0.25805664,-0.15948486,0.9257202
1602698644470,490,-0.25317383,-0.120666504,0.8036499
1602698644470,491,-0.25317383,-0.120666504,0.8036499
1602698644471,492,-0.24365234,-0.13873291,0.8331909
1602698644471,493,0.17749023,-0.23565674,0.8048706
1602698644471,494,-0.25805664,-0.15948486,0.9257202
1602698644471,495,0.5629883,-0.4163208,0.81048584
1602698644471,496,0.17749023,-0.23565674,0.8048706
1602698644471,497,-0.25317383,-0.120666504,0.8036499
1602698644471,498,0.5629883,-0.4163208,0.81048584
1602698644472,499,0.17749023,-0.23565674,0.8048706
1602698644472,500,0.4020996,-0.30889893,0.9581909
1602698644472,501,0.5629883,-0.4163208,0.81048584
1602698644473,502,0.4020996,-0.30889893,0.9581909
1602698644476,503,0.37353516,-0.30230713,0.9784546
1602698644476,504,0.4020996,-0.30889893,0.9581909
1602698644476,505,0.37353516,-0.30230713,0.9784546
1602698644478,506,0.36621094,-0.23980713,1.031189
1602698644484,507,0.36621094,-0.23980713,1.031189
1602698644484,508,0.42749023,-0.105285645,0.7875366
1602698644485,509,0.42749023,-0.105285645,0.7875366
1602698644485,510,0.41601562,-0.13287354,0.8004761
1602698644485,511,0.37353516,-0.30230713,0.9784546
1602698644486,512,0.20898438,-0.10601807,0.6835327
1602698644486,513,0.41601562,-0.13287354,0.8004761
1602698644486,514,0.20898438,-0.10601807,0.6835327
1602698644489,515,0.010498047,-0.124816895,0.7440796
1602698644489,516,0.010498047,-0.124816895,0.7440796
1602698644490,517,0.36621094,-0.23980713,1.031189
1602698644491,518,-0.028564453,-0.08477783,0.98358154
1602698644492,519,0.42749023,-0.105285645,0.7875366
1602698644493,520,-0.18017578,-0.2312622,1.085144
1602698644498,521,0.41601562,-0.13287354,0.8004761
1602698644498,522,-0.028564453,-0.08477783,0.98358154
1602698644498,523,0.20898438,-0.10601807,0.6835327
1602698644498,524,-0.25219727,-0.31695557,1.0223999
1602698644503,525,-0.18017578,-0.2312622,1.085144
1602698644503,526,0.010498047,-0.124816895,0.7440796
1602698644504,527,-0.16748047,-0.5081177,1.0958862
1602698644504,528,-0.25219727,-0.31695557,1.0223999
1602698644504,529,-0.059814453,-0.583313,0.8690796
1602698644504,530,-0.028564453,-0.08477783,0.98358154
1602698644505,531,-0.16748047,-0.5081177,1.0958862
1602698644507,532,-0.18017578,-0.2312622,1.085144
1602698644508,533,-0.11425781,-1.0100708,0.62835693
1602698644508,534,-0.059814453,-0.583313,0.8690796
1602698644512,535,-0.25219727,-0.31695557,1.0223999
1602698644512,536,-0.107177734,-0.8255005,0.35076904
1602698644512,537,-0.11425781,-1.0100708,0.62835693
1602698644513,538,-9.765625E-4,-0.6929321,0.36761475
1602698644513,539,-0.16748047,-0.5081177,1.0958862
1602698644513,540,0.05444336,-0.35968018,0.39886475
1602698644514,541,-0.107177734,-0.8255005,0.35076904
1602698644517,542,0.2524414,-0.49371338,0.6569214
1602698644517,543,-0.059814453,-0.583313,0.8690796
1602698644517,544,-9.765625E-4,-0.6929321,0.36761475
1602698644521,545,0.55078125,-0.61602783,0.8488159
1602698644521,546,-0.11425781,-1.0100708,0.62835693
1602698644521,547,0.05444336,-0.35968018,0.39886475
1602698644521,548,-0.107177734,-0.8255005,0.35076904
1602698644522,549,0.6936035,-0.25616455,0.854187
1602698644524,550,0.2524414,-0.49371338,0.6569214
1602698644525,551,-9.765625E-4,-0.6929321,0.36761475
1602698644525,552,0.6262207,-0.25274658,0.7079468
1602698644526,553,0.55078125,-0.61602783,0.8488159
1602698644527,554,0.69750977,-0.21685791,0.5704956
1602698644529,555,0.6936035,-0.25616455,0.854187
1602698644530,556,0.05444336,-0.35968018,0.39886475
1602698644530,557,0.6262207,-0.25274658,0.7079468
1602698644531,558,0.2524414,-0.49371338,0.6569214
1602698644533,559,0.69750977,-0.21685791,0.5704956
1602698644533,560,0.70825195,-0.09185791,0.4286499
1602698644534,561,0.55078125,-0.61602783,0.8488159
1602698644538,562,0.70825195,-0.09185791,0.4286499
1602698644538,563,0.7685547,-0.19683838,0.49432373
1602698644538,564,0.6936035,-0.25616455,0.854187
1602698644538,565,0.7026367,-0.11651611,0.50653076
1602698644539,566,0.7685547,-0.19683838,0.49432373
1602698644539,567,0.6262207,-0.25274658,0.7079468
1602698644540,568,1.1088867,-0.2852173,0.3007202
1602698644542,569,0.69750977,-0.21685791,0.5704956
1602698644542,570,0.7026367,-0.11651611,0.50653076
1602698644544,571,0.70825195,-0.09185791,0.4286499
1602698644545,572,1.1088867,-0.2852173,0.3007202
1602698644547,573,0.7685547,-0.19683838,0.49432373
1602698644548,574,0.7026367,-0.11651611,0.50653076
1602698644549,575,1.1088867,-0.2852173,0.3007202
1602698647141,576,1.576416,-0.18756104,0.1359253
1602698647146,577,1.576416,-0.18756104,0.1359253
1602698647147,578,1.541748,-0.6380005,-0.12872314
1602698647147,579,1.541748,-0.6380005,-0.12872314
1602698647147,580,1.576416,-0.18756104,0.1359253
1602698647148,581,1.3051758,-0.22735596,-0.3123169
1602698647156,582,1.3051758,-0.22735596,-0.3123169
1602698647156,583,1.541748,-0.6380005,-0.12872314
1602698647156,584,0.9987793,-0.06109619,-0.12237549
1602698647156,585,0.78515625,-0.20880127,-0.06402588
1602698647156,586,0.9987793,-0.06109619,-0.12237549
1602698647157,587,0.59643555,-0.22320557,0.017028809
1602698647158,588,0.78515625,-0.20880127,-0.06402588
1602698647160,589,0.59643555,-0.22320557,0.017028809
1602698647161,590,1.3051758,-0.22735596,-0.3123169
1602698647161,591,0.58203125,-0.12017822,0.055114746
1602698647163,592,0.9987793,-0.06109619,-0.12237549
1602698647163,593,0.58203125,-0.12017822,0.055114746
1602698647163,594,0.67822266,-0.11138916,0.0036010742
1602698647165,595,0.78515625,-0.20880127,-0.06402588
1602698647168,596,0.7277832,-0.23980713,0.0119018555
1602698647168,597,0.67822266,-0.11138916,0.0036010742
1602698647168,598,0.59643555,-0.22320557,0.017028809
1602698647168,599,0.8100586,-0.2444458,0.010681152
1602698647172,600,0.7277832,-0.23980713,0.0119018555
1602698647172,601,0.58203125,-0.12017822,0.055114746
1602698647172,602,0.8100586,-0.2444458,0.010681152
1602698647172,603,0.67822266,-0.11138916,0.0036010742
1602698647172,604,0.82177734,-0.09552002,0.03704834
1602698647175,605,0.82177734,-0.09552002,0.03704834
1602698647176,606,0.7277832,-0.23980713,0.0119018555
1602698647176,607,0.85498047,-0.061340332,0.0099487305
1602698647178,608,0.85498047,-0.061340332,0.0099487305
1602698647178,609,0.8100586,-0.2444458,0.010681152
1602698647179,610,0.85424805,-0.08721924,-0.038146973
1602698647181,611,0.85424805,-0.08721924,-0.038146973
1602698647181,612,0.82177734,-0.09552002,0.03704834
1602698647181,613,0.83618164,-0.14996338,0.006286621
1602698647184,614,0.83618164,-0.14996338,0.006286621
1602698647184,615,0.85498047,-0.061340332,0.0099487305
1602698647185,616,0.85961914,-0.21783447,-0.016662598
1602698647185,617,0.85961914,-0.21783447,-0.016662598
1602698647186,618,0.85424805,-0.08721924,-0.038146973
1602698647188,619,1.2062988,-0.30670166,-0.085998535
1602698647189,620,1.2062988,-0.30670166,-0.085998535
1602698647189,621,1.3200684,-0.6013794,0.010192871
1602698647191,622,1.3200684,-0.6013794,0.010192871
1602698647192,623,0.83618164,-0.14996338,0.006286621
1602698647192,624,1.2124023,-0.34869385,-0.11602783
1602698647192,625,1.2124023,-0.34869385,-0.11602783
1602698647197,626,0.85961914,-0.21783447,-0.016662598
1602698647198,627,1.1472168,-0.12701416,-0.11920166
1602698647198,628,1.1472168,-0.12701416,-0.11920166
1602698647198,629,1.081543,-0.13970947,-0.14508057
1602698647200,630,1.2062988,-0.30670166,-0.085998535
1602698647201,631,1.081543,-0.13970947,-0.14508057
1602698647201,632,0.9482422,-0.14508057,-0.17901611
1602698647203,633,1.3200684,-0.6013794,0.010192871
1602698647203,634,0.9482422,-0.14508057,-0.17901611
1602698647203,635,0.8491211,-0.2276001,-0.19488525
1602698647206,636,1.2124023,-0.34869385,-0.11602783
1602698647206,637,0.8491211,-0.2276001,-0.19488525
1602698647206,638,0.75390625,-0.16192627,-0.1494751
1602698647207,639,1.1472168,-0.12701416,-0.11920166
1602698647208,640,0.75390625,-0.16192627,-0.1494751
1602698647211,641,1.081543,-0.13970947,-0.14508057
1602698647211,642,0.7729492,-0.094055176,-0.07867432
1602698647211,643,0.9482422,-0.14508057,-0.17901611
1602698647211,644,0.8796387,-0.1375122,0.21185303
1602698647216,645,0.7729492,-0.094055176,-0.07867432
1602698647217,646,0.8491211,-0.2276001,-0.19488525
1602698647217,647,1.052002,0.19110107,0.09613037
1602698647217,648,0.8796387,-0.1375122,0.21185303
1602698647218,649,1.2617188,0.21624756,-0.15411377
1602698647218,650,0.75390625,-0.16192627,-0.1494751
1602698647218,651,1.052002,0.19110107,0.09613037
1602698647219,652,1.0739746,-0.40142822,-0.29156494
1602698647220,653,1.2617188,0.21624756,-0.15411377
1602698647222,654,0.8808594,-0.5808716,-0.21710205
1602698647223,655,0.7729492,-0.094055176,-0.07867432
1602698647223,656,1.0739746,-0.40142822,-0.29156494
1602698647227,657,0.7727051,-0.33966064,-0.17486572
1602698647227,658,0.8796387,-0.1375122,0.21185303
1602698647227,659,0.8808594,-0.5808716,-0.21710205
1602698647228,660,0.8010254,-0.34454346,-0.12286377
1602698647228,661,0.7727051,-0.33966064,-0.17486572
1602698647228,662,1.052002,0.19110107,0.09613037
1602698647231,663,1.0800781,-0.40289307,-0.07476807
1602698647232,664,0.8010254,-0.34454346,-0.12286377
1602698647232,665,1.2617188,0.21624756,-0.15411377
1602698647232,666,1.0800781,-0.40289307,-0.07476807
1602698647234,667,1.0739746,-0.40142822,-0.29156494
1602698647236,668,0.8808594,-0.5808716,-0.21710205
1602698647237,669,0.7727051,-0.33966064,-0.17486572
1602698647238,670,0.8010254,-0.34454346,-0.12286377
1602698647239,671,1.0800781,-0.40289307,-0.07476807
1602698649543,672,1.0910645,-0.54888916,0.08538818
1602698649553,673,1.0910645,-0.54888916,0.08538818
1602698649554,674,1.0910645,-0.54888916,0.08538818
1602698649555,675,1.0720215,-0.40679932,0.109069824
1602698649556,676,1.0720215,-0.40679932,0.109069824
1602698649557,677,1.1682129,-0.19683838,0.0045776367
1602698649558,678,1.0720215,-0.40679932,0.109069824
1602698649562,679,1.1682129,-0.19683838,0.0045776367
1602698649563,680,1.0256348,-0.0025024414,-0.014221191
1602698649571,681,1.1682129,-0.19683838,0.0045776367
1602698649572,682,1.0256348,-0.0025024414,-0.014221191
1602698649573,683,0.9375,-0.03643799,-0.09869385
1602698649573,684,0.9375,-0.03643799,-0.09869385
1602698649574,685,1.0256348,-0.0025024414,-0.014221191
1602698649580,686,0.7976074,-0.13043213,-0.09210205
1602698649581,687,0.7976074,-0.13043213,-0.09210205
1602698649581,688,0.9375,-0.03643799,-0.09869385
1602698649582,689,0.71435547,-0.16461182,-0.028137207
1602698649587,690,0.71435547,-0.16461182,-0.028137207
1602698649587,691,0.7976074,-0.13043213,-0.09210205
1602698649588,692,0.84375,-0.07720947,-0.008850098
1602698649591,693,0.84375,-0.07720947,-0.008850098
1602698649597,694,1.2797852,-0.057434082,-0.09698486
1602698649598,695,0.71435547,-0.16461182,-0.028137207
1602698649598,696,1.2797852,-0.057434082,-0.09698486
1602698649599,697,0.84375,-0.07720947,-0.008850098
1602698649607,698,1.0266113,-0.2666626,-0.010314941
1602698649608,699,1.0266113,-0.2666626,-0.010314941
1602698649609,700,1.2797852,-0.057434082,-0.09698486
1602698649609,701,1.0898438,-0.30010986,-0.14141846
1602698649610,702,1.0898438,-0.30010986,-0.14141846
1602698649610,703,0.8815918,-0.22686768,-0.16143799
1602698649613,704,0.8815918,-0.22686768,-0.16143799
1602698649622,705,0.76586914,-0.300354,-0.14459229
1602698649623,706,1.0266113,-0.2666626,-0.010314941
1602698649624,707,0.76586914,-0.300354,-0.14459229
1602698649624,708,1.0898438,-0.30010986,-0.14141846
1602698649625,709,0.7458496,-0.30108643,-0.07647705
1602698649625,710,0.7458496,-0.30108643,-0.07647705
1602698649628,711,0.8815918,-0.22686768,-0.16143799
1602698649633,712,0.7102051,-0.020812988,0.04437256
1602698649635,713,0.7102051,-0.020812988,0.04437256
1602698649635,714,0.76586914,-0.300354,-0.14459229
1602698649637,715,1.0983887,-0.08331299,0.0368042
1602698649639,716,1.0983887,-0.08331299,0.0368042
1602698649649,717,1.3505859,-0.32598877,0.113464355
1602698649649,718,0.7458496,-0.30108643,-0.07647705
1602698649649,719,1.3505859,-0.32598877,0.113464355
1602698649650,720,1.1118164,-0.4048462,0.20159912
1602698649651,721,1.1118164,-0.4048462,0.20159912
1602698649651,722,0.7102051,-0.020812988,0.04437256
1602698649652,723,1.2207031,0.026306152,-0.13580322
1602698649660,724,1.2207031,0.026306152,-0.13580322
1602698649660,725,1.0366211,-0.13165283,-0.11968994
1602698649661,726,1.0366211,-0.13165283,-0.11968994
1602698649662,727,1.0983887,-0.08331299,0.0368042
1602698649666,728,1.1159668,-0.4961548,-0.06011963
1602698649667,729,1.1159668,-0.4961548,-0.06011963
1602698649667,730,1.3505859,-0.32598877,0.113464355
1602698649672,731,0.93066406,-0.35479736,-0.09307861
1602698649672,732,0.93066406,-0.35479736,-0.09307861
1602698649673,733,1.1118164,-0.4048462,0.20159912
1602698649681,734,0.36938477,-0.097473145,-0.020812988
1602698649681,735,0.22802734,-0.1494751,0.066833496
1602698649682,736,1.2207031,0.026306152,-0.13580322
1602698649682,737,0.6516113,-0.02911377,-0.18658447
1602698649683,738,0.36938477,-0.097473145,-0.020812988
1602698649683,739,1.7260742,-0.3340454,-0.04107666
1602698649687,740,1.0366211,-0.13165283,-0.11968994
1602698649688,741,0.22802734,-0.1494751,0.066833496
1602698649688,742,1.439209,-0.31573486,0.16741943
1602698649693,743,1.1159668,-0.4961548,-0.06011963
1602698649693,744,0.6516113,-0.02911377,-0.18658447
1602698649694,745,1.0837402,-0.31085205,-0.20391846
1602698649694,746,1.7260742,-0.3340454,-0.04107666
1602698649695,747,0.81396484,-0.41778564,-0.29937744
1602698649695,748,0.93066406,-0.35479736,-0.09307861
1602698649698,749,1.439209,-0.31573486,0.16741943
1602698649698,750,0.6894531,-0.42755127,-0.30523682
1602698649700,751,0.36938477,-0.097473145,-0.020812988
1602698649703,752,0.6906738,-0.3267212,-0.22613525
1602698649703,753,1.0837402,-0.31085205,-0.20391846
1602698649704,754,0.22802734,-0.1494751,0.066833496
1602698649704,755,1.0004883,-0.36798096,-0.11529541
1602698649707,756,0.81396484,-0.41778564,-0.29937744
1602698649708,757,0.6516113,-0.02911377,-0.18658447
1602698649712,758,0.6894531,-0.42755127,-0.30523682
1602698649712,759,1.7260742,-0.3340454,-0.04107666
1602698649713,760,0.6906738,-0.3267212,-0.22613525
1602698649713,761,1.439209,-0.31573486,0.16741943
1602698649715,762,1.0004883,-0.36798096,-0.11529541
1602698649716,763,1.0837402,-0.31085205,-0.20391846
1602698649718,764,0.81396484,-0.41778564,-0.29937744
1602698649720,765,0.6894531,-0.42755127,-0.30523682
1602698649722,766,0.6906738,-0.3267212,-0.22613525
1602698649723,767,1.0004883,-0.36798096,-0.11529541
1602698652146,768,1.3457031,-0.48468018,0.11907959
1602698652149,769,1.3457031,-0.48468018,0.11907959
1602698652152,770,1.3457031,-0.48468018,0.11907959
1602698652162,771,1.1130371,-0.4932251,0.43548584
1602698652162,772,1.1130371,-0.4932251,0.43548584
1602698652163,773,1.1660156,-0.066711426,0.23040771
1602698652163,774,1.1130371,-0.4932251,0.43548584
1602698652163,775,1.0471191,-0.07891846,0.014587402
1602698652171,776,1.1660156,-0.066711426,0.23040771
1602698652172,777,1.1660156,-0.066711426,0.23040771
1602698652172,778,1.0471191,-0.07891846,0.014587402
1602698652173,779,1.0471191,-0.07891846,0.014587402
1602698652173,780,0.8745117,-0.14581299,-0.10479736
1602698652176,781,0.8745117,-0.14581299,-0.10479736
1602698652183,782,0.8745117,-0.14581299,-0.10479736
1602698652184,783,0.7624512,-0.13726807,-0.14483643
1602698652184,784,0.7624512,-0.13726807,-0.14483643
1602698652185,785,0.8154297,-0.16143799,-0.17681885
1602698652185,786,0.7624512,-0.13726807,-0.14483643
1602698652189,787,0.8154297,-0.16143799,-0.17681885
1602698652191,788,0.8154297,-0.16143799,-0.17681885
1602698652199,789,0.9609375,-0.23760986,-0.14459229
1602698652199,790,0.9609375,-0.23760986,-0.14459229
1602698652199,791,0.9609375,-0.23760986,-0.14459229
1602698652200,792,0.9213867,-0.30914307,0.11224365
1602698652200,793,0.9213867,-0.30914307,0.11224365
1602698652206,794,0.9213867,-0.30914307,0.11224365
1602698652207,795,0.9265137,-0.11016846,0.08734131
1602698652208,796,0.9265137,-0.11016846,0.08734131
1602698652212,797,0.9265137,-0.11016846,0.08734131
1602698652213,798,1.0004883,-0.046691895,-0.062316895
1602698652213,799,1.0004883,-0.046691895,-0.062316895
1602698652224,800,1.0004883,-0.046691895,-0.062316895
1602698652225,801,0.9074707,-0.26934814,0.023620605
1602698652225,802,0.9074707,-0.26934814,0.023620605
1602698652226,803,0.8779297,-0.26983643,0.005065918
1602698652226,804,0.9074707,-0.26934814,0.023620605
1602698652227,805,0.8779297,-0.26983643,0.005065918
1602698652230,806,0.939209,-0.29840088,0.034606934
1602698652238,807,0.8779297,-0.26983643,0.005065918
1602698652238,808,0.939209,-0.29840088,0.034606934
1602698652239,809,1.2312012,-0.28204346,0.030944824
1602698652239,810,1.2312012,-0.28204346,0.030944824
1602698652244,811,0.939209,-0.29840088,0.034606934
1602698652244,812,1.0952148,-0.23809814,0.051452637
1602698652245,813,1.0952148,-0.23809814,0.051452637
1602698652255,814,1.2312012,-0.28204346,0.030944824
1602698652256,815,1.1240234,-0.13555908,-0.043762207
1602698652256,816,1.1240234,-0.13555908,-0.043762207
1602698652256,817,1.0866699,-0.051574707,-0.14971924
1602698652257,818,1.0952148,-0.23809814,0.051452637
1602698652257,819,0.95288086,-0.14434814,-0.19171143
1602698652258,820,1.1240234,-0.13555908,-0.043762207
1602698652260,821,1.0866699,-0.051574707,-0.14971924
1602698652265,822,1.0866699,-0.051574707,-0.14971924
1602698652265,823,0.82470703,-0.15045166,-0.19610596
1602698652265,824,0.95288086,-0.14434814,-0.19171143
1602698652265,825,0.7546387,-0.1116333,-0.20465088
1602698652265,826,0.82470703,-0.15045166,-0.19610596
1602698652269,827,0.95288086,-0.14434814,-0.19171143
1602698652269,828,0.76831055,-0.13726807,-0.19952393
1602698652270,829,0.7546387,-0.1116333,-0.20465088
1602698652273,830,0.82470703,-0.15045166,-0.19610596
1602698652279,831,0.9458008,-0.20098877,-0.12921143
1602698652280,832,0.76831055,-0.13726807,-0.19952393
1602698652280,833,0.7546387,-0.1116333,-0.20465088
1602698652281,834,0.9987793,-0.2642212,0.15594482
1602698652281,835,0.76831055,-0.13726807,-0.19952393
1602698652281,836,0.9458008,-0.20098877,-0.12921143
1602698652283,837,1.0681152,0.10223389,-0.016906738
1602698652284,838,0.9987793,-0.2642212,0.15594482
1602698652286,839,1.1298828,0.010925293,-0.0044555664
1602698652289,840,1.0681152,0.10223389,-0.016906738
1602698652289,841,0.9458008,-0.20098877,-0.12921143
1602698652290,842,0.9868164,-0.19415283,0.01727295
1602698652291,843,1.1298828,0.010925293,-0.0044555664
1602698652293,844,0.94384766,-0.1453247,-0.0791626
1602698652298,845,0.9868164,-0.19415283,0.01727295
1602698652298,846,0.9987793,-0.2642212,0.15594482
1602698652299,847,0.94384766,-0.1453247,-0.0791626
1602698652299,848,0.9499512,-0.15631104,-0.08795166
1602698652300,849,1.0681152,0.10223389,-0.016906738
1602698652301,850,0.9499512,-0.15631104,-0.08795166
1602698652303,851,1.1298828,0.010925293,-0.0044555664
1602698652304,852,0.96240234,-0.14361572,-0.10357666
1602698652306,853,0.9868164,-0.19415283,0.01727295
1602698652313,854,0.9440918,-0.11138916,-0.1116333
1602698652313,855,0.96240234,-0.14361572,-0.10357666
1602698652313,856,0.94384766,-0.1453247,-0.0791626
1602698652314,857,0.84399414,-0.121398926,-0.0791626
1602698652314,858,0.9499512,-0.15631104,-0.08795166
1602698652314,859,0.9440918,-0.11138916,-0.1116333
1602698652317,860,0.96240234,-0.14361572,-0.10357666
1602698652318,861,0.84399414,-0.121398926,-0.0791626
1602698652321,862,0.9440918,-0.11138916,-0.1116333
1602698652322,863,0.84399414,-0.121398926,-0.0791626
1602698654547,864,0.7973633,-0.15802002,-0.03326416
1602698654550,865,0.7939453,-0.2420044,0.010437012
1602698654554,866,0.7973633,-0.15802002,-0.03326416
1602698654556,867,0.7973633,-0.15802002,-0.03326416
1602698654557,868,0.8659668,-0.36212158,-0.011047363
1602698654562,869,0.7939453,-0.2420044,0.010437012
1602698654563,870,0.7939453,-0.2420044,0.010437012
1602698654563,871,0.8659668,-0.36212158,-0.011047363
1602698654567,872,0.8659668,-0.36212158,-0.011047363
1602698654568,873,0.96484375,-0.38433838,-0.027160645
1602698654568,874,0.96484375,-0.38433838,-0.027160645
1602698654571,875,0.96484375,-0.38433838,-0.027160645
1602698654573,876,0.87939453,-0.47418213,0.078308105
1602698654582,877,0.87939453,-0.47418213,0.078308105
1602698654582,878,0.87939453,-0.47418213,0.078308105
1602698654583,879,1.0478516,-0.4817505,0.02532959
1602698654583,880,1.0478516,-0.4817505,0.02532959
1602698654584,881,1.092041,-0.36480713,-0.097961426
1602698654585,882,1.092041,-0.36480713,-0.097961426
1602698654588,883,1.0478516,-0.4817505,0.02532959
1602698654593,884,0.984375,-0.35821533,-0.11578369
1602698654594,885,0.984375,-0.35821533,-0.11578369
1602698654595,886,1.092041,-0.36480713,-0.097961426
1602698654595,887,0.91430664,-0.32305908,-0.11505127
1602698654601,888,0.91430664,-0.32305908,-0.11505127
1602698654602,889,0.984375,-0.35821533,-0.11578369
1602698654603,890,0.84521484,-0.25030518,-0.11993408
1602698654607,891,0.91430664,-0.32305908,-0.11505127
1602698654607,892,0.84521484,-0.25030518,-0.11993408
1602698654609,893,0.8586426,-0.30474854,-0.13873291
1602698654615,894,0.84521484,-0.25030518,-0.11993408
1602698654615,895,0.8586426,-0.30474854,-0.13873291
1602698654616,896,0.8586426,-0.30474854,-0.13873291
1602698654616,897,0.8779297,-0.4175415,-0.1428833
1602698654623,898,0.8779297,-0.4175415,-0.1428833
1602698654623,899,0.8779297,-0.4175415,-0.1428833
1602698654623,900,0.91430664,-0.3982544,-0.17803955
1602698654625,901,0.91430664,-0.3982544,-0.17803955
1602698654630,902,0.91430664,-0.3982544,-0.17803955
1602698654630,903,0.88378906,-0.38067627,-0.12701416
1602698654631,904,0.88378906,-0.38067627,-0.12701416
1602698654636,905,0.88378906,-0.38067627,-0.12701416
1602698654636,906,0.87060547,-0.3616333,-0.07086182
1602698654637,907,0.87060547,-0.3616333,-0.07086182
1602698654644,908,0.87060547,-0.3616333,-0.07086182
1602698654645,909,0.97924805,-0.36212158,-0.07086182
1602698654645,910,0.97924805,-0.36212158,-0.07086182
1602698654646,911,0.9187012,-0.2420044,-0.04107666
1602698654647,912,0.97924805,-0.36212158,-0.07086182
1602698654653,913,0.9187012,-0.2420044,-0.04107666
1602698654653,914,0.9111328,-0.2913208,-0.1104126
1602698654653,915,0.9187012,-0.2420044,-0.04107666
1602698654654,916,0.9111328,-0.2913208,-0.1104126
1602698654666,917,0.8815918,-0.22906494,-0.15142822
1602698654666,918,0.9111328,-0.2913208,-0.1104126
1602698654666,919,0.8815918,-0.22906494,-0.15142822
1602698654667,920,0.8815918,-0.22906494,-0.15142822
1602698654668,921,0.77490234,-0.26837158,-0.117248535
1602698654668,922,0.77490234,-0.26837158,-0.117248535
1602698654669,923,0.77490234,-0.26837158,-0.117248535
1602698654669,924,0.85424805,-0.35528564,-0.08111572
1602698654691,925,0.85424805,-0.35528564,-0.08111572
1602698654692,926,0.85424805,-0.35528564,-0.08111572
1602698654692,927,0.954834,-0.409729,-0.07965088
1602698654692,928,0.954834,-0.409729,-0.07965088
1602698654693,929,0.9255371,-0.40533447,-0.07940674
1602698654694,930,0.9255371,-0.40533447,-0.07940674
1602698654694,931,0.954834,-0.409729,-0.07965088
1602698654695,932,0.86206055,-0.37335205,-0.05670166
1602698654696,933,0.9255371,-0.40533447,-0.07940674
1602698654697,934,0.86206055,-0.37335205,-0.05670166
1602698654697,935,0.86206055,-0.37335205,-0.05670166
1602698654698,936,0.857666,-0.22784424,-0.054748535
1602698654698,937,0.857666,-0.22784424,-0.054748535
1602698654699,938,0.8984375,-0.15875244,-0.11529541
1602698654699,939,0.8984375,-0.15875244,-0.11529541
1602698654699,940,0.8017578,-0.30670166,-0.17633057
1602698654700,941,0.8017578,-0.30670166,-0.17633057
1602698654701,942,0.857666,-0.22784424,-0.054748535
1602698654704,943,0.7084961,-0.43267822,-0.12286377
1602698654709,944,0.7084961,-0.43267822,-0.12286377
1602698654709,945,0.8984375,-0.15875244,-0.11529541
1602698654710,946,0.5402832,-0.28936768,-0.15386963
1602698654711,947,0.5402832,-0.28936768,-0.15386963
1602698654711,948,0.8017578,-0.30670166,-0.17633057
1602698654712,949,0.40014648,-0.14312744,-0.081604004
1602698654716,950,0.40014648,-0.14312744,-0.081604004
1602698654716,951,0.7084961,-0.43267822,-0.12286377
1602698654717,952,0.39892578,-0.04107666,-0.038146973
1602698654721,953,0.39892578,-0.04107666,-0.038146973
1602698654721,954,0.5402832,-0.28936768,-0.15386963
1602698654721,955,0.7272949,-0.016662598,-0.10430908
1602698654721,956,0.7272949,-0.016662598,-0.10430908
1602698654723,957,0.40014648,-0.14312744,-0.081604004
1602698654728,958,0.39892578,-0.04107666,-0.038146973
1602698654731,959,0.7272949,-0.016662598,-0.10430908
1602698656851,960,1.2307129,-0.17437744,-0.1560669
1602698656862,961,1.6557617,-0.32281494,-0.101135254
1602698656863,962,1.2307129,-0.17437744,-0.1560669
1602698656864,963,1.2307129,-0.17437744,-0.1560669
1602698656864,964,1.4978027,-0.22711182,-0.13897705
1602698656865,965,1.6557617,-0.32281494,-0.101135254
1602698656881,966,1.6557617,-0.32281494,-0.101135254
1602698656882,967,1.2001953,-0.15509033,-0.042541504
1602698656882,968,1.4978027,-0.22711182,-0.13897705
1602698656883,969,1.2001953,-0.15509033,-0.042541504
1602698656883,970,1.4978027,-0.22711182,-0.13897705
1602698656884,971,1.0439453,-0.2288208,-0.09429932
1602698656886,972,1.2001953,-0.15509033,-0.042541504
1602698656893,973,1.0439453,-0.2288208,-0.09429932
1602698656894,974,1.0183105,-0.21026611,-0.055725098
1602698656894,975,1.0439453,-0.2288208,-0.09429932
1602698656895,976,1.239502,-0.13311768,-0.13580322
1602698656895,977,1.0183105,-0.21026611,-0.055725098
1602698656896,978,1.25,-0.1585083,-0.07940674
1602698656896,979,1.0183105,-0.21026611,-0.055725098
1602698656896,980,1.239502,-0.13311768,-0.13580322
1602698656901,981,1.239502,-0.13311768,-0.13580322
1602698656901,982,1.1176758,-0.16021729,-0.033996582
1602698656901,983,1.25,-0.1585083,-0.07940674
1602698656902,984,1.25,-0.1585083,-0.07940674
1602698656907,985,0.9067383,-0.16290283,-0.06060791
1602698656907,986,1.1176758,-0.16021729,-0.033996582
1602698656907,987,1.1176758,-0.16021729,-0.033996582
1602698656907,988,0.9067383,-0.16290283,-0.06060791
1602698656908,989,0.5751953,-0.17144775,-0.010803223
1602698656909,990,0.9067383,-0.16290283,-0.06060791
1602698656912,991,0.5751953,-0.17144775,-0.010803223
1602698656912,992,0.7536621,-0.070373535,-0.20318604
1602698656912,993,0.5751953,-0.17144775,-0.010803223
1602698656918,994,0.7536621,-0.070373535,-0.20318604
1602698656919,995,1.4460449,-0.25274658,-0.4192505
1602698656919,996,0.7536621,-0.070373535,-0.20318604
1602698656919,997,1.4460449,-0.25274658,-0.4192505
1602698656920,998,1.4460449,-0.25274658,-0.4192505
1602698656923,999,0.9519043,-0.23809814,-0.27496338
1602698656924,1000,0.9519043,-0.23809814,-0.27496338
1602698656924,1001,0.9519043,-0.23809814,-0.27496338
1602698656926,1002,1.0219727,-0.2822876,-0.22491455
1602698656928,1003,1.0219727,-0.2822876,-0.22491455
1602698656929,1004,1.262207,-0.5010376,-0.1716919
1602698656936,1005,1.262207,-0.5010376,-0.1716919
1602698656936,1006,1.0219727,-0.2822876,-0.22491455
1602698656937,1007,1.418457,-0.32061768,-0.26080322
1602698656938,1008,1.262207,-0.5010376,-0.1716919
1602698656938,1009,1.418457,-0.32061768,-0.26080322
1602698656938,1010,1.3137207,-0.109191895,-0.38726807
1602698656940,1011,1.418457,-0.32061768,-0.26080322
1602698656945,1012,0.7976074,0.02166748,-0.3501587
1602698656946,1013,1.3137207,-0.109191895,-0.38726807
1602698656947,1014,0.6711426,0.08270264,-0.3106079
1602698656947,1015,0.7976074,0.02166748,-0.3501587
1602698656948,1016,1.3137207,-0.109191895,-0.38726807
1602698656951,1017,0.52124023,0.055847168,-0.14703369
1602698656951,1018,0.6711426,0.08270264,-0.3106079
1602698656952,1019,0.7976074,0.02166748,-0.3501587
1602698656952,1020,0.52124023,0.055847168,-0.14703369
1602698656954,1021,0.52783203,-0.09576416,-0.105285645
1602698656958,1022,0.6711426,0.08270264,-0.3106079
1602698656958,1023,0.52783203,-0.09576416,-0.105285645
1602698656958,1024,0.6911621,-0.19122314,-0.09991455
1602698656960,1025,0.52124023,0.055847168,-0.14703369
1602698656961,1026,0.7385254,-0.09259033,-0.0803833
1602698656965,1027,0.6911621,-0.19122314,-0.09991455
1602698656965,1028,0.52783203,-0.09576416,-0.105285645
1602698656966,1029,1.0014648,0.004333496,0.21966553
1602698656966,1030,0.6911621,-0.19122314,-0.09991455
1602698656966,1031,1.6000977,-0.10284424,0.21136475
1602698656967,1032,0.7385254,-0.09259033,-0.0803833
1602698656967,1033,1.2390137,-0.84161377,0.081726074
1602698656971,1034,0.7385254,-0.09259033,-0.0803833
1602698656971,1035,1.0014648,0.004333496,0.21966553
1602698656972,1036,1.0014648,0.004333496,0.21966553
1602698656972,1037,1.6000977,-0.10284424,0.21136475
1602698656972,1038,1.0183105,-0.22930908,-0.053771973
1602698656972,1039,1.2390137,-0.84161377,0.081726074
1602698656974,1040,1.6000977,-0.10284424,0.21136475
1602698656976,1041,1.0183105,-0.22930908,-0.053771973
1602698656977,1042,0.99316406,-0.26690674,-0.0335083
1602698656977,1043,1.2390137,-0.84161377,0.081726074
1602698656980,1044,0.99316406,-0.26690674,-0.0335083
1602698656980,1045,0.9626465,-0.28668213,-0.23687744
1602698656980,1046,1.0183105,-0.22930908,-0.053771973
1602698656986,1047,0.9626465,-0.28668213,-0.23687744
1602698656987,1048,1.090332,-0.60894775,-0.50323486
1602698656987,1049,0.99316406,-0.26690674,-0.0335083
1602698656987,1050,0.9626465,-0.28668213,-0.23687744
1602698656987,1051,1.090332,-0.60894775,-0.50323486
1602698656987,1052,0.9753418,-0.4336548,-0.41290283
1602698656987,1053,0.9753418,-0.4336548,-0.41290283
1602698656990,1054,1.090332,-0.60894775,-0.50323486
1602698656992,1055,0.9753418,-0.4336548,-0.41290283
1602698659451,1056,1.0615234,-0.24102783,-0.37384033
1602698659452,1057,1.0615234,-0.24102783,-0.37384033
1602698659452,1058,1.0063477,-0.21051025,-0.3809204
1602698659452,1059,1.0615234,-0.24102783,-0.37384033
1602698659453,1060,1.0063477,-0.21051025,-0.3809204
1602698659459,1061,0.8984375,-0.255188,-0.24273682
1602698659460,1062,1.0063477,-0.21051025,-0.3809204
1602698659460,1063,0.8984375,-0.255188,-0.24273682
1602698659460,1064,0.8984375,-0.255188,-0.24273682
1602698659461,1065,0.9206543,-0.25836182,-0.07623291
1602698659468,1066,0.9206543,-0.25836182,-0.07623291
1602698659468,1067,0.9206543,-0.25836182,-0.07623291
1602698659468,1068,0.9572754,-0.14117432,0.17132568
1602698659469,1069,0.9448242,0.46136475,0.18914795
1602698659469,1070,0.9572754,-0.14117432,0.17132568
1602698659470,1071,0.9572754,-0.14117432,0.17132568
1602698659472,1072,1.0366211,0.23846436,0.20159912
1602698659476,1073,0.9448242,0.46136475,0.18914795
1602698659476,1074,0.9448242,0.46136475,0.18914795
1602698659478,1075,1.0366211,0.23846436,0.20159912
1602698659483,1076,1.0366211,0.23846436,0.20159912
1602698659483,1077,1.105957,-0.18365479,0.09075928
1602698659484,1078,1.105957,-0.18365479,0.09075928
1602698659484,1079,1.105957,-0.18365479,0.09075928
1602698659489,1080,1.0166016,-0.32330322,-0.006164551
1602698659489,1081,1.0166016,-0.32330322,-0.006164551
1602698659490,1082,1.0166016,-0.32330322,-0.006164551
1602698659490,1083,1.2399902,-0.395813,-0.10650635
1602698659498,1084,1.2399902,-0.395813,-0.10650635
1602698659499,1085,1.2399902,-0.395813,-0.10650635
1602698659500,1086,0.9296875,-0.5093384,-0.025939941
1602698659500,1087,0.9296875,-0.5093384,-0.025939941
1602698659500,1088,0.85253906,-0.34210205,-0.030334473
1602698659501,1089,0.9296875,-0.5093384,-0.025939941
1602698659501,1090,1.1049805,-0.27301025,-0.11431885
1602698659512,1091,0.85253906,-0.34210205,-0.030334473
1602698659512,1092,0.85253906,-0.34210205,-0.030334473
1602698659513,1093,1.0739746,-0.19708252,-0.25323486
1602698659514,1094,1.1049805,-0.27301025,-0.11431885
1602698659514,1095,1.0539551,-0.23516846,-0.30377197
1602698659515,1096,1.1049805,-0.27301025,-0.11431885
1602698659516,1097,1.0739746,-0.19708252,-0.25323486
1602698659516,1098,1.0739746,-0.19708252,-0.25323486
1602698659516,1099,0.98950195,-0.20318604,-0.3189087
1602698659517,1100,1.0539551,-0.23516846,-0.30377197
1602698659520,1101,1.0539551,-0.23516846,-0.30377197
1602698659521,1102,0.8588867,-0.13653564,-0.27716064
1602698659521,1103,0.98950195,-0.20318604,-0.3189087
1602698659523,1104,0.98950195,-0.20318604,-0.3189087
1602698659525,1105,0.8588867,-0.13653564,-0.27716064
1602698659527,1106,0.8588867,-0.13653564,-0.27716064
1602698659531,1107,0.73950195,-0.14703369,-0.17999268
1602698659532,1108,0.73950195,-0.14703369,-0.17999268
1602698659533,1109,0.73950195,-0.14703369,-0.17999268
1602698659542,1110,0.7763672,-0.10650635,-0.06378174
1602698659542,1111,0.7763672,-0.10650635,-0.06378174
1602698659543,1112,0.7763672,-0.10650635,-0.06378174
1602698659546,1113,0.9760742,-0.17584229,-0.006652832
1602698659549,1114,0.9760742,-0.17584229,-0.006652832
1602698659549,1115,1.0825195,-0.1975708,0.21966553
1602698659550,1116,1.0825195,-0.1975708,0.21966553
1602698659553,1117,0.9760742,-0.17584229,-0.006652832
1602698659554,1118,1.0112305,0.29559326,0.13690186
1602698659554,1119,1.0112305,0.29559326,0.13690186
1602698659558,1120,1.0825195,-0.1975708,0.21966553
1602698659558,1121,1.0661621,-0.035461426,0.17523193
1602698659560,1122,1.0661621,-0.035461426,0.17523193
1602698659562,1123,1.0717773,-0.23614502,0.039245605
1602698659565,1124,1.0717773,-0.23614502,0.039245605
1602698659566,1125,1.0332031,-0.17584229,-0.047912598
1602698659566,1126,1.0332031,-0.17584229,-0.047912598
1602698659575,1127,1.0112305,0.29559326,0.13690186
1602698659576,1128,1.0661621,-0.035461426,0.17523193
1602698659576,1129,1.0153809,-0.144104,-0.014953613
1602698659577,1130,1.0717773,-0.23614502,0.039245605
1602698659577,1131,0.9904785,-0.12530518,-0.08648682
1602698659577,1132,1.0153809,-0.144104,-0.014953613
1602698659580,1133,1.0332031,-0.17584229,-0.047912598
1602698659580,1134,0.7915039,-0.38726807,-0.058166504
1602698659581,1135,0.9904785,-0.12530518,-0.08648682
1602698659582,1136,1.0153809,-0.144104,-0.014953613
1602698659585,1137,0.7224121,-0.46221924,-0.014465332
1602698659585,1138,0.7915039,-0.38726807,-0.058166504
1602698659586,1139,0.61743164,-0.47540283,0.14910889
1602698659588,1140,0.7224121,-0.46221924,-0.014465332
1602698659592,1141,0.6203613,-0.38165283,0.1774292
1602698659592,1142,0.9904785,-0.12530518,-0.08648682
1602698659592,1143,0.7373047,-0.34039307,0.27337646
1602698659592,1144,0.7915039,-0.38726807,-0.058166504
1602698659596,1145,0.61743164,-0.47540283,0.14910889
1602698659597,1146,0.7224121,-0.46221924,-0.014465332
1602698659601,1147,0.6203613,-0.38165283,0.1774292
1602698659601,1148,0.61743164,-0.47540283,0.14910889
1602698659601,1149,0.7373047,-0.34039307,0.27337646
1602698659602,1150,0.6203613,-0.38165283,0.1774292
1602698659604,1151,0.7373047,-0.34039307,0.27337646
