# Sensor position: Wrist
# Sensor side: Right
# Activity type: Movement
# Activity code: 9
# Subject id: s1758499
timestamp,seq,accel_x,accel_y,accel_z
1602701376042,0,0.49780273,-0.84869385,-0.22393799
1602701376048,1,0.4970703,-0.84747314,-0.21514893
1602701376048,2,0.49780273,-0.84869385,-0.22393799
1602701376050,3,0.49780273,-0.84869385,-0.22393799
1602701376051,4,0.49804688,-0.84039307,-0.22564697
1602701376051,5,0.49902344,-0.8557739,-0.22735596
1602701376054,6,0.4970703,-0.84747314,-0.21514893
1602701376054,7,0.4970703,-0.84747314,-0.21514893
1602701376055,8,0.49804688,-0.84039307,-0.22564697
1602701376058,9,0.49121094,-0.8635864,-0.24102783
1602701376058,10,0.49804688,-0.84039307,-0.22564697
1602701376058,11,0.49902344,-0.8557739,-0.22735596
1602701376058,12,0.48754883,-0.8496704,-0.23590088
1602701376059,13,0.49902344,-0.8557739,-0.22735596
1602701376062,14,0.49682617,-0.8640747,-0.23052979
1602701376062,15,0.49121094,-0.8635864,-0.24102783
1602701376064,16,0.5061035,-0.8508911,-0.23638916
1602701376070,17,0.48754883,-0.8496704,-0.23590088
1602701376070,18,0.49121094,-0.8635864,-0.24102783
1602701376071,19,0.4987793,-0.8352661,-0.23736572
1602701376071,20,0.48754883,-0.8496704,-0.23590088
1602701376071,21,0.49902344,-0.84088135,-0.2539673
1602701376074,22,0.49682617,-0.8640747,-0.23052979
1602701376074,23,0.49682617,-0.8640747,-0.23052979
1602701376075,24,0.49926758,-0.84698486,-0.23931885
1602701376075,25,0.5061035,-0.8508911,-0.23638916
1602701376076,26,0.5061035,-0.8508911,-0.23638916
1602701376079,27,0.4987793,-0.8352661,-0.23736572
1602701376081,28,0.49902344,-0.84503174,-0.23883057
1602701376081,29,0.4987793,-0.8352661,-0.23736572
1602701376081,30,0.49902344,-0.84088135,-0.2539673
1602701376084,31,0.5041504,-0.84039307,-0.24029541
1602701376084,32,0.49902344,-0.84088135,-0.2539673
1602701376085,33,0.5053711,-0.8447876,-0.24615479
1602701376085,34,0.49926758,-0.84698486,-0.23931885
1602701376089,35,0.49926758,-0.84698486,-0.23931885
1602701376089,36,0.49902344,-0.84503174,-0.23883057
1602701376090,37,0.50683594,-0.83966064,-0.25079346
1602701376090,38,0.5041504,-0.84039307,-0.24029541
1602701376090,39,0.49902344,-0.84503174,-0.23883057
1602701376092,40,0.49926758,-0.8464966,-0.24884033
1602701376092,41,0.5041504,-0.84039307,-0.24029541
1602701376093,42,0.5053711,-0.8447876,-0.24615479
1602701376096,43,0.49389648,-0.850647,-0.24908447
1602701376096,44,0.5053711,-0.8447876,-0.24615479
1602701376096,45,0.50683594,-0.83966064,-0.25079346
1602701376096,46,0.48999023,-0.8467407,-0.23809814
1602701376103,47,0.50683594,-0.83966064,-0.25079346
1602701376103,48,0.49926758,-0.8464966,-0.24884033
1602701376103,49,0.49926758,-0.8464966,-0.24884033
1602701376104,50,0.49389648,-0.850647,-0.24908447
1602701376104,51,0.48535156,-0.861145,-0.24859619
1602701376105,52,0.48999023,-0.8467407,-0.23809814
1602701376105,53,0.49389648,-0.850647,-0.24908447
1602701376107,54,0.48535156,-0.85723877,-0.25128174
1602701376108,55,0.48535156,-0.861145,-0.24859619
1602701376108,56,0.48999023,-0.8467407,-0.23809814
1602701376111,57,0.48583984,-0.8579712,-0.24542236
1602701376111,58,0.48535156,-0.85723877,-0.25128174
1602701376111,59,0.48535156,-0.861145,-0.24859619
1602701376111,60,0.48583984,-0.8579712,-0.24542236
1602701376112,61,0.47998047,-0.85723877,-0.24151611
1602701376120,62,0.48535156,-0.85723877,-0.25128174
1602701376121,63,0.47998047,-0.85723877,-0.24151611
1602701376121,64,0.48266602,-0.8513794,-0.2432251
1602701376121,65,0.48266602,-0.8513794,-0.2432251
1602701376121,66,0.4814453,-0.85284424,-0.2498169
1602701376122,67,0.48583984,-0.8579712,-0.24542236
1602701376122,68,0.48217773,-0.8533325,-0.24737549
1602701376122,69,0.47998047,-0.85723877,-0.24151611
1602701376123,70,0.4814453,-0.85284424,-0.2498169
1602701376127,71,0.47973633,-0.8665161,-0.24932861
1602701376127,72,0.48217773,-0.8533325,-0.24737549
1602701376128,73,0.48266602,-0.8513794,-0.2432251
1602701376128,74,0.4814453,-0.85284424,-0.2498169
1602701376128,75,0.4777832,-0.85821533,-0.25006104
1602701376128,76,0.47973633,-0.8665161,-0.24932861
1602701376129,77,0.48217773,-0.8533325,-0.24737549
1602701376131,78,0.48120117,-0.8596802,-0.25201416
1602701376132,79,0.4777832,-0.85821533,-0.25006104
1602701376132,80,0.47973633,-0.8665161,-0.24932861
1602701376137,81,0.4777832,-0.85650635,-0.25567627
1602701376137,82,0.48120117,-0.8596802,-0.25201416
1602701376138,83,0.4777832,-0.85821533,-0.25006104
1602701376138,84,0.47460938,-0.85235596,-0.25445557
1602701376139,85,0.48120117,-0.8596802,-0.25201416
1602701376140,86,0.4777832,-0.85650635,-0.25567627
1602701376141,87,0.47460938,-0.85235596,-0.25445557
1602701376143,88,0.4777832,-0.85650635,-0.25567627
1602701376143,89,0.47338867,-0.8518677,-0.24761963
1602701376144,90,0.47338867,-0.8518677,-0.24761963
1602701376146,91,0.46948242,-0.86260986,-0.24761963
1602701376146,92,0.46948242,-0.86260986,-0.24761963
1602701376146,93,0.47460938,-0.85235596,-0.25445557
1602701376149,94,0.47338867,-0.8518677,-0.24761963
1602701376150,95,0.46948242,-0.86260986,-0.24761963
1602701378645,96,0.4560547,-0.8320923,-0.2600708
1602701378647,97,0.4560547,-0.8320923,-0.2600708
1602701378647,98,0.4560547,-0.8320923,-0.2600708
1602701378648,99,0.4580078,-0.8167114,-0.26470947
1602701378648,100,0.4580078,-0.8167114,-0.26470947
1602701378654,101,0.4580078,-0.8167114,-0.26470947
1602701378655,102,0.41845703,-0.76446533,-0.29644775
1602701378656,103,0.41845703,-0.76446533,-0.29644775
1602701378656,104,0.3955078,-0.7920532,-0.38702393
1602701378657,105,0.41845703,-0.76446533,-0.29644775
1602701378657,106,0.3605957,-0.9351196,-0.394104
1602701378658,107,0.3955078,-0.7920532,-0.38702393
1602701378667,108,0.3955078,-0.7920532,-0.38702393
1602701378667,109,0.3605957,-0.9351196,-0.394104
1602701378668,110,0.33081055,-0.9807739,-0.3526001
1602701378668,111,0.3605957,-0.9351196,-0.394104
1602701378668,112,0.33081055,-0.9807739,-0.3526001
1602701378669,113,0.33081055,-0.9807739,-0.3526001
1602701378669,114,0.296875,-0.9854126,-0.3694458
1602701378669,115,0.296875,-0.9854126,-0.3694458
1602701378670,116,0.29492188,-0.90582275,-0.4180298
1602701378670,117,0.296875,-0.9854126,-0.3694458
1602701378670,118,0.29492188,-0.90582275,-0.4180298
1602701378671,119,0.32373047,-0.71759033,-0.41485596
1602701378673,120,0.29492188,-0.90582275,-0.4180298
1602701378674,121,0.25195312,-0.70318604,-0.44903564
1602701378677,122,0.32373047,-0.71759033,-0.41485596
1602701378678,123,0.32373047,-0.71759033,-0.41485596
1602701378678,124,0.19897461,-0.78204346,-0.5755005
1602701378678,125,0.25195312,-0.70318604,-0.44903564
1602701378679,126,0.25195312,-0.70318604,-0.44903564
1602701378683,127,0.19897461,-0.78204346,-0.5755005
1602701378683,128,0.1821289,-0.80352783,-0.7241821
1602701378683,129,0.19897461,-0.78204346,-0.5755005
1602701378684,130,0.11669922,-0.8904419,-0.5755005
1602701378684,131,0.1821289,-0.80352783,-0.7241821
1602701378686,132,0.1821289,-0.80352783,-0.7241821
1602701378686,133,-0.21801758,-0.70635986,-0.6602173
1602701378686,134,0.11669922,-0.8904419,-0.5755005
1602701378688,135,0.11669922,-0.8904419,-0.5755005
1602701378688,136,-0.21801758,-0.70635986,-0.6602173
1602701378690,137,-0.21801758,-0.70635986,-0.6602173
1602701378691,138,-0.40454102,-0.8467407,-0.79473877
1602701378692,139,-0.40454102,-0.8467407,-0.79473877
1602701378695,140,-0.40722656,-0.8765259,-0.7920532
1602701378695,141,-0.40454102,-0.8467407,-0.79473877
1602701378695,142,-0.40722656,-0.8765259,-0.7920532
1602701378698,143,-0.41333008,-1.1072388,-0.71343994
1602701378698,144,-0.41333008,-1.1072388,-0.71343994
1602701378698,145,-0.40722656,-0.8765259,-0.7920532
1602701378700,146,-0.34936523,-0.97540283,-0.53497314
1602701378702,147,-0.41333008,-1.1072388,-0.71343994
1602701378702,148,-0.34936523,-0.97540283,-0.53497314
1602701378702,149,-0.564209,-0.71832275,-0.37530518
1602701378704,150,-0.34936523,-0.97540283,-0.53497314
1602701378705,151,-0.564209,-0.71832275,-0.37530518
1602701378705,152,-0.82177734,-0.42510986,-0.27618408
1602701378706,153,-0.564209,-0.71832275,-0.37530518
1602701378710,154,-0.88916016,-0.6043091,-0.35113525
1602701378711,155,-0.82177734,-0.42510986,-0.27618408
1602701378711,156,-0.82177734,-0.42510986,-0.27618408
1602701378711,157,-0.88916016,-0.6043091,-0.35113525
1602701378712,158,-0.9448242,-0.6174927,-0.27374268
1602701378713,159,-0.88916016,-0.6043091,-0.35113525
1602701378717,160,-0.94384766,-0.75909424,-0.15826416
1602701378717,161,-0.9448242,-0.6174927,-0.27374268
1602701378718,162,-0.9448242,-0.6174927,-0.27374268
1602701378718,163,-0.94384766,-0.75909424,-0.15826416
1602701378718,164,-0.85424805,-0.6531372,-0.19366455
1602701378718,165,-0.94384766,-0.75909424,-0.15826416
1602701378719,166,-0.85424805,-0.6531372,-0.19366455
1602701378720,167,-0.9128418,-0.65460205,-0.16168213
1602701378721,168,-0.8317871,-0.7053833,-0.1885376
1602701378724,169,-0.9128418,-0.65460205,-0.16168213
1602701378725,170,-0.85424805,-0.6531372,-0.19366455
1602701378725,171,-0.8317871,-0.7053833,-0.1885376
1602701378725,172,-0.9128418,-0.65460205,-0.16168213
1602701378725,173,-0.82543945,-0.6704712,-0.14581299
1602701378726,174,-0.82543945,-0.6704712,-0.14581299
1602701378727,175,-0.8317871,-0.7053833,-0.1885376
1602701378728,176,-0.97680664,-0.71588135,-0.089660645
1602701378729,177,-0.82543945,-0.6704712,-0.14581299
1602701378730,178,-1.2937012,-0.6655884,-0.06768799
1602701378733,179,-0.97680664,-0.71588135,-0.089660645
1602701378734,180,-0.97680664,-0.71588135,-0.089660645
1602701378734,181,-1.2937012,-0.6655884,-0.06768799
1602701378735,182,-1.4006348,-0.48077393,-0.19488525
1602701378736,183,-1.2937012,-0.6655884,-0.06768799
1602701378738,184,-1.2241211,-0.45465088,-0.25982666
1602701378738,185,-1.4006348,-0.48077393,-0.19488525
1602701378738,186,-1.0441895,-0.5100708,-0.18463135
1602701378740,187,-1.4006348,-0.48077393,-0.19488525
1602701378741,188,-1.2241211,-0.45465088,-0.25982666
1602701378743,189,-1.2241211,-0.45465088,-0.25982666
1602701378743,190,-1.0441895,-0.5100708,-0.18463135
1602701378745,191,-1.0441895,-0.5100708,-0.18463135
1602701381345,192,-0.7216797,-0.38043213,-0.09234619
1602701381357,193,-0.7216797,-0.38043213,-0.09234619
1602701381357,194,-0.7216797,-0.38043213,-0.09234619
1602701381358,195,-0.45898438,-0.22320557,0.07684326
1602701381358,196,-0.45898438,-0.22320557,0.07684326
1602701381359,197,-0.45898438,-0.22320557,0.07684326
1602701381359,198,-0.44921875,-0.19293213,0.18841553
1602701381359,199,-0.44921875,-0.19293213,0.18841553
1602701381360,200,-0.44921875,-0.19293213,0.18841553
1602701381360,201,-0.66503906,-0.34161377,0.33831787
1602701381361,202,-0.66503906,-0.34161377,0.33831787
1602701381362,203,-0.66503906,-0.34161377,0.33831787
1602701381364,204,-1.1713867,-0.54644775,0.42303467
1602701381368,205,-1.1713867,-0.54644775,0.42303467
1602701381368,206,-1.1713867,-0.54644775,0.42303467
1602701381368,207,-1.7319336,-0.5315552,0.26483154
1602701381371,208,-1.7319336,-0.5315552,0.26483154
1602701381375,209,-1.2897949,-0.9829712,0.23358154
1602701381376,210,-1.7319336,-0.5315552,0.26483154
1602701381376,211,-1.2897949,-0.9829712,0.23358154
1602701381377,212,-1.2897949,-0.9829712,0.23358154
1602701381386,213,-1.2473145,-0.70318604,-0.03277588
1602701381387,214,-1.2473145,-0.70318604,-0.03277588
1602701381388,215,-1.2473145,-0.70318604,-0.03277588
1602701381388,216,-1.2036133,-0.5510864,-0.144104
1602701381389,217,-1.2036133,-0.5510864,-0.144104
1602701381389,218,-1.2036133,-0.5510864,-0.144104
1602701381390,219,-1.1801758,-0.59039307,-0.62457275
1602701381390,220,-1.1801758,-0.59039307,-0.62457275
1602701381390,221,-1.0754395,-0.32354736,-0.8233032
1602701381391,222,-1.1801758,-0.59039307,-0.62457275
1602701381398,223,-1.0754395,-0.32354736,-0.8233032
1602701381399,224,-0.9453125,-0.36138916,-0.49713135
1602701381399,225,-0.9453125,-0.36138916,-0.49713135
1602701381399,226,-0.98779297,-0.30108643,-0.06085205
1602701381400,227,-0.98779297,-0.30108643,-0.06085205
1602701381400,228,-1.0754395,-0.32354736,-0.8233032
1602701381406,229,-0.9091797,-0.35406494,0.24407959
1602701381406,230,-0.9091797,-0.35406494,0.24407959
1602701381407,231,-0.9453125,-0.36138916,-0.49713135
1602701381407,232,-1.2663574,-0.34039307,0.4171753
1602701381408,233,-1.2663574,-0.34039307,0.4171753
1602701381414,234,-0.98779297,-0.30108643,-0.06085205
1602701381415,235,-1.2260742,-0.22027588,0.39544678
1602701381415,236,-1.2260742,-0.22027588,0.39544678
1602701381415,237,-1.0078125,-0.4968872,0.36956787
1602701381416,238,-1.0078125,-0.4968872,0.36956787
1602701381416,239,-0.9416504,-0.6050415,0.22723389
1602701381418,240,-0.9091797,-0.35406494,0.24407959
1602701381420,241,-0.90063477,-0.6277466,0.073913574
1602701381422,242,-1.2663574,-0.34039307,0.4171753
1602701381424,243,-0.90283203,-0.6638794,-0.047912598
1602701381426,244,-1.2260742,-0.22027588,0.39544678
1602701381428,245,-1.09375,-0.7498169,-0.1519165
1602701381433,246,-1.0078125,-0.4968872,0.36956787
1602701381433,247,-0.9416504,-0.6050415,0.22723389
1602701381434,248,-1.0839844,-0.77667236,-0.13433838
1602701381435,249,-0.9416504,-0.6050415,0.22723389
1602701381436,250,-1.463623,-0.7571411,-0.22076416
1602701381439,251,-0.90063477,-0.6277466,0.073913574
1602701381443,252,-0.90063477,-0.6277466,0.073913574
1602701381444,253,-1.3869629,-0.68170166,-0.17364502
1602701381448,254,-0.90283203,-0.6638794,-0.047912598
1602701381448,255,-1.09375,-0.7498169,-0.1519165
1602701381449,256,-1.3903809,-0.88116455,-0.22589111
1602701381449,257,-0.90283203,-0.6638794,-0.047912598
1602701381455,258,-1.0839844,-0.77667236,-0.13433838
1602701381456,259,-1.0710449,-0.58135986,-0.17120361
1602701381457,260,-1.09375,-0.7498169,-0.1519165
1602701381457,261,-0.51831055,-0.1687622,0.001159668
1602701381459,262,-1.0839844,-0.77667236,-0.13433838
1602701381460,263,-0.3400879,-0.026184082,0.035583496
1602701381462,264,-1.463623,-0.7571411,-0.22076416
1602701381465,265,-0.55737305,-0.20880127,0.32440186
1602701381466,266,-1.463623,-0.7571411,-0.22076416
1602701381466,267,-1.3869629,-0.68170166,-0.17364502
1602701381466,268,-1.3869629,-0.68170166,-0.17364502
1602701381470,269,-1.0961914,-0.38775635,0.340271
1602701381470,270,-1.3903809,-0.88116455,-0.22589111
1602701381471,271,-1.8796387,-0.5210571,0.2711792
1602701381472,272,-1.3903809,-0.88116455,-0.22589111
1602701381475,273,-1.4797363,-0.892395,0.33563232
1602701381475,274,-1.0710449,-0.58135986,-0.17120361
1602701381478,275,-1.0710449,-0.58135986,-0.17120361
1602701381479,276,-0.51831055,-0.1687622,0.001159668
1602701381481,277,-0.51831055,-0.1687622,0.001159668
1602701381483,278,-0.3400879,-0.026184082,0.035583496
1602701381483,279,-0.3400879,-0.026184082,0.035583496
1602701381488,280,-0.55737305,-0.20880127,0.32440186
1602701381488,281,-0.55737305,-0.20880127,0.32440186
1602701381489,282,-1.0961914,-0.38775635,0.340271
1602701381489,283,-1.0961914,-0.38775635,0.340271
1602701381489,284,-1.8796387,-0.5210571,0.2711792
1602701381490,285,-1.8796387,-0.5210571,0.2711792
1602701381491,286,-1.4797363,-0.892395,0.33563232
1602701381493,287,-1.4797363,-0.892395,0.33563232
1602701383648,288,-0.95874023,-0.6812134,0.14398193
1602701383654,289,-0.95874023,-0.6812134,0.14398193
1602701383656,290,-0.95874023,-0.6812134,0.14398193
1602701383657,291,-0.7734375,-0.65460205,0.09100342
1602701383674,292,-0.7734375,-0.65460205,0.09100342
1602701383675,293,-0.7734375,-0.65460205,0.09100342
1602701383676,294,-0.99658203,-0.80303955,0.06585693
1602701383676,295,-0.99658203,-0.80303955,0.06585693
1602701383678,296,-1.2641602,-0.8928833,-0.13555908
1602701383679,297,-0.99658203,-0.80303955,0.06585693
1602701383679,298,-1.4460449,-0.6187134,-0.39093018
1602701383679,299,-1.2641602,-0.8928833,-0.13555908
1602701383680,300,-1.2641602,-0.8928833,-0.13555908
1602701383680,301,-1.4460449,-0.6187134,-0.39093018
1602701383681,302,-1.4562988,-0.60406494,-0.36895752
1602701383687,303,-1.4460449,-0.6187134,-0.39093018
1602701383688,304,-1.4562988,-0.60406494,-0.36895752
1602701383688,305,-1.2128906,-0.6741333,-0.31402588
1602701383689,306,-1.4562988,-0.60406494,-0.36895752
1602701383692,307,-1.2128906,-0.6741333,-0.31402588
1602701383704,308,-1.2128906,-0.6741333,-0.31402588
1602701383704,309,-0.80029297,-0.440979,-0.26568604
1602701383705,310,-0.80029297,-0.440979,-0.26568604
1602701383705,311,-0.63012695,-0.20465088,-0.113586426
1602701383705,312,-0.80029297,-0.440979,-0.26568604
1602701383705,313,-0.6845703,-0.22003174,0.010681152
1602701383706,314,-0.63012695,-0.20465088,-0.113586426
1602701383707,315,-0.63012695,-0.20465088,-0.113586426
1602701383709,316,-0.86499023,-0.40411377,0.12542725
1602701383715,317,-0.6845703,-0.22003174,0.010681152
1602701383716,318,-0.6845703,-0.22003174,0.010681152
1602701383716,319,-0.86499023,-0.40411377,0.12542725
1602701383717,320,-0.86499023,-0.40411377,0.12542725
1602701383718,321,-1.2524414,-0.487854,0.14276123
1602701383721,322,-1.2524414,-0.487854,0.14276123
1602701383721,323,-1.2524414,-0.487854,0.14276123
1602701383722,324,-1.4350586,-0.6572876,0.23895264
1602701383727,325,-1.4350586,-0.6572876,0.23895264
1602701383727,326,-1.4350586,-0.6572876,0.23895264
1602701383728,327,-1.0634766,-0.6602173,0.16668701
1602701383728,328,-1.0634766,-0.6602173,0.16668701
1602701383728,329,-0.8688965,-0.67315674,0.11981201
1602701383728,330,-1.0634766,-0.6602173,0.16668701
1602701383731,331,-0.8688965,-0.67315674,0.11981201
1602701383734,332,-0.8688965,-0.67315674,0.11981201
1602701383734,333,-0.8095703,-0.64678955,0.02923584
1602701383734,334,-0.8095703,-0.64678955,0.02923584
1602701383736,335,-0.8095703,-0.64678955,0.02923584
1602701383739,336,-1.1606445,-0.8128052,0.009216309
1602701383739,337,-1.1606445,-0.8128052,0.009216309
1602701383740,338,-1.1606445,-0.8128052,0.009216309
1602701383741,339,-1.427002,-0.69732666,-0.0029907227
1602701383745,340,-1.427002,-0.69732666,-0.0029907227
1602701383745,341,-1.427002,-0.69732666,-0.0029907227
1602701383746,342,-1.6704102,-0.42999268,-0.13165283
1602701383750,343,-1.6704102,-0.42999268,-0.13165283
1602701383750,344,-1.6704102,-0.42999268,-0.13165283
1602701383750,345,-1.4211426,-0.44586182,-0.07965088
1602701383755,346,-1.4211426,-0.44586182,-0.07965088
1602701383756,347,-0.9128418,-0.24493408,-0.02911377
1602701383756,348,-1.4211426,-0.44586182,-0.07965088
1602701383756,349,-0.48999023,-0.06964111,0.010192871
1602701383756,350,-0.9128418,-0.24493408,-0.02911377
1602701383757,351,-0.71484375,-0.13360596,0.04901123
1602701383761,352,-0.9128418,-0.24493408,-0.02911377
1602701383761,353,-0.48999023,-0.06964111,0.010192871
1602701383761,354,-1.3100586,-0.4758911,-0.13116455
1602701383761,355,-0.48999023,-0.06964111,0.010192871
1602701383763,356,-0.71484375,-0.13360596,0.04901123
1602701383766,357,-0.71484375,-0.13360596,0.04901123
1602701383766,358,-1.2954102,-0.6616821,-0.06695557
1602701383769,359,-1.3100586,-0.4758911,-0.13116455
1602701383769,360,-1.3100586,-0.4758911,-0.13116455
1602701383770,361,-1.217041,-0.8430786,-0.0178833
1602701383781,362,-1.2954102,-0.6616821,-0.06695557
1602701383787,363,-1.217041,-0.8430786,-0.0178833
1602701383788,364,-0.9406738,-0.61602783,0.039245605
1602701383788,365,-0.9406738,-0.61602783,0.039245605
1602701383788,366,-0.8769531,-0.6448364,0.04534912
1602701383788,367,-0.8623047,-0.7605591,0.17230225
1602701383791,368,-1.2954102,-0.6616821,-0.06695557
1602701383792,369,-1.0244141,-0.7962036,0.26507568
1602701383794,370,-0.8769531,-0.6448364,0.04534912
1602701383798,371,-0.8623047,-0.7605591,0.17230225
1602701383799,372,-1.1679688,-0.74224854,0.21697998
1602701383799,373,-1.0244141,-0.7962036,0.26507568
1602701383813,374,-1.217041,-0.8430786,-0.0178833
1602701383816,375,-1.1882324,-0.56744385,0.10809326
1602701383816,376,-1.1679688,-0.74224854,0.21697998
1602701383816,377,-1.1882324,-0.56744385,0.10809326
1602701383818,378,-0.9406738,-0.61602783,0.039245605
1602701383819,379,-0.8769531,-0.6448364,0.04534912
1602701383819,380,-0.8623047,-0.7605591,0.17230225
1602701383820,381,-1.0244141,-0.7962036,0.26507568
1602701383840,382,-1.1679688,-0.74224854,0.21697998
1602701383848,383,-1.1882324,-0.56744385,0.10809326
1602701386248,384,-1.5185547,-0.5029907,0.030700684
1602701386260,385,-1.1577148,-0.29864502,-0.061584473
1602701386260,386,-1.5185547,-0.5029907,0.030700684
1602701386260,387,-1.5185547,-0.5029907,0.030700684
1602701386261,388,-1.1577148,-0.29864502,-0.061584473
1602701386261,389,-1.1577148,-0.29864502,-0.061584473
1602701386262,390,-0.8022461,-0.29351807,-0.07183838
1602701386267,391,-0.8022461,-0.29351807,-0.07183838
1602701386268,392,-0.8022461,-0.29351807,-0.07183838
1602701386269,393,-0.62524414,-0.20245361,-0.12261963
1602701386271,394,-0.62524414,-0.20245361,-0.12261963
1602701386273,395,-0.80126953,-0.26983643,-0.14776611
1602701386277,396,-0.80126953,-0.26983643,-0.14776611
1602701386292,397,-1.1118164,-0.5159302,-0.050598145
1602701386293,398,-0.62524414,-0.20245361,-0.12261963
1602701386295,399,-1.1118164,-0.5159302,-0.050598145
1602701386296,400,-1.3037109,-0.6272583,0.124938965
1602701386297,401,-1.3037109,-0.6272583,0.124938965
1602701386297,402,-1.2363281,-0.56573486,0.16229248
1602701386305,403,-0.80126953,-0.26983643,-0.14776611
1602701386305,404,-0.904541,-0.61383057,0.16815186
1602701386307,405,-1.2363281,-0.56573486,0.16229248
1602701386307,406,-1.1118164,-0.5159302,-0.050598145
1602701386307,407,-0.80981445,-0.6589966,0.19451904
1602701386309,408,-1.3037109,-0.6272583,0.124938965
1602701386311,409,-0.8474121,-0.6682739,0.1552124
1602701386313,410,-1.2363281,-0.56573486,0.16229248
1602701386315,411,-1.1369629,-0.7444458,0.049743652
1602701386319,412,-0.904541,-0.61383057,0.16815186
1602701386320,413,-0.904541,-0.61383057,0.16815186
1602701386320,414,-1.3171387,-0.72857666,-0.09088135
1602701386324,415,-0.80981445,-0.6589966,0.19451904
1602701386324,416,-0.80981445,-0.6589966,0.19451904
1602701386325,417,-0.8474121,-0.6682739,0.1552124
1602701386330,418,-1.5437012,-0.7202759,-0.24810791
1602701386331,419,-1.1369629,-0.7444458,0.049743652
1602701386331,420,-0.8474121,-0.6682739,0.1552124
1602701386332,421,-1.3876953,-0.62335205,-0.30670166
1602701386332,422,-1.1369629,-0.7444458,0.049743652
1602701386334,423,-1.3171387,-0.72857666,-0.09088135
1602701386336,424,-1.0529785,-0.7127075,-0.2637329
1602701386336,425,-1.3171387,-0.72857666,-0.09088135
1602701386337,426,-1.5437012,-0.7202759,-0.24810791
1602701386343,427,-0.52124023,-0.8899536,-0.11993408
1602701386343,428,-1.5437012,-0.7202759,-0.24810791
1602701386344,429,-1.3876953,-0.62335205,-0.30670166
1602701386344,430,-1.3876953,-0.62335205,-0.30670166
1602701386344,431,-0.20092773,-0.8892212,0.09564209
1602701386345,432,-1.0529785,-0.7127075,-0.2637329
1602701386345,433,-0.2602539,-0.6013794,0.026550293
1602701386347,434,-1.0529785,-0.7127075,-0.2637329
1602701386351,435,-0.3203125,-0.26153564,0.030944824
1602701386352,436,-0.52124023,-0.8899536,-0.11993408
1602701386352,437,-0.52124023,-0.8899536,-0.11993408
1602701386352,438,-0.5625,-0.2498169,0.0099487305
1602701386354,439,-0.20092773,-0.8892212,0.09564209
1602701386355,440,-1.0534668,-0.43023682,-0.014953613
1602701386357,441,-0.2602539,-0.6013794,0.026550293
1602701386358,442,-1.4934082,-0.89801025,-0.0095825195
1602701386361,443,-0.3203125,-0.26153564,0.030944824
1602701386362,444,-0.20092773,-0.8892212,0.09564209
1602701386362,445,-1.3366699,-0.45806885,0.21600342
1602701386364,446,-0.5625,-0.2498169,0.0099487305
1602701386365,447,-1.2180176,-0.60357666,0.1786499
1602701386366,448,-1.0534668,-0.43023682,-0.014953613
1602701386371,449,-1.0405273,-0.5359497,0.06585693
1602701386371,450,-0.2602539,-0.6013794,0.026550293
1602701386371,451,-0.9592285,-0.5471802,-0.0413208
1602701386372,452,-0.3203125,-0.26153564,0.030944824
1602701386376,453,-1.4934082,-0.89801025,-0.0095825195
1602701386376,454,-0.9326172,-0.6182251,-0.043029785
1602701386376,455,-0.5625,-0.2498169,0.0099487305
1602701386380,456,-1.3366699,-0.45806885,0.21600342
1602701386381,457,-1.1696777,-0.72906494,-0.15093994
1602701386381,458,-1.0534668,-0.43023682,-0.014953613
1602701386383,459,-1.2180176,-0.60357666,0.1786499
1602701386384,460,-1.4934082,-0.89801025,-0.0095825195
1602701386386,461,-1.3325195,-0.76519775,-0.32843018
1602701386388,462,-1.3366699,-0.45806885,0.21600342
1602701386392,463,-1.2277832,-0.5869751,-0.31280518
1602701386392,464,-1.0405273,-0.5359497,0.06585693
1602701386392,465,-1.2180176,-0.60357666,0.1786499
1602701386394,466,-1.0634766,-0.534729,-0.14971924
1602701386398,467,-1.0405273,-0.5359497,0.06585693
1602701386399,468,-0.9592285,-0.5471802,-0.0413208
1602701386403,469,-0.9592285,-0.5471802,-0.0413208
1602701386403,470,-0.9326172,-0.6182251,-0.043029785
1602701386403,471,-0.9326172,-0.6182251,-0.043029785
1602701386403,472,-1.1696777,-0.72906494,-0.15093994
1602701386407,473,-1.1696777,-0.72906494,-0.15093994
1602701386408,474,-1.3325195,-0.76519775,-0.32843018
1602701386408,475,-1.3325195,-0.76519775,-0.32843018
1602701386408,476,-1.2277832,-0.5869751,-0.31280518
1602701386410,477,-1.2277832,-0.5869751,-0.31280518
1602701386411,478,-1.0634766,-0.534729,-0.14971924
1602701386413,479,-1.0634766,-0.534729,-0.14971924
1602701388745,480,-0.9382324,-0.3574829,-0.10284424
1602701388746,481,-0.87060547,-0.112854004,-0.12042236
1602701388748,482,-0.9382324,-0.3574829,-0.10284424
1602701388749,483,-0.9382324,-0.3574829,-0.10284424
1602701388761,484,-0.7553711,-0.50982666,-0.12359619
1602701388762,485,-0.87060547,-0.112854004,-0.12042236
1602701388762,486,-0.87060547,-0.112854004,-0.12042236
1602701388762,487,-0.7553711,-0.50982666,-0.12359619
1602701388763,488,-0.71777344,-1.0488892,0.024841309
1602701388763,489,-0.7553711,-0.50982666,-0.12359619
1602701388764,490,-0.71777344,-1.0488892,0.024841309
1602701388765,491,-0.71777344,-1.0488892,0.024841309
1602701388765,492,-0.6591797,-0.9299927,0.23724365
1602701388766,493,-0.6591797,-0.9299927,0.23724365
1602701388772,494,-0.6591797,-0.9299927,0.23724365
1602701388773,495,-0.36572266,-0.6956177,0.27874756
1602701388773,496,-0.36572266,-0.6956177,0.27874756
1602701388773,497,-0.36572266,-0.6956177,0.27874756
1602701388777,498,-0.4404297,-0.616272,0.307312
1602701388778,499,-0.4404297,-0.616272,0.307312
1602701388778,500,-0.48706055,-0.8220825,0.25750732
1602701388783,501,-0.48706055,-0.8220825,0.25750732
1602701388783,502,-0.4404297,-0.616272,0.307312
1602701388784,503,-0.6530762,-0.83258057,0.16131592
1602701388784,504,-0.48706055,-0.8220825,0.25750732
1602701388784,505,-0.95654297,-1.1773071,0.1251831
1602701388785,506,-0.6530762,-0.83258057,0.16131592
1602701388788,507,-0.6530762,-0.83258057,0.16131592
1602701388789,508,-1.0061035,-0.85894775,0.1473999
1602701388789,509,-0.95654297,-1.1773071,0.1251831
1602701388795,510,-0.95654297,-1.1773071,0.1251831
1602701388796,511,-1.0258789,-0.72906494,0.089782715
1602701388796,512,-1.0061035,-0.85894775,0.1473999
1602701388797,513,-0.78027344,-0.678772,0.009216309
1602701388799,514,-1.0258789,-0.72906494,0.089782715
1602701388802,515,-1.0061035,-0.85894775,0.1473999
1602701388803,516,-0.6689453,-0.37017822,-0.04107666
1602701388803,517,-0.78027344,-0.678772,0.009216309
1602701388806,518,-1.0258789,-0.72906494,0.089782715
1602701388809,519,-0.62719727,-0.27642822,-0.0051879883
1602701388809,520,-0.6689453,-0.37017822,-0.04107666
1602701388810,521,-0.78027344,-0.678772,0.009216309
1602701388816,522,-0.87524414,-0.37164307,-0.07110596
1602701388817,523,-0.62719727,-0.27642822,-0.0051879883
1602701388817,524,-0.6689453,-0.37017822,-0.04107666
1602701388818,525,-1.1943359,-0.58721924,-0.01763916
1602701388818,526,-0.62719727,-0.27642822,-0.0051879883
1602701388818,527,-0.87524414,-0.37164307,-0.07110596
1602701388822,528,-0.87524414,-0.37164307,-0.07110596
1602701388822,529,-1.1943359,-0.58721924,-0.01763916
1602701388822,530,-1.2331543,-0.55914307,-0.046203613
1602701388822,531,-1.1943359,-0.58721924,-0.01763916
1602701388822,532,-1.2331543,-0.55914307,-0.046203613
1602701388825,533,-0.95214844,-0.5371704,-0.04034424
1602701388825,534,-1.2331543,-0.55914307,-0.046203613
1602701388825,535,-0.95214844,-0.5371704,-0.04034424
1602701388827,536,-0.8383789,-0.58258057,0.002380371
1602701388828,537,-0.95214844,-0.5371704,-0.04034424
1602701388828,538,-0.8383789,-0.58258057,0.002380371
1602701388829,539,-0.81640625,-0.6013794,0.036071777
1602701388830,540,-0.81640625,-0.6013794,0.036071777
1602701388833,541,-0.9121094,-0.6272583,0.07928467
1602701388833,542,-0.8383789,-0.58258057,0.002380371
1602701388833,543,-0.9121094,-0.6272583,0.07928467
1602701388834,544,-1.2536621,-0.6213989,0.10321045
1602701388835,545,-0.81640625,-0.6013794,0.036071777
1602701388836,546,-1.1767578,-0.5186157,0.003112793
1602701388837,547,-0.9121094,-0.6272583,0.07928467
1602701388840,548,-1.1433105,-0.49371338,-0.039367676
1602701388841,549,-1.2536621,-0.6213989,0.10321045
1602701388841,550,-1.2536621,-0.6213989,0.10321045
1602701388841,551,-1.1767578,-0.5186157,0.003112793
1602701388841,552,-0.9897461,-0.3731079,-0.09552002
1602701388844,553,-1.1767578,-0.5186157,0.003112793
1602701388844,554,-1.1433105,-0.49371338,-0.039367676
1602701388844,555,-0.8312988,-0.27374268,-0.08062744
1602701388845,556,-1.1433105,-0.49371338,-0.039367676
1602701388846,557,-0.76000977,-0.2630005,-0.09307861
1602701388848,558,-0.9897461,-0.3731079,-0.09552002
1602701388849,559,-0.84814453,-0.3640747,-0.15509033
1602701388851,560,-0.8312988,-0.27374268,-0.08062744
1602701388851,561,-0.9897461,-0.3731079,-0.09552002
1602701388851,562,-1.0510254,-0.5466919,-0.20855713
1602701388854,563,-0.76000977,-0.2630005,-0.09307861
1602701388855,564,-0.8312988,-0.27374268,-0.08062744
1602701388855,565,-1.1157227,-0.57476807,-0.12677002
1602701388856,566,-0.76000977,-0.2630005,-0.09307861
1602701388857,567,-1.0048828,-0.5750122,-0.050842285
1602701388857,568,-0.84814453,-0.3640747,-0.15509033
1602701388858,569,-0.84814453,-0.3640747,-0.15509033
1602701388859,570,-1.0510254,-0.5466919,-0.20855713
1602701388861,571,-1.0510254,-0.5466919,-0.20855713
1602701388862,572,-1.1157227,-0.57476807,-0.12677002
1602701388863,573,-1.1157227,-0.57476807,-0.12677002
1602701388864,574,-1.0048828,-0.5750122,-0.050842285
1602701388865,575,-1.0048828,-0.5750122,-0.050842285
1602701391345,576,-0.8457031,-0.5147095,0.032409668
1602701391350,577,-0.8457031,-0.5147095,0.032409668
1602701391352,578,-0.8457031,-0.5147095,0.032409668
1602701391353,579,-0.78759766,-0.517395,0.043395996
1602701391353,580,-0.78759766,-0.517395,0.043395996
1602701391358,581,-0.7609863,-0.57598877,0.078063965
1602701391358,582,-0.7609863,-0.57598877,0.078063965
1602701391359,583,-1.1062012,-0.6543579,0.081726074
1602701391362,584,-0.78759766,-0.517395,0.043395996
1602701391363,585,-1.1062012,-0.6543579,0.081726074
1602701391363,586,-1.2790527,-0.647522,-0.049865723
1602701391369,587,-0.7609863,-0.57598877,0.078063965
1602701391369,588,-1.369873,-0.5249634,-0.030090332
1602701391369,589,-1.2790527,-0.647522,-0.049865723
1602701391370,590,-1.1506348,-0.35064697,-0.019592285
1602701391371,591,-1.369873,-0.5249634,-0.030090332
1602701391371,592,-1.1062012,-0.6543579,0.081726074
1602701391376,593,-1.1506348,-0.35064697,-0.019592285
1602701391376,594,-0.7524414,0.124938965,-0.093811035
1602701391377,595,-1.2790527,-0.647522,-0.049865723
1602701391377,596,-0.7524414,0.124938965,-0.093811035
1602701391383,597,-1.369873,-0.5249634,-0.030090332
1602701391384,598,-0.5119629,-0.6021118,-0.22540283
1602701391384,599,-0.5119629,-0.6021118,-0.22540283
1602701391384,600,-0.4091797,-0.9834595,-0.3040161
1602701391385,601,-1.1506348,-0.35064697,-0.019592285
1602701391385,602,-0.4091797,-0.9834595,-0.3040161
1602701391388,603,-0.7524414,0.124938965,-0.093811035
1602701391389,604,-0.5554199,-0.7944946,0.05609131
1602701391389,605,-0.5554199,-0.7944946,0.05609131
1602701391392,606,-0.5119629,-0.6021118,-0.22540283
1602701391393,607,-0.33081055,-1.1116333,0.16790771
1602701391394,608,-0.4091797,-0.9834595,-0.3040161
1602701391396,609,-0.33081055,-1.1116333,0.16790771
1602701391397,610,-0.36547852,-0.7715454,0.2177124
1602701391400,611,-0.36547852,-0.7715454,0.2177124
1602701391400,612,-0.5554199,-0.7944946,0.05609131
1602701391401,613,-0.47387695,-0.7522583,0.4393921
1602701391415,614,-0.47387695,-0.7522583,0.4393921
1602701391416,615,-0.33081055,-1.1116333,0.16790771
1602701391416,616,-0.6020508,-0.6133423,0.51116943
1602701391416,617,-0.36547852,-0.7715454,0.2177124
1602701391417,618,-0.5473633,-0.62750244,0.64105225
1602701391417,619,-0.47387695,-0.7522583,0.4393921
1602701391418,620,-0.43139648,-0.59576416,0.8209839
1602701391418,621,-0.6020508,-0.6133423,0.51116943
1602701391418,622,-0.27246094,-0.49420166,0.87615967
1602701391419,623,-0.6020508,-0.6133423,0.51116943
1602701391419,624,-0.13305664,-0.3604126,0.6395874
1602701391419,625,-0.5473633,-0.62750244,0.64105225
1602701391420,626,-0.041015625,-0.4673462,0.75531006
1602701391421,627,-0.43139648,-0.59576416,0.8209839
1602701391421,628,-0.5473633,-0.62750244,0.64105225
1602701391422,629,-0.27246094,-0.49420166,0.87615967
1602701391422,630,-0.43139648,-0.59576416,0.8209839
1602701391422,631,-0.13305664,-0.3604126,0.6395874
1602701391428,632,-0.27246094,-0.49420166,0.87615967
1602701391428,633,0.032226562,-0.36968994,0.7628784
1602701391428,634,-0.041015625,-0.4673462,0.75531006
1602701391429,635,-0.13305664,-0.3604126,0.6395874
1602701391430,636,0.032226562,-0.36968994,0.7628784
1602701391430,637,0.03930664,-0.9043579,1.3327026
1602701391434,638,-0.041015625,-0.4673462,0.75531006
1602701391434,639,0.03930664,-0.9043579,1.3327026
1602701391435,640,-0.5280762,-1.6795044,0.92352295
1602701391437,641,0.032226562,-0.36968994,0.7628784
1602701391437,642,-0.5280762,-1.6795044,0.92352295
1602701391438,643,0.03930664,-0.9043579,1.3327026
1602701391442,644,-0.28735352,-0.3838501,0.71746826
1602701391442,645,-0.28735352,-0.3838501,0.71746826
1602701391443,646,-0.083496094,-0.5540161,0.21136475
1602701391445,647,-0.37890625,-0.88946533,0.3710327
1602701391447,648,-0.5280762,-1.6795044,0.92352295
1602701391450,649,-0.6369629,-0.8843384,0.2880249
1602701391452,650,-0.083496094,-0.5540161,0.21136475
1602701391452,651,-0.28735352,-0.3838501,0.71746826
1602701391453,652,-0.8532715,-0.7007446,0.6564331
1602701391455,653,-0.37890625,-0.88946533,0.3710327
1602701391458,654,-0.6994629,-0.48028564,0.16986084
1602701391458,655,-0.6369629,-0.8843384,0.2880249
1602701391459,656,-0.083496094,-0.5540161,0.21136475
1602701391460,657,-0.40283203,-0.9932251,-0.059143066
1602701391463,658,-0.37890625,-0.88946533,0.3710327
1602701391463,659,-0.8532715,-0.7007446,0.6564331
1602701391464,660,-0.24389648,-0.7805786,-0.2029419
1602701391465,661,-0.6369629,-0.8843384,0.2880249
1602701391467,662,-0.52368164,-0.8753052,0.23699951
1602701391470,663,-0.8532715,-0.7007446,0.6564331
1602701391470,664,-0.6994629,-0.48028564,0.16986084
1602701391472,665,-0.6994629,-0.48028564,0.16986084
1602701391481,666,-0.40283203,-0.9932251,-0.059143066
1602701391481,667,-0.24389648,-0.7805786,-0.2029419
1602701391481,668,-0.40283203,-0.9932251,-0.059143066
1602701391482,669,-0.52368164,-0.8753052,0.23699951
1602701391482,670,-0.24389648,-0.7805786,-0.2029419
1602701391482,671,-0.52368164,-0.8753052,0.23699951
1602701393846,672,-1.1269531,-0.95977783,0.41204834
1602701393853,673,-1.4057617,-0.5178833,0.25946045
1602701393861,674,-1.1269531,-0.95977783,0.41204834
1602701393861,675,-1.0283203,-0.3032837,0.1954956
1602701393869,676,-1.1269531,-0.95977783,0.41204834
1602701393869,677,-0.86816406,-0.42608643,0.19744873
1602701393869,678,-0.8027344,-0.59576416,0.043395996
1602701393873,679,-1.4057617,-0.5178833,0.25946045
1602701393873,680,-0.9658203,-0.78375244,0.07342529
1602701393874,681,-1.0283203,-0.3032837,0.1954956
1602701393875,682,-1.2832031,-0.86260986,-0.08428955
1602701393875,683,-1.4057617,-0.5178833,0.25946045
1602701393875,684,-0.86816406,-0.42608643,0.19744873
1602701393876,685,-1.329834,-1.062561,0.021911621
1602701393881,686,-0.98706055,-1.2244263,0.4076538
1602701393882,687,-1.0283203,-0.3032837,0.1954956
1602701393882,688,-0.8027344,-0.59576416,0.043395996
1602701393883,689,-0.4736328,-0.7390747,0.44403076
1602701393883,690,-0.9658203,-0.78375244,0.07342529
1602701393883,691,-0.86816406,-0.42608643,0.19744873
1602701393884,692,-1.2832031,-0.86260986,-0.08428955
1602701393887,693,-0.8027344,-0.59576416,0.043395996
1602701393887,694,-0.015380859,-0.04522705,0.29852295
1602701393887,695,-0.9658203,-0.78375244,0.07342529
1602701393893,696,-1.329834,-1.062561,0.021911621
1602701393894,697,0.123046875,-0.003967285,0.4454956
1602701393894,698,-1.2832031,-0.86260986,-0.08428955
1602701393894,699,-0.028808594,-0.26446533,0.6281128
1602701393894,700,-1.329834,-1.062561,0.021911621
1602701393894,701,-0.2915039,-0.5635376,0.8475952
1602701393894,702,-0.98706055,-1.2244263,0.4076538
1602701393897,703,-0.98706055,-1.2244263,0.4076538
1602701393899,704,-0.21533203,-0.37554932,0.9159546
1602701393900,705,-0.4736328,-0.7390747,0.44403076
1602701393900,706,-0.4736328,-0.7390747,0.44403076
1602701393903,707,-0.037353516,-0.5942993,1.0267944
1602701393905,708,-0.015380859,-0.04522705,0.29852295
1602701393905,709,0.08227539,-0.4800415,0.8822632
1602701393906,710,-0.015380859,-0.04522705,0.29852295
1602701393910,711,0.123046875,-0.003967285,0.4454956
1602701393911,712,0.10229492,-0.34405518,0.8961792
1602701393911,713,0.123046875,-0.003967285,0.4454956
1602701393911,714,-0.119384766,-0.3394165,0.8656616
1602701393911,715,-0.028808594,-0.26446533,0.6281128
1602701393912,716,-0.13061523,-0.395813,0.87908936
1602701393912,717,-0.028808594,-0.26446533,0.6281128
1602701393919,718,-0.2915039,-0.5635376,0.8475952
1602701393919,719,-0.001953125,-0.3135376,0.91693115
1602701393919,720,-0.2915039,-0.5635376,0.8475952
1602701393919,721,-0.21533203,-0.37554932,0.9159546
1602701393920,722,-0.21533203,-0.37554932,0.9159546
1602701393920,723,0.01171875,-0.31573486,0.92523193
1602701393920,724,-0.037353516,-0.5942993,1.0267944
1602701393920,725,-0.037353516,-0.5942993,1.0267944
1602701393923,726,-0.013427734,-0.31451416,0.9147339
1602701393923,727,0.08227539,-0.4800415,0.8822632
1602701393923,728,0.08227539,-0.4800415,0.8822632
1602701393925,729,-0.029052734,-0.2871704,0.9142456
1602701393926,730,0.10229492,-0.34405518,0.8961792
1602701393926,731,0.10229492,-0.34405518,0.8961792
1602701393928,732,-0.04296875,-0.2937622,0.91693115
1602701393929,733,-0.119384766,-0.3394165,0.8656616
1602701393929,734,-0.119384766,-0.3394165,0.8656616
1602701393930,735,-0.033691406,-0.32598877,0.9052124
1602701393931,736,-0.13061523,-0.395813,0.87908936
1602701393935,737,0.025146484,-0.32696533,0.90374756
1602701393935,738,-0.13061523,-0.395813,0.87908936
1602701393935,739,-0.001953125,-0.3135376,0.91693115
1602701393935,740,-0.001953125,-0.3135376,0.91693115
1602701393936,741,0.01171875,-0.31573486,0.92523193
1602701393939,742,0.05444336,-0.33355713,0.9086304
1602701393939,743,-0.013427734,-0.31451416,0.9147339
1602701393941,744,0.07519531,-0.31378174,0.91278076
1602701393942,745,0.01171875,-0.31573486,0.92523193
1602701393942,746,-0.029052734,-0.2871704,0.9142456
1602701393943,747,-0.013427734,-0.31451416,0.9147339
1602701393944,748,-0.04296875,-0.2937622,0.91693115
1602701393945,749,-0.029052734,-0.2871704,0.9142456
1602701393947,750,-0.033691406,-0.32598877,0.9052124
1602701393948,751,0.10205078,-0.31378174,0.9105835
1602701393951,752,0.07421875,-0.33087158,0.90423584
1602701393951,753,-0.04296875,-0.2937622,0.91693115
1602701393951,754,0.025146484,-0.32696533,0.90374756
1602701393953,755,0.05444336,-0.33355713,0.9086304
1602701393955,756,0.057373047,-0.35943604,0.8969116
1602701393956,757,0.07519531,-0.31378174,0.91278076
1602701393957,758,-0.033691406,-0.32598877,0.9052124
1602701393959,759,0.10205078,-0.31378174,0.9105835
1602701393959,760,0.025146484,-0.32696533,0.90374756
1602701393961,761,0.07421875,-0.33087158,0.90423584
1602701393962,762,0.05444336,-0.33355713,0.9086304
1602701393964,763,0.057373047,-0.35943604,0.8969116
1602701393964,764,0.07519531,-0.31378174,0.91278076
1602701393966,765,0.10205078,-0.31378174,0.9105835
1602701393968,766,0.07421875,-0.33087158,0.90423584
1602701393971,767,0.057373047,-0.35943604,0.8969116
1602701396353,768,0.0625,-0.31036377,0.9098511
1602701396357,769,0.020996094,-0.31939697,0.8981323
1602701396364,770,0.0625,-0.31036377,0.9098511
1602701396366,771,0.0625,-0.31036377,0.9098511
1602701396366,772,0.036376953,-0.3135376,0.9008179
1602701396367,773,0.020996094,-0.31939697,0.8981323
1602701396367,774,0.020996094,-0.31939697,0.8981323
1602701396368,775,-0.04321289,-0.32354736,0.84490967
1602701396372,776,0.036376953,-0.3135376,0.9008179
1602701396372,777,0.036376953,-0.3135376,0.9008179
1602701396372,778,0.08935547,-0.6121216,0.701355
1602701396373,779,-0.04321289,-0.32354736,0.84490967
1602701396384,780,-0.04321289,-0.32354736,0.84490967
1602701396384,781,0.08935547,-0.6121216,0.701355
1602701396384,782,0.022460938,-0.673645,0.66619873
1602701396385,783,0.08935547,-0.6121216,0.701355
1602701396385,784,0.022460938,-0.673645,0.66619873
1602701396386,785,0.022460938,-0.673645,0.66619873
1602701396386,786,-0.001953125,-0.09503174,0.77142334
1602701396386,787,-0.001953125,-0.09503174,0.77142334
1602701396387,788,-0.07397461,0.13421631,0.7404175
1602701396387,789,-0.001953125,-0.09503174,0.77142334
1602701396388,790,-0.33642578,0.23162842,0.74749756
1602701396388,791,-0.07397461,0.13421631,0.7404175
1602701396397,792,-0.07397461,0.13421631,0.7404175
1602701396398,793,-0.7885742,-0.6123657,0.6727905
1602701396398,794,-0.33642578,0.23162842,0.74749756
1602701396398,795,-0.7885742,-0.6123657,0.6727905
1602701396399,796,-0.33642578,0.23162842,0.74749756
1602701396399,797,-1.5751953,-1.0654907,0.07269287
1602701396399,798,-1.5751953,-1.0654907,0.07269287
1602701396400,799,-1.9179688,-0.9656372,-0.04425049
1602701396400,800,-1.9179688,-0.9656372,-0.04425049
1602701396400,801,-0.7885742,-0.6123657,0.6727905
1602701396404,802,-1.4572754,-0.677063,-0.15216064
1602701396404,803,-1.4572754,-0.677063,-0.15216064
1602701396404,804,-1.5751953,-1.0654907,0.07269287
1602701396408,805,-1.2163086,-0.37677002,-0.2276001
1602701396408,806,-1.2163086,-0.37677002,-0.2276001
1602701396408,807,-1.9179688,-0.9656372,-0.04425049
1602701396411,808,-0.8352051,-0.39752197,-0.051330566
1602701396412,809,-1.4572754,-0.677063,-0.15216064
1602701396412,810,-0.8352051,-0.39752197,-0.051330566
1602701396414,811,-0.55566406,-0.4492798,0.046569824
1602701396421,812,-0.55566406,-0.4492798,0.046569824
1602701396421,813,-1.2163086,-0.37677002,-0.2276001
1602701396422,814,-0.4560547,-0.5449829,0.12664795
1602701396422,815,-0.8352051,-0.39752197,-0.051330566
1602701396422,816,-0.4560547,-0.5449829,0.12664795
1602701396422,817,-0.55566406,-0.4492798,0.046569824
1602701396423,818,-0.5666504,-0.15167236,0.11224365
1602701396423,819,-0.5666504,-0.15167236,0.11224365
1602701396425,820,-0.4560547,-0.5449829,0.12664795
1602701396428,821,-0.8640137,-0.47955322,0.10003662
1602701396429,822,-0.8640137,-0.47955322,0.10003662
1602701396429,823,-0.939209,-0.86846924,0.02508545
1602701396433,824,-0.5666504,-0.15167236,0.11224365
1602701396433,825,-1.0217285,-0.62457275,0.13397217
1602701396434,826,-0.939209,-0.86846924,0.02508545
1602701396434,827,-1.1633301,-0.3616333,0.13470459
1602701396438,828,-0.8640137,-0.47955322,0.10003662
1602701396438,829,-1.0217285,-0.62457275,0.13397217
1602701396439,830,-1.1337891,-0.24127197,0.1329956
1602701396439,831,-0.939209,-0.86846924,0.02508545
1602701396443,832,-1.1633301,-0.3616333,0.13470459
1602701396444,833,-1.1235352,-0.41583252,0.03704834
1602701396444,834,-1.0217285,-0.62457275,0.13397217
1602701396444,835,-0.86035156,-0.21612549,-0.014709473
1602701396448,836,-1.1337891,-0.24127197,0.1329956
1602701396448,837,-1.1633301,-0.3616333,0.13470459
1602701396448,838,-0.9250488,0.15814209,-0.2078247
1602701396450,839,-1.1235352,-0.41583252,0.03704834
1602701396451,840,-0.8120117,-0.67852783,-0.3591919
1602701396456,841,-0.86035156,-0.21612549,-0.014709473
1602701396456,842,-1.1337891,-0.24127197,0.1329956
1602701396456,843,-0.9250488,0.15814209,-0.2078247
1602701396457,844,-1.1235352,-0.41583252,0.03704834
1602701396458,845,-0.7470703,-0.7090454,-0.20098877
1602701396460,846,-0.86035156,-0.21612549,-0.014709473
1602701396461,847,-0.68408203,-0.8843384,-0.18145752
1602701396463,848,-0.9250488,0.15814209,-0.2078247
1602701396467,849,-0.8022461,-0.4348755,0.024108887
1602701396467,850,-0.8120117,-0.67852783,-0.3591919
1602701396468,851,-0.8120117,-0.67852783,-0.3591919
1602701396469,852,-1.1179199,-0.44024658,0.024108887
1602701396472,853,-0.7470703,-0.7090454,-0.20098877
1602701396473,854,-1.1137695,-1.1450806,-0.10284424
1602701396473,855,-0.7470703,-0.7090454,-0.20098877
1602701396478,856,-0.68408203,-0.8843384,-0.18145752
1602701396480,857,-0.68408203,-0.8843384,-0.18145752
1602701396480,858,-0.8022461,-0.4348755,0.024108887
1602701396484,859,-0.8022461,-0.4348755,0.024108887
1602701396485,860,-1.1179199,-0.44024658,0.024108887
1602701396485,861,-1.1179199,-0.44024658,0.024108887
1602701396486,862,-1.1137695,-1.1450806,-0.10284424
1602701396489,863,-1.1137695,-1.1450806,-0.10284424
1602701399046,864,-1.0302734,-0.82818604,0.12322998
1602701399051,865,-1.0302734,-0.82818604,0.12322998
1602701399052,866,-1.0302734,-0.82818604,0.12322998
1602701399053,867,-1.2290039,-0.58306885,0.13201904
1602701399054,868,-1.2290039,-0.58306885,0.13201904
1602701399056,869,-1.2290039,-0.58306885,0.13201904
1602701399059,870,-1.3288574,-0.26202393,-0.013244629
1602701399063,871,-1.3288574,-0.26202393,-0.013244629
1602701399063,872,-1.3288574,-0.26202393,-0.013244629
1602701399066,873,-0.7902832,-0.38555908,0.035095215
1602701399066,874,-0.7902832,-0.38555908,0.035095215
1602701399069,875,-0.5957031,-0.32305908,-0.016418457
1602701399070,876,-0.7902832,-0.38555908,0.035095215
1602701399071,877,-0.5957031,-0.32305908,-0.016418457
1602701399077,878,-0.63623047,-0.30841064,-0.04547119
1602701399078,879,-0.5957031,-0.32305908,-0.016418457
1602701399078,880,-1.0268555,-0.3899536,-0.14874268
1602701399079,881,-0.63623047,-0.30841064,-0.04547119
1602701399080,882,-0.63623047,-0.30841064,-0.04547119
1602701399082,883,-1.322998,-0.5701294,-0.069885254
1602701399083,884,-1.0268555,-0.3899536,-0.14874268
1602701399084,885,-1.0268555,-0.3899536,-0.14874268
1602701399085,886,-1.322998,-0.5701294,-0.069885254
1602701399086,887,-1.322998,-0.5701294,-0.069885254
1602701399088,888,-1.0585938,-0.6218872,0.06390381
1602701399091,889,-1.0585938,-0.6218872,0.06390381
1602701399092,890,-1.0585938,-0.6218872,0.06390381
1602701399092,891,-1.0964355,-0.5401001,0.04168701
1602701399095,892,-1.0964355,-0.5401001,0.04168701
1602701399096,893,-1.0964355,-0.5401001,0.04168701
1602701399096,894,-0.78100586,-0.6018677,0.11639404
1602701399101,895,-0.78100586,-0.6018677,0.11639404
1602701399102,896,-0.78100586,-0.6018677,0.11639404
1602701399102,897,-0.68969727,-0.61920166,0.20257568
1602701399102,898,-0.68969727,-0.61920166,0.20257568
1602701399102,899,-0.79467773,-0.59503174,0.23309326
1602701399107,900,-0.79467773,-0.59503174,0.23309326
1602701399108,901,-0.68969727,-0.61920166,0.20257568
1602701399108,902,-1.1040039,-0.68756104,0.24432373
1602701399109,903,-1.1040039,-0.68756104,0.24432373
1602701399109,904,-1.4243164,-0.6777954,0.26849365
1602701399113,905,-1.4243164,-0.6777954,0.26849365
1602701399115,906,-0.79467773,-0.59503174,0.23309326
1602701399115,907,-1.3256836,-0.41046143,0.14154053
1602701399115,908,-1.3256836,-0.41046143,0.14154053
1602701399120,909,-1.1040039,-0.68756104,0.24432373
1602701399120,910,-1.3811035,-0.39337158,0.09564209
1602701399121,911,-1.4243164,-0.6777954,0.26849365
1602701399127,912,-1.3811035,-0.39337158,0.09564209
1602701399128,913,-1.0402832,-0.2744751,0.09661865
1602701399128,914,-1.3256836,-0.41046143,0.14154053
1602701399129,915,-1.3811035,-0.39337158,0.09564209
1602701399129,916,-0.7910156,-0.22564697,-0.02130127
1602701399130,917,-1.0402832,-0.2744751,0.09661865
1602701399132,918,-1.0402832,-0.2744751,0.09661865
1602701399138,919,-0.6784668,-0.23370361,-0.018615723
1602701399139,920,-0.7910156,-0.22564697,-0.02130127
1602701399140,921,-0.90356445,-0.32598877,-0.09136963
1602701399140,922,-0.7910156,-0.22564697,-0.02130127
1602701399140,923,-1.357666,-0.46295166,-0.24371338
1602701399154,924,-0.6784668,-0.23370361,-0.018615723
1602701399155,925,-0.6784668,-0.23370361,-0.018615723
1602701399155,926,-0.90356445,-0.32598877,-0.09136963
1602701399156,927,-0.90356445,-0.32598877,-0.09136963
1602701399156,928,-1.357666,-0.46295166,-0.24371338
1602701399157,929,-1.4931641,-0.7756958,-0.18756104
1602701399157,930,-1.357666,-0.46295166,-0.24371338
1602701399158,931,-1.2473145,-0.7383423,-0.094055176
1602701399158,932,-1.4931641,-0.7756958,-0.18756104
1602701399158,933,-0.9958496,-0.8045044,-0.039611816
1602701399159,934,-1.2473145,-0.7383423,-0.094055176
1602701399160,935,-1.4931641,-0.7756958,-0.18756104
1602701399160,936,-0.9958496,-0.8045044,-0.039611816
1602701399160,937,-0.6425781,-0.64312744,0.16644287
1602701399164,938,-1.2473145,-0.7383423,-0.094055176
1602701399164,939,-0.6425781,-0.64312744,0.16644287
1602701399164,940,-0.6374512,-0.6123657,0.24212646
1602701399165,941,-0.9958496,-0.8045044,-0.039611816
1602701399168,942,-0.6374512,-0.6123657,0.24212646
1602701399168,943,-0.6425781,-0.64312744,0.16644287
1602701399169,944,-0.7529297,-0.6067505,0.33026123
1602701399172,945,-0.7529297,-0.6067505,0.33026123
1602701399172,946,-0.6374512,-0.6123657,0.24212646
1602701399173,947,-1.1330566,-0.62945557,0.3390503
1602701399175,948,-1.1330566,-0.62945557,0.3390503
1602701399179,949,-1.5021973,-0.6157837,0.2855835
1602701399179,950,-0.7529297,-0.6067505,0.33026123
1602701399180,951,-1.5854492,-0.34698486,0.22259521
1602701399180,952,-1.5021973,-0.6157837,0.2855835
1602701399182,953,-1.1330566,-0.62945557,0.3390503
1602701399183,954,-1.5854492,-0.34698486,0.22259521
1602701399185,955,-1.5021973,-0.6157837,0.2855835
1602701399190,956,-1.2563477,-0.23565674,0.21429443
1602701399190,957,-1.2563477,-0.23565674,0.21429443
1602701399191,958,-1.5854492,-0.34698486,0.22259521
1602701399192,959,-1.2563477,-0.23565674,0.21429443
1602701401544,960,-0.7375488,-0.097229004,0.16204834
1602701401544,961,-0.7375488,-0.097229004,0.16204834
1602701401544,962,-0.7375488,-0.097229004,0.16204834
1602701401548,963,-0.5209961,-0.24395752,0.08514404
1602701401548,964,-0.5209961,-0.24395752,0.08514404
1602701401549,965,-0.5209961,-0.24395752,0.08514404
1602701401555,966,-0.5839844,-0.16241455,0.08074951
1602701401555,967,-0.5839844,-0.16241455,0.08074951
1602701401556,968,-0.5839844,-0.16241455,0.08074951
1602701401556,969,-0.9025879,-0.23150635,-0.019348145
1602701401556,970,-0.9025879,-0.23150635,-0.019348145
1602701401557,971,-1.5820312,-0.5540161,-0.25201416
1602701401557,972,-0.9025879,-0.23150635,-0.019348145
1602701401559,973,-1.5820312,-0.5540161,-0.25201416
1602701401563,974,-1.5820312,-0.5540161,-0.25201416
1602701401564,975,-1.8537598,-0.92193604,-0.2727661
1602701401564,976,-1.8537598,-0.92193604,-0.2727661
1602701401564,977,-0.9238281,-0.85235596,-0.047180176
1602701401564,978,-1.8537598,-0.92193604,-0.2727661
1602701401566,979,-0.9238281,-0.85235596,-0.047180176
1602701401572,980,-0.9238281,-0.85235596,-0.047180176
1602701401572,981,-0.76464844,-0.6177368,-0.039611816
1602701401573,982,-0.76464844,-0.6177368,-0.039611816
1602701401574,983,-0.6669922,-0.58135986,0.04486084
1602701401574,984,-0.76464844,-0.6177368,-0.039611816
1602701401575,985,-0.67211914,-0.5615845,0.2164917
1602701401575,986,-0.6669922,-0.58135986,0.04486084
1602701401577,987,-0.6669922,-0.58135986,0.04486084
1602701401578,988,-0.8757324,-0.46051025,0.3546753
1602701401583,989,-0.67211914,-0.5615845,0.2164917
1602701401583,990,-0.67211914,-0.5615845,0.2164917
1602701401583,991,-1.0744629,-0.41412354,0.42034912
1602701401584,992,-0.8757324,-0.46051025,0.3546753
1602701401587,993,-0.8757324,-0.46051025,0.3546753
1602701401592,994,-1.0744629,-0.41412354,0.42034912
1602701401592,995,-1.3369141,-0.42388916,0.39569092
1602701401593,996,-1.0744629,-0.41412354,0.42034912
1602701401593,997,-1.0961914,-0.4656372,0.2958374
1602701401595,998,-1.3369141,-0.42388916,0.39569092
1602701401597,999,-0.9562988,-0.5706177,0.17840576
1602701401599,1000,-1.0961914,-0.4656372,0.2958374
1602701401603,1001,-0.967041,-0.68585205,0.12030029
1602701401605,1002,-1.3369141,-0.42388916,0.39569092
1602701401605,1003,-0.8347168,-0.6992798,0.038513184
1602701401606,1004,-1.0961914,-0.4656372,0.2958374
1602701401606,1005,-0.9562988,-0.5706177,0.17840576
1602701401607,1006,-0.6376953,-0.565979,0.011413574
1602701401609,1007,-0.967041,-0.68585205,0.12030029
1602701401610,1008,-0.43530273,-0.4175415,0.048034668
1602701401613,1009,-0.8347168,-0.6992798,0.038513184
1602701401613,1010,-0.9562988,-0.5706177,0.17840576
1602701401613,1011,-0.5415039,-0.42022705,0.066101074
1602701401615,1012,-1.0437012,-0.6018677,0.08734131
1602701401620,1013,-0.6376953,-0.565979,0.011413574
1602701401620,1014,-0.967041,-0.68585205,0.12030029
1602701401620,1015,-1.4433594,-0.6096802,0.1864624
1602701401621,1016,-0.8347168,-0.6992798,0.038513184
1602701401621,1017,-1.3959961,-0.4331665,0.027038574
1602701401624,1018,-0.43530273,-0.4175415,0.048034668
1602701401625,1019,-0.6376953,-0.565979,0.011413574
1602701401625,1020,-0.5415039,-0.42022705,0.066101074
1602701401626,1021,-0.43530273,-0.4175415,0.048034668
1602701401628,1022,-1.0437012,-0.6018677,0.08734131
1602701401631,1023,-0.5415039,-0.42022705,0.066101074
1602701401631,1024,-0.95288086,-0.65167236,-0.04840088
1602701401631,1025,-1.4433594,-0.6096802,0.1864624
1602701401633,1026,-1.0437012,-0.6018677,0.08734131
1602701401636,1027,-1.3959961,-0.4331665,0.027038574
1602701401636,1028,-0.65625,-0.66241455,-0.06427002
1602701401636,1029,-1.4433594,-0.6096802,0.1864624
1602701401640,1030,-0.95288086,-0.65167236,-0.04840088
1602701401640,1031,-0.56469727,-0.64801025,-0.008850098
1602701401641,1032,-1.3959961,-0.4331665,0.027038574
1602701401641,1033,-0.6447754,-0.7817993,0.042907715
1602701401641,1034,-0.65625,-0.66241455,-0.06427002
1602701401643,1035,-0.95288086,-0.65167236,-0.04840088
1602701401643,1036,-0.9880371,-0.8267212,0.051208496
1602701401644,1037,-0.56469727,-0.64801025,-0.008850098
1602701401645,1038,-0.65625,-0.66241455,-0.06427002
1602701401652,1039,-0.6447754,-0.7817993,0.042907715
1602701401652,1040,-1.2197266,-0.86968994,-0.014709473
1602701401653,1041,-0.9880371,-0.8267212,0.051208496
1602701401653,1042,-1.3278809,-0.8052368,-0.08746338
1602701401654,1043,-1.2197266,-0.86968994,-0.014709473
1602701401655,1044,-1.161377,-0.57159424,-0.10626221
1602701401655,1045,-0.56469727,-0.64801025,-0.008850098
1602701401655,1046,-0.76904297,-0.50567627,-0.05987549
1602701401655,1047,-0.6447754,-0.7817993,0.042907715
1602701401656,1048,-1.3278809,-0.8052368,-0.08746338
1602701401658,1049,-0.9880371,-0.8267212,0.051208496
1602701401658,1050,-1.161377,-0.57159424,-0.10626221
1602701401659,1051,-1.2197266,-0.86968994,-0.014709473
1602701401660,1052,-0.76904297,-0.50567627,-0.05987549
1602701401661,1053,-1.3278809,-0.8052368,-0.08746338
1602701401662,1054,-1.161377,-0.57159424,-0.10626221
1602701401665,1055,-0.76904297,-0.50567627,-0.05987549
1602701404046,1056,-0.53759766,-0.6526489,-0.077697754
1602701404049,1057,-0.53759766,-0.6526489,-0.077697754
1602701404059,1058,-0.48413086,-0.85528564,-0.159729
1602701404059,1059,-0.53759766,-0.6526489,-0.077697754
1602701404059,1060,-0.48413086,-0.85528564,-0.159729
1602701404061,1061,-0.45483398,-0.88360596,-0.1362915
1602701404064,1062,-0.48413086,-0.85528564,-0.159729
1602701404064,1063,-0.31860352,-0.82354736,-0.069885254
1602701404065,1064,-0.45483398,-0.88360596,-0.1362915
1602701404070,1065,-0.45483398,-0.88360596,-0.1362915
1602701404071,1066,-0.3161621,-0.6831665,0.16448975
1602701404071,1067,-0.31860352,-0.82354736,-0.069885254
1602701404074,1068,-0.31860352,-0.82354736,-0.069885254
1602701404074,1069,-0.6040039,-0.76446533,0.32928467
1602701404075,1070,-0.3161621,-0.6831665,0.16448975
1602701404082,1071,-0.67407227,-0.80963135,0.43133545
1602701404083,1072,-0.3161621,-0.6831665,0.16448975
1602701404083,1073,-0.6040039,-0.76446533,0.32928467
1602701404084,1074,-0.6040039,-0.76446533,0.32928467
1602701404084,1075,-0.5578613,-0.49249268,0.47503662
1602701404084,1076,-0.67407227,-0.80963135,0.43133545
1602701404088,1077,-0.67407227,-0.80963135,0.43133545
1602701404088,1078,-0.57543945,-0.4277954,0.39471436
1602701404088,1079,-0.5578613,-0.49249268,0.47503662
1602701404090,1080,-0.5578613,-0.49249268,0.47503662
1602701404096,1081,-0.57543945,-0.4277954,0.39471436
1602701404096,1082,-0.6386719,-0.78253174,0.62323
1602701404096,1083,-0.57543945,-0.4277954,0.39471436
1602701404096,1084,-0.6333008,-0.64312744,0.9147339
1602701404097,1085,-0.6386719,-0.78253174,0.62323
1602701404097,1086,-0.6386719,-0.78253174,0.62323
1602701404108,1087,-0.60498047,-0.5432739,0.80096436
1602701404108,1088,-0.6333008,-0.64312744,0.9147339
1602701404109,1089,-0.6333008,-0.64312744,0.9147339
1602701404109,1090,-0.60498047,-0.5432739,0.80096436
1602701404109,1091,-0.60498047,-0.5432739,0.80096436
1602701404110,1092,-0.36450195,-0.6043091,0.6845093
1602701404110,1093,-0.36450195,-0.6043091,0.6845093
1602701404111,1094,-0.30419922,-0.55841064,0.78582764
1602701404111,1095,-0.30419922,-0.55841064,0.78582764
1602701404111,1096,-0.3635254,-0.4805298,0.87493896
1602701404112,1097,-0.36450195,-0.6043091,0.6845093
1602701404112,1098,-0.3635254,-0.4805298,0.87493896
1602701404113,1099,-0.30419922,-0.55841064,0.78582764
1602701404124,1100,-0.18969727,-0.489563,0.7128296
1602701404125,1101,-0.18969727,-0.489563,0.7128296
1602701404125,1102,-0.12451172,-0.7139282,0.5565796
1602701404126,1103,-0.3635254,-0.4805298,0.87493896
1602701404126,1104,-0.15722656,-0.9155884,0.8121948
1602701404127,1105,-0.18969727,-0.489563,0.7128296
1602701404128,1106,-0.020751953,-0.75860596,0.8312378
1602701404128,1107,-0.12451172,-0.7139282,0.5565796
1602701404129,1108,0.06347656,-0.7346802,0.5204468
1602701404129,1109,-0.12451172,-0.7139282,0.5565796
1602701404138,1110,-0.15722656,-0.9155884,0.8121948
1602701404138,1111,-0.10229492,-0.45928955,0.6593628
1602701404139,1112,-0.15722656,-0.9155884,0.8121948
1602701404139,1113,-0.26049805,-1.0405884,1.2125854
1602701404139,1114,-0.020751953,-0.75860596,0.8312378
1602701404140,1115,-0.020751953,-0.75860596,0.8312378
1602701404140,1116,0.06347656,-0.7346802,0.5204468
1602701404142,1117,-0.40429688,-0.39263916,0.6366577
1602701404150,1118,-0.10229492,-0.45928955,0.6593628
1602701404150,1119,0.06347656,-0.7346802,0.5204468
1602701404151,1120,-0.3935547,-0.4932251,0.8041382
1602701404151,1121,-0.26049805,-1.0405884,1.2125854
1602701404152,1122,-0.3239746,-0.6123657,0.83514404
1602701404152,1123,-0.10229492,-0.45928955,0.6593628
1602701404153,1124,-0.40429688,-0.39263916,0.6366577
1602701404153,1125,-0.26049805,-1.0405884,1.2125854
1602701404153,1126,-0.3935547,-0.4932251,0.8041382
1602701404159,1127,-0.26586914,-0.600647,0.5570679
1602701404160,1128,-0.40429688,-0.39263916,0.6366577
1602701404160,1129,-0.3239746,-0.6123657,0.83514404
1602701404160,1130,-0.40844727,-0.62994385,0.621521
1602701404161,1131,-0.3935547,-0.4932251,0.8041382
1602701404161,1132,-0.44995117,-0.47686768,0.7921753
1602701404170,1133,-0.26586914,-0.600647,0.5570679
1602701404171,1134,-0.3239746,-0.6123657,0.83514404
1602701404171,1135,-0.43286133,-0.59161377,0.79559326
1602701404171,1136,-0.26586914,-0.600647,0.5570679
1602701404172,1137,-0.33520508,-0.62701416,0.67474365
1602701404172,1138,-0.40844727,-0.62994385,0.621521
1602701404172,1139,-0.34057617,-0.6392212,0.65911865
1602701404173,1140,-0.44995117,-0.47686768,0.7921753
1602701404173,1141,-0.32373047,-0.85943604,0.5609741
1602701404174,1142,-0.43286133,-0.59161377,0.79559326
1602701404179,1143,-0.40844727,-0.62994385,0.621521
1602701404179,1144,-0.33520508,-0.62701416,0.67474365
1602701404179,1145,-0.44995117,-0.47686768,0.7921753
1602701404179,1146,-0.34057617,-0.6392212,0.65911865
1602701404183,1147,-0.43286133,-0.59161377,0.79559326
1602701404184,1148,-0.32373047,-0.85943604,0.5609741
1602701404184,1149,-0.33520508,-0.62701416,0.67474365
1602701404186,1150,-0.34057617,-0.6392212,0.65911865
1602701404188,1151,-0.32373047,-0.85943604,0.5609741
1602701406550,1152,-0.2824707,-0.9741821,0.4640503
1602701406550,1153,-0.2824707,-0.9741821,0.4640503
1602701406551,1154,-0.2824707,-0.9741821,0.4640503
1602701406556,1155,-0.34228516,-0.8101196,0.54071045
1602701406557,1156,-0.34228516,-0.8101196,0.54071045
1602701406558,1157,-0.34228516,-0.8101196,0.54071045
1602701406568,1158,-0.26245117,-0.9685669,0.45916748
1602701406568,1159,-0.26245117,-0.9685669,0.45916748
1602701406569,1160,0.052734375,-1.3682251,0.33099365
1602701406569,1161,-0.26245117,-0.9685669,0.45916748
1602701406570,1162,0.052734375,-1.3682251,0.33099365
1602701406584,1163,0.052734375,-1.3682251,0.33099365
1602701406585,1164,0.2331543,-1.1602173,0.246521
1602701406585,1165,0.2331543,-1.1602173,0.246521
1602701406585,1166,0.2331543,-1.1602173,0.246521
1602701406586,1167,0.36547852,-0.9512329,0.2616577
1602701406586,1168,0.36547852,-0.9512329,0.2616577
1602701406587,1169,0.36547852,-0.9512329,0.2616577
1602701406588,1170,0.47314453,-0.79473877,0.2970581
1602701406588,1171,0.47314453,-0.79473877,0.2970581
1602701406589,1172,0.42504883,-0.63238525,0.29901123
1602701406589,1173,0.47314453,-0.79473877,0.2970581
1602701406590,1174,0.42504883,-0.63238525,0.29901123
1602701406590,1175,0.42504883,-0.63238525,0.29901123
1602701406595,1176,0.21875,-0.8386841,0.3949585
1602701406596,1177,0.21875,-0.8386841,0.3949585
1602701406597,1178,0.21875,-0.8386841,0.3949585
1602701406597,1179,0.12109375,-0.7539673,0.38787842
1602701406599,1180,0.12109375,-0.7539673,0.38787842
1602701406601,1181,0.12109375,-0.7539673,0.38787842
1602701406602,1182,-0.068847656,-0.3213501,0.682312
1602701406608,1183,-0.068847656,-0.3213501,0.682312
1602701406608,1184,-0.068847656,-0.3213501,0.682312
1602701406608,1185,-0.3371582,-0.3040161,0.75408936
1602701406608,1186,-0.3371582,-0.3040161,0.75408936
1602701406609,1187,-0.3371582,-0.3040161,0.75408936
1602701406609,1188,-0.26245117,-0.40875244,1.1222534
1602701406612,1189,-0.26245117,-0.40875244,1.1222534
1602701406613,1190,-0.26245117,-0.40875244,1.1222534
1602701406614,1191,-0.0029296875,-0.51031494,1.1046753
1602701406617,1192,-0.0029296875,-0.51031494,1.1046753
1602701406617,1193,-0.0029296875,-0.51031494,1.1046753
1602701406617,1194,0.24145508,-0.39923096,0.9164429
1602701406619,1195,0.24145508,-0.39923096,0.9164429
1602701406622,1196,0.11352539,-0.5342407,0.81170654
1602701406623,1197,0.11352539,-0.5342407,0.81170654
1602701406626,1198,-0.55249023,0.17108154,0.88568115
1602701406626,1199,0.24145508,-0.39923096,0.9164429
1602701406626,1200,-0.55249023,0.17108154,0.88568115
1602701406631,1201,-0.6628418,1.0558472,0.72943115
1602701406632,1202,0.11352539,-0.5342407,0.81170654
1602701406632,1203,-0.6628418,1.0558472,0.72943115
1602701406632,1204,-0.55249023,0.17108154,0.88568115
1602701406633,1205,-0.5217285,0.559021,0.7640991
1602701406639,1206,-0.5217285,0.559021,0.7640991
1602701406640,1207,-0.6628418,1.0558472,0.72943115
1602701406640,1208,-0.24658203,-0.1453247,0.7887573
1602701406640,1209,-0.5217285,0.559021,0.7640991
1602701406640,1210,-0.18603516,-0.4944458,0.80511475
1602701406640,1211,-0.24658203,-0.1453247,0.7887573
1602701406642,1212,-0.092041016,-0.34136963,0.91571045
1602701406645,1213,-0.18603516,-0.4944458,0.80511475
1602701406645,1214,-0.24658203,-0.1453247,0.7887573
1602701406646,1215,-0.14160156,0.034606934,0.9894409
1602701406650,1216,-0.092041016,-0.34136963,0.91571045
1602701406651,1217,-0.18603516,-0.4944458,0.80511475
1602701406651,1218,-0.07055664,-0.04498291,0.9904175
1602701406656,1219,-0.14160156,0.034606934,0.9894409
1602701406657,1220,-0.03564453,-0.15826416,0.90008545
1602701406657,1221,-0.092041016,-0.34136963,0.91571045
1602701406657,1222,-0.07055664,-0.04498291,0.9904175
1602701406658,1223,-0.076660156,-0.2571411,0.99334717
1602701406659,1224,-0.14160156,0.034606934,0.9894409
1602701406661,1225,-0.1550293,-0.17437744,0.95599365
1602701406663,1226,-0.07055664,-0.04498291,0.9904175
1602701406663,1227,-0.03564453,-0.15826416,0.90008545
1602701406666,1228,-0.21777344,-0.2312622,1.0072632
1602701406667,1229,-0.03564453,-0.15826416,0.90008545
1602701406667,1230,-0.076660156,-0.2571411,0.99334717
1602701406669,1231,-0.061523438,-0.68951416,0.91986084
1602701406672,1232,-0.1550293,-0.17437744,0.95599365
1602701406673,1233,-0.076660156,-0.2571411,0.99334717
1602701406673,1234,0.10571289,-0.18634033,0.7509155
1602701406677,1235,-0.21777344,-0.2312622,1.0072632
1602701406678,1236,-0.1550293,-0.17437744,0.95599365
1602701406678,1237,-0.061523438,-0.68951416,0.91986084
1602701406680,1238,0.1628418,-0.15289307,0.78826904
1602701406685,1239,0.10571289,-0.18634033,0.7509155
1602701406685,1240,-0.21777344,-0.2312622,1.0072632
1602701406685,1241,0.25390625,-0.38287354,0.8969116
1602701406686,1242,0.1628418,-0.15289307,0.78826904
1602701406692,1243,-0.061523438,-0.68951416,0.91986084
1602701406692,1244,0.10571289,-0.18634033,0.7509155
1602701406696,1245,0.25390625,-0.38287354,0.8969116
1602701406696,1246,0.1628418,-0.15289307,0.78826904
1602701406696,1247,0.25390625,-0.38287354,0.8969116
