# Sensor position: Chest
# Sensor side: Left
# Activity type: Movement
# Activity code: 9
# Subject id: s1758499
timestamp,seq,accel_x,accel_y,accel_z
1602702915457,0,-0.3918457,0.82147217,-0.1663208
1602702915457,1,-0.3918457,0.82147217,-0.1663208
1602702915461,2,-0.3918457,0.82147217,-0.1663208
1602702915461,3,-0.09399414,0.95428467,-0.046691895
1602702915465,4,-0.09399414,0.95428467,-0.046691895
1602702915466,5,-0.09399414,0.95428467,-0.046691895
1602702915466,6,-0.17138672,0.7536011,-0.062072754
1602702915467,7,-0.17138672,0.7536011,-0.062072754
1602702915470,8,-0.19995117,0.8534546,0.027770996
1602702915471,9,-0.17138672,0.7536011,-0.062072754
1602702915471,10,-0.19995117,0.8534546,0.027770996
1602702915475,11,-0.091308594,0.9430542,0.047790527
1602702915475,12,-0.19995117,0.8534546,0.027770996
1602702915476,13,-0.12133789,1.1854858,0.046569824
1602702915482,14,-0.091308594,0.9430542,0.047790527
1602702915482,15,-0.091308594,0.9430542,0.047790527
1602702915483,16,-0.19384766,1.2628784,-0.20123291
1602702915483,17,-0.12133789,1.1854858,0.046569824
1602702915490,18,-0.12133789,1.1854858,0.046569824
1602702915490,19,-0.14697266,0.7538452,-0.21832275
1602702915490,20,-0.19384766,1.2628784,-0.20123291
1602702915491,21,-0.19384766,1.2628784,-0.20123291
1602702915491,22,-0.14697266,0.7538452,-0.21832275
1602702915492,23,-0.20361328,0.92401123,-0.059143066
1602702915497,24,-0.14697266,0.7538452,-0.21832275
1602702915498,25,-0.20361328,0.92401123,-0.059143066
1602702915499,26,-0.20361328,0.92401123,-0.059143066
1602702915499,27,-0.005859375,0.73651123,-0.04034424
1602702915523,28,-0.005859375,0.73651123,-0.04034424
1602702915524,29,-0.030761719,0.88153076,0.0018920898
1602702915526,30,-0.030761719,0.88153076,0.0018920898
1602702915526,31,-0.026855469,1.0822144,0.0289917
1602702915527,32,-0.005859375,0.73651123,-0.04034424
1602702915528,33,-0.026855469,1.0822144,0.0289917
1602702915528,34,-0.030761719,0.88153076,0.0018920898
1602702915529,35,-0.17871094,1.3641968,0.04144287
1602702915529,36,-0.24316406,0.7658081,-0.15631104
1602702915530,37,-0.12060547,0.9164429,-0.027160645
1602702915532,38,-0.17871094,1.3641968,0.04144287
1602702915539,39,-0.10595703,0.75042725,-0.04547119
1602702915539,40,-0.13330078,0.8744507,0.07977295
1602702915540,41,-0.026855469,1.0822144,0.0289917
1602702915543,42,-0.03955078,0.9874878,0.07366943
1602702915553,43,-0.08129883,1.2238159,0.05340576
1602702915554,44,-0.11401367,1.0402222,-0.24249268
1602702915554,45,-0.17871094,1.3641968,0.04144287
1602702915554,46,-0.17529297,0.9623413,-0.089660645
1602702915554,47,-0.24316406,0.7658081,-0.15631104
1602702915554,48,-0.09423828,0.8148804,-0.029846191
1602702915555,49,-0.24316406,0.7658081,-0.15631104
1602702915557,50,-0.12060547,0.9164429,-0.027160645
1602702915558,51,0.0021972656,0.6893921,-0.054504395
1602702915558,52,-0.12060547,0.9164429,-0.027160645
1602702915567,53,-0.10595703,0.75042725,-0.04547119
1602702915567,54,-0.0637207,0.95599365,0.0016479492
1602702915568,55,-0.10595703,0.75042725,-0.04547119
1602702915568,56,0.040771484,1.2504272,0.041931152
1602702915568,57,-0.13330078,0.8744507,0.07977295
1602702915569,58,-0.13330078,0.8744507,0.07977295
1602702915569,59,-0.40283203,1.1176147,-0.12408447
1602702915569,60,-0.03955078,0.9874878,0.07366943
1602702915569,61,-0.3154297,0.91326904,-0.097961426
1602702915570,62,-0.03955078,0.9874878,0.07366943
1602702915571,63,-0.08129883,1.2238159,0.05340576
1602702915572,64,-0.08129883,1.2238159,0.05340576
1602702915573,65,-0.11401367,1.0402222,-0.24249268
1602702915574,66,-0.04296875,0.73431396,-0.07745361
1602702915575,67,-0.17529297,0.9623413,-0.089660645
1602702915579,68,-0.16625977,0.7367554,-0.013977051
1602702915579,69,-0.11401367,1.0402222,-0.24249268
1602702915579,70,-0.19604492,0.9164429,0.028259277
1602702915581,71,-0.09423828,0.8148804,-0.029846191
1602702915582,72,-0.17529297,0.9623413,-0.089660645
1602702915582,73,-0.11816406,1.0961304,0.04095459
1602702915583,74,0.0021972656,0.6893921,-0.054504395
1602702915584,75,-0.111572266,1.3226929,-0.03765869
1602702915586,76,-0.0637207,0.95599365,0.0016479492
1602702915587,77,-0.09423828,0.8148804,-0.029846191
1602702915588,78,0.040771484,1.2504272,0.041931152
1602702915589,79,0.0021972656,0.6893921,-0.054504395
1602702915590,80,-0.40283203,1.1176147,-0.12408447
1602702915591,81,-0.0637207,0.95599365,0.0016479492
1602702915592,82,-0.3154297,0.91326904,-0.097961426
1602702915593,83,0.040771484,1.2504272,0.041931152
1602702915594,84,-0.04296875,0.73431396,-0.07745361
1602702915595,85,-0.40283203,1.1176147,-0.12408447
1602702915596,86,-0.16625977,0.7367554,-0.013977051
1602702915598,87,-0.3154297,0.91326904,-0.097961426
1602702915598,88,-0.19604492,0.9164429,0.028259277
1602702915600,89,-0.04296875,0.73431396,-0.07745361
1602702915601,90,-0.11816406,1.0961304,0.04095459
1602702915602,91,-0.16625977,0.7367554,-0.013977051
1602702915603,92,-0.111572266,1.3226929,-0.03765869
1602702915604,93,-0.19604492,0.9164429,0.028259277
1602702915606,94,-0.11816406,1.0961304,0.04095459
1602702915608,95,-0.111572266,1.3226929,-0.03765869
1602702918447,96,-0.17578125,0.87542725,-0.26934814
1602702918459,97,-0.23144531,0.9723511,-0.09869385
1602702918460,98,-0.17578125,0.87542725,-0.26934814
1602702918460,99,-0.063964844,0.7020874,-0.02130127
1602702918461,100,-0.17578125,0.87542725,-0.26934814
1602702918465,101,-0.23144531,0.9723511,-0.09869385
1602702918466,102,-0.04663086,0.7616577,-0.01739502
1602702918466,103,-0.23144531,0.9723511,-0.09869385
1602702918469,104,-0.063964844,0.7020874,-0.02130127
1602702918478,105,-0.063964844,0.7020874,-0.02130127
1602702918478,106,-0.09692383,1.0961304,0.020202637
1602702918478,107,-0.04663086,0.7616577,-0.01739502
1602702918479,108,-0.20581055,1.3236694,0.015563965
1602702918479,109,-0.09692383,1.0961304,0.020202637
1602702918479,110,-0.41503906,0.90496826,-0.14068604
1602702918479,111,-0.04663086,0.7616577,-0.01739502
1602702918480,112,-0.20581055,1.3236694,0.015563965
1602702918481,113,-0.13305664,0.92889404,-0.040100098
1602702918483,114,-0.09692383,1.0961304,0.020202637
1602702918484,115,-0.07763672,0.64642334,-0.05206299
1602702918486,116,-0.20581055,1.3236694,0.015563965
1602702918490,117,-0.19921875,0.87176514,0.08880615
1602702918490,118,-0.41503906,0.90496826,-0.14068604
1602702918491,119,-0.41503906,0.90496826,-0.14068604
1602702918491,120,-0.13305664,0.92889404,-0.040100098
1602702918492,121,-0.13305664,0.92889404,-0.040100098
1602702918497,122,-0.07763672,0.64642334,-0.05206299
1602702918498,123,-0.14111328,0.9672241,0.117614746
1602702918498,124,-0.07763672,0.64642334,-0.05206299
1602702918498,125,-0.19921875,0.87176514,0.08880615
1602702918508,126,-0.19921875,0.87176514,0.08880615
1602702918509,127,-0.14111328,0.9672241,0.117614746
1602702918509,128,-0.19091797,1.2289429,0.026550293
1602702918509,129,-0.19091797,1.2289429,0.026550293
1602702918510,130,-0.15063477,1.0202026,-0.19488525
1602702918510,131,-0.15063477,1.0202026,-0.19488525
1602702918510,132,-0.2619629,0.95843506,-0.14141846
1602702918511,133,-0.2619629,0.95843506,-0.14141846
1602702918511,134,-0.19580078,0.807312,-0.010070801
1602702918511,135,-0.14111328,0.9672241,0.117614746
1602702918512,136,-0.049804688,0.65179443,-0.03717041
1602702918512,137,-0.19580078,0.807312,-0.010070801
1602702918512,138,-0.20214844,0.97943115,-0.00982666
1602702918518,139,-0.19091797,1.2289429,0.026550293
1602702918519,140,-0.049804688,0.65179443,-0.03717041
1602702918519,141,-0.09887695,1.2836304,0.04144287
1602702918519,142,-0.15063477,1.0202026,-0.19488525
1602702918519,143,-0.20214844,0.97943115,-0.00982666
1602702918529,144,-0.4177246,0.9845581,-0.16802979
1602702918529,145,-0.09887695,1.2836304,0.04144287
1602702918529,146,-0.2619629,0.95843506,-0.14141846
1602702918530,147,-0.19580078,0.807312,-0.010070801
1602702918530,148,-0.4177246,0.9845581,-0.16802979
1602702918531,149,-0.049804688,0.65179443,-0.03717041
1602702918531,150,-0.20214844,0.97943115,-0.00982666
1602702918532,151,-0.2175293,0.963562,-0.05718994
1602702918537,152,-0.09887695,1.2836304,0.04144287
1602702918537,153,-0.2175293,0.963562,-0.05718994
1602702918537,154,-0.4177246,0.9845581,-0.16802979
1602702918537,155,-0.08544922,0.744812,-0.07501221
1602702918540,156,-0.2175293,0.963562,-0.05718994
1602702918540,157,-0.08544922,0.744812,-0.07501221
1602702918542,158,-0.08544922,0.744812,-0.07501221
1602702918542,159,-0.06567383,0.78411865,0.0045776367
1602702918543,160,-0.06567383,0.78411865,0.0045776367
1602702918548,161,-0.12597656,0.9057007,0.027526855
1602702918548,162,-0.06567383,0.78411865,0.0045776367
1602702918548,163,-0.12597656,0.9057007,0.027526855
1602702918549,164,-0.12597656,0.9057007,0.027526855
1602702918549,165,-0.12402344,1.1935425,0.039978027
1602702918549,166,-0.12402344,1.1935425,0.039978027
1602702918549,167,-0.099853516,1.2120972,-0.22613525
1602702918550,168,-0.12402344,1.1935425,0.039978027
1602702918553,169,-0.099853516,1.2120972,-0.22613525
1602702918553,170,-0.23461914,0.87420654,-0.22564697
1602702918553,171,-0.099853516,1.2120972,-0.22613525
1602702918553,172,-0.23461914,0.87420654,-0.22564697
1602702918556,173,-0.2109375,0.9557495,-0.031311035
1602702918557,174,-0.23461914,0.87420654,-0.22564697
1602702918558,175,-0.009033203,0.6508179,-0.019592285
1602702918558,176,-0.2109375,0.9557495,-0.031311035
1602702918561,177,-0.2109375,0.9557495,-0.031311035
1602702918561,178,-0.12109375,0.87176514,-0.0335083
1602702918561,179,-0.009033203,0.6508179,-0.019592285
1602702918564,180,-0.009033203,0.6508179,-0.019592285
1602702918564,181,-0.07421875,1.152771,0.0016479492
1602702918564,182,-0.12109375,0.87176514,-0.0335083
1602702918570,183,-0.12109375,0.87176514,-0.0335083
1602702918571,184,-0.41918945,1.2255249,-0.09649658
1602702918571,185,-0.07421875,1.152771,0.0016479492
1602702918571,186,-0.07421875,1.152771,0.0016479492
1602702918571,187,-0.41918945,1.2255249,-0.09649658
1602702918571,188,-0.28515625,0.8966675,-0.1350708
1602702918572,189,-0.41918945,1.2255249,-0.09649658
1602702918573,190,-0.28515625,0.8966675,-0.1350708
1602702918574,191,-0.28515625,0.8966675,-0.1350708
1602702920847,192,-0.09423828,0.84783936,-0.0569458
1602702920848,193,-0.09423828,0.84783936,-0.0569458
1602702920848,194,-0.09423828,0.84783936,-0.0569458
1602702920860,195,-0.10424805,0.71429443,0.03729248
1602702920860,196,-0.10424805,0.71429443,0.03729248
1602702920860,197,-0.10424805,0.71429443,0.03729248
1602702920860,198,-0.12719727,0.81536865,0.050964355
1602702920860,199,-0.12719727,0.81536865,0.050964355
1602702920861,200,-0.12719727,0.81536865,0.050964355
1602702920861,201,-0.16894531,1.1139526,0.08270264
1602702920862,202,-0.16894531,1.1139526,0.08270264
1602702920862,203,-0.16894531,1.1139526,0.08270264
1602702920865,204,-0.04345703,1.2802124,-0.031311035
1602702920866,205,-0.04345703,1.2802124,-0.031311035
1602702920866,206,-0.04345703,1.2802124,-0.031311035
1602702920870,207,-0.15454102,0.90252686,-0.2962036
1602702920870,208,-0.15454102,0.90252686,-0.2962036
1602702920871,209,-0.15454102,0.90252686,-0.2962036
1602702920871,210,-0.19580078,1.0004272,-0.05328369
1602702920872,211,-0.19580078,1.0004272,-0.05328369
1602702920879,212,-0.051513672,0.6847534,-0.023498535
1602702920879,213,-0.19580078,1.0004272,-0.05328369
1602702920880,214,-0.051513672,0.6847534,-0.023498535
1602702920880,215,-0.051513672,0.6847534,-0.023498535
1602702920880,216,-0.09643555,0.7509155,-0.08013916
1602702920881,217,-0.09643555,0.7509155,-0.08013916
1602702920884,218,-0.09643555,0.7509155,-0.08013916
1602702920886,219,-0.07348633,1.1012573,0.024597168
1602702920886,220,-0.07348633,1.1012573,0.024597168
1602702920886,221,-0.19921875,1.295105,-0.026916504
1602702920886,222,-0.19921875,1.295105,-0.026916504
1602702920887,223,-0.07348633,1.1012573,0.024597168
1602702920888,224,-0.31396484,0.84490967,-0.19073486
1602702920888,225,-0.31396484,0.84490967,-0.19073486
1602702920889,226,-0.19921875,1.295105,-0.026916504
1602702920891,227,-0.13916016,0.98309326,-0.05303955
1602702920892,228,-0.13916016,0.98309326,-0.05303955
1602702920892,229,-0.31396484,0.84490967,-0.19073486
1602702920896,230,-0.0949707,0.8031616,-0.031799316
1602702920896,231,-0.0949707,0.8031616,-0.031799316
1602702920897,232,-0.12402344,0.78533936,0.02166748
1602702920897,233,-0.13916016,0.98309326,-0.05303955
1602702920897,234,-0.12402344,0.78533936,0.02166748
1602702920898,235,-0.08959961,0.9257202,0.001159668
1602702920900,236,-0.0949707,0.8031616,-0.031799316
1602702920900,237,-0.08959961,0.9257202,0.001159668
1602702920900,238,-0.103515625,1.1950073,0.010681152
1602702920901,239,-0.12402344,0.78533936,0.02166748
1602702920902,240,-0.060302734,1.1720581,-0.2432251
1602702920905,241,-0.08959961,0.9257202,0.001159668
1602702920905,242,-0.103515625,1.1950073,0.010681152
1602702920905,243,-0.13476562,0.89349365,-0.23394775
1602702920906,244,-0.103515625,1.1950073,0.010681152
1602702920907,245,-0.060302734,1.1720581,-0.2432251
1602702920908,246,-0.060302734,1.1720581,-0.2432251
1602702920910,247,-0.13476562,0.89349365,-0.23394775
1602702920910,248,-0.11987305,0.91937256,-0.020812988
1602702920911,249,-0.13476562,0.89349365,-0.23394775
1602702920912,250,-0.11987305,0.91937256,-0.020812988
1602702920914,251,-0.11987305,0.91937256,-0.020812988
1602702920915,252,-0.0087890625,0.62298584,-0.081604004
1602702920915,253,-0.0087890625,0.62298584,-0.081604004
1602702920915,254,-0.0087890625,0.62298584,-0.081604004
1602702920917,255,-0.07446289,0.9953003,-0.029846191
1602702920918,256,-0.07446289,0.9953003,-0.029846191
1602702920919,257,-0.07446289,0.9953003,-0.029846191
1602702920921,258,-0.05810547,1.0785522,0.038757324
1602702920921,259,-0.05810547,1.0785522,0.038757324
1602702920921,260,-0.05810547,1.0785522,0.038757324
1602702920923,261,-0.21069336,1.2904663,-0.062805176
1602702920926,262,-0.21069336,1.2904663,-0.062805176
1602702920926,263,-0.21069336,1.2904663,-0.062805176
1602702920926,264,-0.23925781,0.74212646,-0.17877197
1602702920929,265,-0.23925781,0.74212646,-0.17877197
1602702920929,266,-0.23925781,0.74212646,-0.17877197
1602702920929,267,-0.17114258,1.0160522,-0.0960083
1602702920931,268,-0.17114258,1.0160522,-0.0960083
1602702920932,269,-0.1184082,0.75946045,-0.06890869
1602702920938,270,-0.1184082,0.75946045,-0.06890869
1602702920939,271,-0.17114258,1.0160522,-0.0960083
1602702920939,272,-0.20385742,0.8656616,-0.020080566
1602702920939,273,-0.1184082,0.75946045,-0.06890869
1602702920939,274,-0.20385742,0.8656616,-0.020080566
1602702920939,275,-0.1706543,0.9291382,0.006286621
1602702920939,276,-0.20385742,0.8656616,-0.020080566
1602702920944,277,-0.18945312,1.1412964,-0.058166504
1602702920944,278,-0.1706543,0.9291382,0.006286621
1602702920944,279,-0.1706543,0.9291382,0.006286621
1602702920945,280,-0.17749023,1.1105347,-0.1873169
1602702920946,281,-0.18945312,1.1412964,-0.058166504
1602702920948,282,-0.23706055,0.7765503,-0.24493408
1602702920949,283,-0.17749023,1.1105347,-0.1873169
1602702920951,284,-0.18945312,1.1412964,-0.058166504
1602702920951,285,-0.23706055,0.7765503,-0.24493408
1602702920953,286,-0.17749023,1.1105347,-0.1873169
1602702920954,287,-0.23706055,0.7765503,-0.24493408
1602702923350,288,-0.2824707,1.0341187,-0.065979004
1602702923363,289,-0.2824707,1.0341187,-0.065979004
1602702923364,290,-0.02734375,0.71136475,-0.12530518
1602702923365,291,-0.2824707,1.0341187,-0.065979004
1602702923366,292,-0.2998047,0.83587646,-0.12237549
1602702923367,293,-0.02734375,0.71136475,-0.12530518
1602702923368,294,-0.23022461,0.9052124,-0.03253174
1602702923368,295,-0.02734375,0.71136475,-0.12530518
1602702923369,296,-0.2998047,0.83587646,-0.12237549
1602702923369,297,-0.5571289,0.67767334,-0.22686768
1602702923374,298,-0.2998047,0.83587646,-0.12237549
1602702923375,299,-0.23022461,0.9052124,-0.03253174
1602702923375,300,-0.2434082,0.869812,-0.38360596
1602702923378,301,-0.23022461,0.9052124,-0.03253174
1602702923386,302,-0.5571289,0.67767334,-0.22686768
1602702923386,303,-0.5124512,0.7977905,-0.255188
1602702923388,304,-0.5571289,0.67767334,-0.22686768
1602702923388,305,-0.2434082,0.869812,-0.38360596
1602702923390,306,-0.2434082,0.869812,-0.38360596
1602702923390,307,-0.46411133,0.7145386,-0.31304932
1602702923398,308,-0.5124512,0.7977905,-0.255188
1602702923399,309,-0.5124512,0.7977905,-0.255188
1602702923399,310,-0.41918945,0.67059326,-0.24005127
1602702923399,311,-0.46411133,0.7145386,-0.31304932
1602702923400,312,-0.3413086,0.6022339,-0.38946533
1602702923400,313,-0.41918945,0.67059326,-0.24005127
1602702923401,314,-0.57470703,0.7345581,-0.3435669
1602702923401,315,-0.46411133,0.7145386,-0.31304932
1602702923403,316,-0.3413086,0.6022339,-0.38946533
1602702923403,317,-0.6430664,0.6312866,-0.36920166
1602702923404,318,-0.41918945,0.67059326,-0.24005127
1602702923407,319,-0.57470703,0.7345581,-0.3435669
1602702923407,320,-0.7248535,0.8151245,-0.34259033
1602702923407,321,-0.3413086,0.6022339,-0.38946533
1602702923408,322,-0.6430664,0.6312866,-0.36920166
1602702923409,323,-0.4338379,1.236023,-0.19952393
1602702923410,324,-0.7248535,0.8151245,-0.34259033
1602702923413,325,-0.55493164,1.6793823,-0.13165283
1602702923413,326,-0.57470703,0.7345581,-0.3435669
1602702923413,327,-0.16821289,1.3515015,0.11907959
1602702923415,328,-0.6430664,0.6312866,-0.36920166
1602702923416,329,-0.4338379,1.236023,-0.19952393
1602702923419,330,-0.052001953,0.5734253,0.18939209
1602702923419,331,-0.7248535,0.8151245,-0.34259033
1602702923420,332,-0.55493164,1.6793823,-0.13165283
1602702923422,333,-0.09716797,0.6625366,0.2597046
1602702923422,334,-0.4338379,1.236023,-0.19952393
1602702923422,335,-0.16821289,1.3515015,0.11907959
1602702923424,336,-0.07373047,0.74090576,0.4557495
1602702923425,337,-0.55493164,1.6793823,-0.13165283
1602702923425,338,-0.052001953,0.5734253,0.18939209
1602702923426,339,-0.3737793,0.93865967,0.5421753
1602702923430,340,-0.09716797,0.6625366,0.2597046
1602702923430,341,-0.16821289,1.3515015,0.11907959
1602702923430,342,-0.43945312,1.0292358,0.539978
1602702923431,343,-0.07373047,0.74090576,0.4557495
1602702923432,344,-0.61328125,0.50335693,0.55389404
1602702923434,345,-0.3737793,0.93865967,0.5421753
1602702923435,346,-0.26391602,0.5036011,0.604187
1602702923436,347,-0.43945312,1.0292358,0.539978
1602702923438,348,-0.47045898,0.36956787,0.6630249
1602702923439,349,-0.052001953,0.5734253,0.18939209
1602702923439,350,-0.61328125,0.50335693,0.55389404
1602702923441,351,-0.5354004,0.36639404,0.7313843
1602702923441,352,-0.09716797,0.6625366,0.2597046
1602702923441,353,-0.26391602,0.5036011,0.604187
1602702923443,354,-0.40063477,0.32781982,0.76605225
1602702923444,355,-0.07373047,0.74090576,0.4557495
1602702923444,356,-0.47045898,0.36956787,0.6630249
1602702923447,357,-0.3269043,0.27288818,0.8649292
1602702923447,358,-0.3737793,0.93865967,0.5421753
1602702923448,359,-0.29248047,0.17132568,0.9232788
1602702923448,360,-0.5354004,0.36639404,0.7313843
1602702923449,361,-0.43945312,1.0292358,0.539978
1602702923451,362,-0.40063477,0.32781982,0.76605225
1602702923451,363,-0.3564453,0.46087646,0.9730835
1602702923452,364,-0.61328125,0.50335693,0.55389404
1602702923455,365,-0.3269043,0.27288818,0.8649292
1602702923455,366,-0.26293945,0.43426514,0.94403076
1602702923456,367,-0.26391602,0.5036011,0.604187
1602702923456,368,-0.22827148,0.51239014,0.7470093
1602702923456,369,-0.29248047,0.17132568,0.9232788
1602702923460,370,-0.47045898,0.36956787,0.6630249
1602702923460,371,-0.26098633,0.6432495,0.53582764
1602702923460,372,-0.3564453,0.46087646,0.9730835
1602702923460,373,-0.5354004,0.36639404,0.7313843
1602702923462,374,-0.26293945,0.43426514,0.94403076
1602702923462,375,-0.40063477,0.32781982,0.76605225
1602702923464,376,-0.22827148,0.51239014,0.7470093
1602702923464,377,-0.3269043,0.27288818,0.8649292
1602702923465,378,-0.26098633,0.6432495,0.53582764
1602702923466,379,-0.29248047,0.17132568,0.9232788
1602702923468,380,-0.3564453,0.46087646,0.9730835
1602702923469,381,-0.26293945,0.43426514,0.94403076
1602702923470,382,-0.22827148,0.51239014,0.7470093
1602702923472,383,-0.26098633,0.6432495,0.53582764
1602702925946,384,-0.43847656,0.75701904,0.32269287
1602702925947,385,-0.43847656,0.75701904,0.32269287
1602702925958,386,-0.43847656,0.75701904,0.32269287
1602702925959,387,-0.5275879,0.9672241,0.17596436
1602702925959,388,-0.5275879,0.9672241,0.17596436
1602702925959,389,-0.5275879,0.9672241,0.17596436
1602702925959,390,-0.3630371,0.79071045,0.23236084
1602702925960,391,-0.3630371,0.79071045,0.23236084
1602702925960,392,-0.4663086,0.56243896,0.14569092
1602702925961,393,-0.3630371,0.79071045,0.23236084
1602702925961,394,-0.58081055,0.60028076,0.3998413
1602702925962,395,-0.4663086,0.56243896,0.14569092
1602702925977,396,-0.26000977,0.79901123,0.6749878
1602702925978,397,-0.58081055,0.60028076,0.3998413
1602702925978,398,-0.4663086,0.56243896,0.14569092
1602702925978,399,-0.26000977,0.79901123,0.6749878
1602702925979,400,-0.27368164,0.33758545,0.81903076
1602702925979,401,-0.58081055,0.60028076,0.3998413
1602702925979,402,-0.18041992,0.18719482,0.8427124
1602702925979,403,-0.26000977,0.79901123,0.6749878
1602702925980,404,0.0073242188,0.1828003,1.0326538
1602702925980,405,-0.27368164,0.33758545,0.81903076
1602702925980,406,0.14746094,0.26483154,1.1383667
1602702925981,407,-0.27368164,0.33758545,0.81903076
1602702925981,408,-0.18041992,0.18719482,0.8427124
1602702925982,409,0.35302734,0.1329956,0.92645264
1602702925989,410,0.0073242188,0.1828003,1.0326538
1602702925990,411,-0.18041992,0.18719482,0.8427124
1602702925990,412,0.25170898,0.2111206,0.9147339
1602702925990,413,0.0073242188,0.1828003,1.0326538
1602702925990,414,0.14746094,0.26483154,1.1383667
1602702925990,415,0.16870117,0.15374756,0.89398193
1602702925990,416,0.35302734,0.1329956,0.92645264
1602702925990,417,0.14746094,0.26483154,1.1383667
1602702925991,418,0.16235352,-0.02154541,0.9039917
1602702926002,419,0.25170898,0.2111206,0.9147339
1602702926002,420,0.35302734,0.1329956,0.92645264
1602702926003,421,0.16870117,0.15374756,0.89398193
1602702926003,422,0.16235352,-0.02154541,0.9039917
1602702926003,423,0.25170898,0.2111206,0.9147339
1602702926004,424,0.18945312,0.04486084,0.9689331
1602702926004,425,0.18945312,0.04486084,0.9689331
1602702926004,426,0.14111328,-0.042053223,0.9032593
1602702926005,427,0.25561523,-0.039367676,0.83636475
1602702926005,428,0.14111328,-0.042053223,0.9032593
1602702926006,429,0.16870117,0.15374756,0.89398193
1602702926008,430,0.25561523,-0.039367676,0.83636475
1602702926009,431,0.3701172,-0.024963379,0.9381714
1602702926009,432,0.3701172,-0.024963379,0.9381714
1602702926010,433,0.16235352,-0.02154541,0.9039917
1602702926013,434,0.3479004,-0.007385254,0.8800659
1602702926014,435,0.3479004,-0.007385254,0.8800659
1602702926014,436,0.21191406,0.03729248,0.8744507
1602702926015,437,0.21191406,0.03729248,0.8744507
1602702926018,438,0.18945312,0.04486084,0.9689331
1602702926018,439,0.26171875,-0.05255127,0.8942261
1602702926018,440,0.14111328,-0.042053223,0.9032593
1602702926019,441,0.33935547,0.10443115,0.9537964
1602702926019,442,0.25561523,-0.039367676,0.83636475
1602702926020,443,0.26171875,-0.05255127,0.8942261
1602702926022,444,0.3701172,-0.024963379,0.9381714
1602702926029,445,0.33935547,0.10443115,0.9537964
1602702926029,446,0.20605469,0.08123779,0.91864014
1602702926030,447,0.3479004,-0.007385254,0.8800659
1602702926030,448,0.19189453,0.2531128,1.1195679
1602702926030,449,0.21191406,0.03729248,0.8744507
1602702926030,450,0.15991211,0.1618042,0.9611206
1602702926031,451,0.20605469,0.08123779,0.91864014
1602702926032,452,-0.037109375,0.29119873,0.92230225
1602702926033,453,0.19189453,0.2531128,1.1195679
1602702926034,454,0.26171875,-0.05255127,0.8942261
1602702926036,455,0.15991211,0.1618042,0.9611206
1602702926036,456,-0.17749023,0.41229248,0.920105
1602702926037,457,0.33935547,0.10443115,0.9537964
1602702926038,458,-0.037109375,0.29119873,0.92230225
1602702926040,459,0.20605469,0.08123779,0.91864014
1602702926040,460,-0.29125977,0.41229248,0.7848511
1602702926042,461,-0.17749023,0.41229248,0.920105
1602702926048,462,-0.29125977,0.41229248,0.7848511
1602702926049,463,0.19189453,0.2531128,1.1195679
1602702926049,464,0.15991211,0.1618042,0.9611206
1602702926049,465,-0.33642578,0.49505615,0.6925659
1602702926050,466,-0.037109375,0.29119873,0.92230225
1602702926050,467,-0.33642578,0.49505615,0.6925659
1602702926050,468,-0.17749023,0.41229248,0.920105
1602702926052,469,-0.40600586,0.5709839,0.50701904
1602702926057,470,-0.29125977,0.41229248,0.7848511
1602702926058,471,-0.40600586,0.5709839,0.50701904
1602702926059,472,-0.5036621,0.5787964,0.309021
1602702926063,473,-0.33642578,0.49505615,0.6925659
1602702926063,474,-0.5498047,0.6754761,0.21087646
1602702926064,475,-0.5036621,0.5787964,0.309021
1602702926065,476,-0.40600586,0.5709839,0.50701904
1602702926067,477,-0.5498047,0.6754761,0.21087646
1602702926070,478,-0.5036621,0.5787964,0.309021
1602702926071,479,-0.5498047,0.6754761,0.21087646
1602702928454,480,-0.5102539,0.64886475,0.12542725
1602702928459,481,-0.5102539,0.64886475,0.12542725
1602702928464,482,-0.51660156,0.68792725,0.028747559
1602702928465,483,-0.5102539,0.64886475,0.12542725
1602702928466,484,-0.51660156,0.68792725,0.028747559
1602702928470,485,-0.6923828,0.68914795,-0.053771973
1602702928472,486,-0.6923828,0.68914795,-0.053771973
1602702928480,487,-0.51660156,0.68792725,0.028747559
1602702928481,488,-0.6286621,0.78704834,-0.09893799
1602702928481,489,-0.6286621,0.78704834,-0.09893799
1602702928485,490,-0.701416,0.8156128,-0.4006958
1602702928485,491,-0.6923828,0.68914795,-0.053771973
1602702928486,492,-0.701416,0.8156128,-0.4006958
1602702928490,493,-0.6286621,0.78704834,-0.09893799
1602702928490,494,-0.78149414,0.7826538,-0.5276489
1602702928490,495,-0.78149414,0.7826538,-0.5276489
1602702928491,496,-0.69799805,0.79193115,-0.7444458
1602702928492,497,-0.701416,0.8156128,-0.4006958
1602702928495,498,-0.87109375,0.79315186,-0.8501587
1602702928496,499,-0.69799805,0.79193115,-0.7444458
1602702928496,500,-0.78149414,0.7826538,-0.5276489
1602702928500,501,-0.58374023,0.86883545,-0.90338135
1602702928500,502,-0.87109375,0.79315186,-0.8501587
1602702928500,503,-0.69799805,0.79193115,-0.7444458
1602702928503,504,-0.6298828,0.9755249,-0.68951416
1602702928503,505,-0.58374023,0.86883545,-0.90338135
1602702928504,506,-0.87109375,0.79315186,-0.8501587
1602702928505,507,-0.3918457,0.88323975,-0.600647
1602702928511,508,-0.58374023,0.86883545,-0.90338135
1602702928511,509,-0.6298828,0.9755249,-0.68951416
1602702928511,510,-0.3100586,0.89715576,-0.45587158
1602702928511,511,-0.3918457,0.88323975,-0.600647
1602702928512,512,-0.6298828,0.9755249,-0.68951416
1602702928512,513,-0.24438477,0.67645264,-0.3242798
1602702928517,514,-0.3100586,0.89715576,-0.45587158
1602702928517,515,-0.3918457,0.88323975,-0.600647
1602702928517,516,-0.3881836,0.38909912,-0.14923096
1602702928518,517,-0.3100586,0.89715576,-0.45587158
1602702928518,518,-0.24438477,0.67645264,-0.3242798
1602702928520,519,-0.24438477,0.42034912,-0.1560669
1602702928524,520,-0.3881836,0.38909912,-0.14923096
1602702928525,521,-0.24438477,0.67645264,-0.3242798
1602702928525,522,-0.23535156,0.49017334,-0.08404541
1602702928525,523,-0.24438477,0.42034912,-0.1560669
1602702928532,524,-0.3881836,0.38909912,-0.14923096
1602702928532,525,-0.34399414,0.7938843,-0.04449463
1602702928533,526,-0.23535156,0.49017334,-0.08404541
1602702928533,527,-0.24438477,0.42034912,-0.1560669
1602702928534,528,-0.34399414,0.7938843,-0.04449463
1602702928534,529,-0.32714844,0.9137573,0.046813965
1602702928536,530,-0.32714844,0.9137573,0.046813965
1602702928536,531,-0.23535156,0.49017334,-0.08404541
1602702928538,532,-0.23144531,0.98773193,0.012145996
1602702928540,533,-0.23144531,0.98773193,0.012145996
1602702928541,534,-0.24707031,0.9972534,0.062438965
1602702928545,535,-0.24707031,0.9972534,0.062438965
1602702928545,536,-0.34399414,0.7938843,-0.04449463
1602702928546,537,-0.27148438,1.2328491,-0.050354004
1602702928552,538,-0.32714844,0.9137573,0.046813965
1602702928553,539,-0.27148438,1.2328491,-0.050354004
1602702928553,540,-0.21264648,0.8300171,-0.26519775
1602702928558,541,-0.23144531,0.98773193,0.012145996
1602702928558,542,-0.21264648,0.8300171,-0.26519775
1602702928558,543,-0.29296875,1.0231323,-0.1560669
1602702928559,544,-0.29296875,1.0231323,-0.1560669
1602702928565,545,-0.24707031,0.9972534,0.062438965
1602702928565,546,-0.18701172,0.8300171,-0.012512207
1602702928565,547,-0.18701172,0.8300171,-0.012512207
1602702928565,548,-0.27148438,1.2328491,-0.050354004
1602702928566,549,-0.15405273,0.7399292,-0.04083252
1602702928566,550,-0.15405273,0.7399292,-0.04083252
1602702928566,551,-0.08691406,0.84954834,0.043395996
1602702928566,552,-0.21264648,0.8300171,-0.26519775
1602702928567,553,-0.08691406,0.84954834,0.043395996
1602702928569,554,-0.068847656,1.1566772,0.009460449
1602702928569,555,-0.29296875,1.0231323,-0.1560669
1602702928570,556,-0.068847656,1.1566772,0.009460449
1602702928573,557,-0.20410156,1.2872925,-0.06817627
1602702928573,558,-0.20410156,1.2872925,-0.06817627
1602702928573,559,-0.18701172,0.8300171,-0.012512207
1602702928574,560,-0.20458984,0.86761475,-0.13873291
1602702928577,561,-0.20458984,0.86761475,-0.13873291
1602702928577,562,-0.15405273,0.7399292,-0.04083252
1602702928578,563,0.06762695,0.9454956,-0.06695557
1602702928578,564,-0.08691406,0.84954834,0.043395996
1602702928578,565,0.06762695,0.9454956,-0.06695557
1602702928582,566,-0.03930664,0.79559326,-0.0335083
1602702928582,567,-0.068847656,1.1566772,0.009460449
1602702928583,568,-0.03930664,0.79559326,-0.0335083
1602702928583,569,0.022705078,0.82806396,-0.04034424
1602702928583,570,0.022705078,0.82806396,-0.04034424
1602702928583,571,-0.20410156,1.2872925,-0.06817627
1602702928587,572,-0.20458984,0.86761475,-0.13873291
1602702928590,573,0.06762695,0.9454956,-0.06695557
1602702928590,574,-0.03930664,0.79559326,-0.0335083
1602702928590,575,0.022705078,0.82806396,-0.04034424
1602702930947,576,-0.026367188,0.9244995,-0.0095825195
1602702930948,577,0.0041503906,1.1715698,-0.016906738
1602702930956,578,-0.026367188,0.9244995,-0.0095825195
1602702930957,579,-0.026367188,0.9244995,-0.0095825195
1602702930957,580,0.0041503906,1.1715698,-0.016906738
1602702930957,581,0.0041503906,1.1715698,-0.016906738
1602702930957,582,-0.14160156,1.0819702,-0.42926025
1602702930958,583,-0.14160156,1.0819702,-0.42926025
1602702930959,584,-0.30615234,1.1036987,-0.16656494
1602702930960,585,-0.30615234,1.1036987,-0.16656494
1602702930963,586,-0.3022461,0.80633545,-0.26080322
1602702930963,587,-0.14160156,1.0819702,-0.42926025
1602702930964,588,-0.3022461,0.80633545,-0.26080322
1602702930966,589,-0.27685547,0.61590576,-0.21588135
1602702930969,590,-0.27685547,0.61590576,-0.21588135
1602702930970,591,-0.30615234,1.1036987,-0.16656494
1602702930970,592,-0.22949219,0.81951904,-0.22735596
1602702930974,593,-0.3022461,0.80633545,-0.26080322
1602702930974,594,-0.22949219,0.81951904,-0.22735596
1602702930975,595,-0.27685547,0.61590576,-0.21588135
1602702930978,596,-0.7458496,1.4491577,-0.1975708
1602702930979,597,-0.7458496,1.4491577,-0.1975708
1602702930979,598,-0.22949219,0.81951904,-0.22735596
1602702930982,599,-0.37841797,0.6117554,-0.16461182
1602702930982,600,-0.37841797,0.6117554,-0.16461182
1602702930982,601,-0.7458496,1.4491577,-0.1975708
1602702930983,602,-0.54003906,0.84368896,-0.11138916
1602702930986,603,-0.37841797,0.6117554,-0.16461182
1602702930986,604,-0.54003906,0.84368896,-0.11138916
1602702930987,605,-0.48217773,0.8461304,-0.06890869
1602702930987,606,-0.54003906,0.84368896,-0.11138916
1602702930988,607,-0.48217773,0.8461304,-0.06890869
1602702930997,608,-0.48217773,0.8461304,-0.06890869
1602702930998,609,-0.52001953,0.8341675,-0.01739502
1602702930998,610,-0.52001953,0.8341675,-0.01739502
1602702930998,611,-0.46411133,0.81951904,0.043884277
1602702930999,612,-0.46411133,0.81951904,0.043884277
1602702930999,613,-0.40307617,1.0546265,-0.050842285
1602702930999,614,-0.40307617,1.0546265,-0.050842285
1602702930999,615,-0.52001953,0.8341675,-0.01739502
1602702931000,616,-0.46411133,0.81951904,0.043884277
1602702931000,617,-0.05078125,0.9706421,-0.11651611
1602702931000,618,-0.05078125,0.9706421,-0.11651611
1602702931000,619,-0.119628906,0.949646,-0.15435791
1602702931001,620,-0.40307617,1.0546265,-0.050842285
1602702931001,621,-0.047607422,0.920105,-0.078186035
1602702931003,622,-0.119628906,0.949646,-0.15435791
1602702931004,623,-0.05078125,0.9706421,-0.11651611
1602702931004,624,-0.047607422,0.920105,-0.078186035
1602702931009,625,-0.119628906,0.949646,-0.15435791
1602702931010,626,-0.08300781,0.8522339,-0.09576416
1602702931010,627,-0.08300781,0.8522339,-0.09576416
1602702931010,628,-0.18432617,0.99432373,-0.028381348
1602702931011,629,-0.18432617,0.99432373,-0.028381348
1602702931011,630,-0.047607422,0.920105,-0.078186035
1602702931011,631,-0.13867188,0.9784546,0.050720215
1602702931012,632,-0.08300781,0.8522339,-0.09576416
1602702931013,633,-0.16894531,0.8759155,-0.038879395
1602702931013,634,-0.13867188,0.9784546,0.050720215
1602702931015,635,-0.18432617,0.99432373,-0.028381348
1602702931016,636,-0.16894531,0.8759155,-0.038879395
1602702931017,637,-0.13867188,0.9784546,0.050720215
1602702931018,638,-0.16894531,0.8759155,-0.038879395
1602702931021,639,-0.32739258,1.102478,-0.051330566
1602702931021,640,-0.32739258,1.102478,-0.051330566
1602702931022,641,-0.32739258,1.102478,-0.051330566
1602702931022,642,-0.42333984,0.84539795,-0.24298096
1602702931026,643,-0.42333984,0.84539795,-0.24298096
1602702931026,644,-0.30541992,0.836853,-0.2341919
1602702931026,645,-0.42333984,0.84539795,-0.24298096
1602702931027,646,-0.44970703,0.9660034,-0.18658447
1602702931027,647,-0.30541992,0.836853,-0.2341919
1602702931027,648,-0.3996582,0.79119873,-0.16314697
1602702931028,649,-0.44970703,0.9660034,-0.18658447
1602702931029,650,-0.30541992,0.836853,-0.2341919
1602702931031,651,-0.3996582,0.79119873,-0.16314697
1602702931031,652,-0.40014648,0.7157593,-0.19537354
1602702931031,653,-0.44970703,0.9660034,-0.18658447
1602702931036,654,-0.40014648,0.7157593,-0.19537354
1602702931036,655,-0.47973633,0.69158936,-0.19781494
1602702931036,656,-0.3996582,0.79119873,-0.16314697
1602702931037,657,-0.42773438,0.6420288,-0.38189697
1602702931037,658,-0.47973633,0.69158936,-0.19781494
1602702931037,659,-0.40014648,0.7157593,-0.19537354
1602702931040,660,-0.6333008,0.6605835,-0.49224854
1602702931040,661,-0.42773438,0.6420288,-0.38189697
1602702931040,662,-0.47973633,0.69158936,-0.19781494
1602702931041,663,-0.3671875,0.61590576,-0.48809814
1602702931042,664,-0.42773438,0.6420288,-0.38189697
1602702931044,665,-0.32763672,0.6063843,-0.50323486
1602702931044,666,-0.6333008,0.6605835,-0.49224854
1602702931044,667,-0.6333008,0.6605835,-0.49224854
1602702931046,668,-0.3671875,0.61590576,-0.48809814
1602702931048,669,-0.3671875,0.61590576,-0.48809814
1602702931050,670,-0.32763672,0.6063843,-0.50323486
1602702931051,671,-0.32763672,0.6063843,-0.50323486
1602702933547,672,-0.46557617,0.54901123,-0.5269165
1602702933547,673,-0.46557617,0.54901123,-0.5269165
1602702933551,674,-0.5439453,0.8331909,-0.45391846
1602702933552,675,-0.46557617,0.54901123,-0.5269165
1602702933552,676,-0.60253906,0.87420654,-0.5227661
1602702933555,677,-0.5439453,0.8331909,-0.45391846
1602702933559,678,-0.60253906,0.87420654,-0.5227661
1602702933560,679,-0.5439453,0.8331909,-0.45391846
1602702933560,680,-0.43237305,1.1159058,-0.53692627
1602702933566,681,-0.43237305,1.1159058,-0.53692627
1602702933567,682,-0.60253906,0.87420654,-0.5227661
1602702933567,683,-0.5703125,1.6469116,-0.4824829
1602702933571,684,-0.5703125,1.6469116,-0.4824829
1602702933571,685,-0.43237305,1.1159058,-0.53692627
1602702933571,686,-0.13891602,0.9389038,-0.2637329
1602702933599,687,-0.13891602,0.9389038,-0.2637329
1602702933599,688,-0.5703125,1.6469116,-0.4824829
1602702933602,689,-0.044189453,0.54608154,-0.21954346
1602702933602,690,-0.044189453,0.54608154,-0.21954346
1602702933602,691,-0.13891602,0.9389038,-0.2637329
1602702933603,692,-0.1352539,0.9071655,-0.1428833
1602702933603,693,-0.1352539,0.9071655,-0.1428833
1602702933603,694,-0.044189453,0.54608154,-0.21954346
1602702933603,695,-0.107910156,1.1972046,0.05657959
1602702933603,696,-0.107910156,1.1972046,0.05657959
1602702933603,697,-0.1352539,0.9071655,-0.1428833
1602702933603,698,-0.15551758,0.9262085,-0.042541504
1602702933603,699,-0.107910156,1.1972046,0.05657959
1602702933604,700,-0.1574707,0.8810425,-0.051330566
1602702933605,701,-0.15551758,0.9262085,-0.042541504
1602702933605,702,-0.1574707,0.8810425,-0.051330566
1602702933605,703,-0.16308594,0.9254761,-0.05206299
1602702933618,704,-0.16308594,0.9254761,-0.05206299
1602702933618,705,-0.15551758,0.9262085,-0.042541504
1602702933619,706,-0.14526367,0.9320679,-0.047424316
1602702933619,707,-0.14526367,0.9320679,-0.047424316
1602702933619,708,-0.1574707,0.8810425,-0.051330566
1602702933619,709,-0.19604492,0.8908081,-0.10870361
1602702933620,710,-0.19604492,0.8908081,-0.10870361
1602702933620,711,-0.19335938,0.8961792,-0.14019775
1602702933622,712,-0.19335938,0.8961792,-0.14019775
1602702933623,713,-0.20458984,0.92889404,-0.15826416
1602702933624,714,-0.22143555,0.9215698,-0.22564697
1602702933626,715,-0.20458984,0.92889404,-0.15826416
1602702933629,716,-0.22143555,0.9215698,-0.22564697
1602702933630,717,-0.3330078,0.94403076,-0.39923096
1602702933630,718,-0.3330078,0.94403076,-0.39923096
1602702933632,719,-0.16308594,0.9254761,-0.05206299
1602702933638,720,-0.40966797,0.8707886,-0.47808838
1602702933639,721,-0.40966797,0.8707886,-0.47808838
1602702933642,722,-0.14526367,0.9320679,-0.047424316
1602702933642,723,-0.3671875,0.8168335,-0.5420532
1602702933643,724,-0.19604492,0.8908081,-0.10870361
1602702933644,725,-0.34643555,0.9071655,-0.5105591
1602702933650,726,-0.19335938,0.8961792,-0.14019775
1602702933651,727,-0.3671875,0.8168335,-0.5420532
1602702933654,728,-0.3828125,0.9071655,-0.4553833
1602702933654,729,-0.34643555,0.9071655,-0.5105591
1602702933654,730,-0.3828125,0.9071655,-0.4553833
1602702933654,731,-0.40820312,0.91741943,-0.3694458
1602702933656,732,-0.20458984,0.92889404,-0.15826416
1602702933657,733,-0.40820312,0.91741943,-0.3694458
1602702933657,734,-0.41210938,0.89642334,-0.33917236
1602702933657,735,-0.22143555,0.9215698,-0.22564697
1602702933659,736,-0.41210938,0.89642334,-0.33917236
1602702933659,737,-0.3149414,0.8969116,-0.21221924
1602702933659,738,-0.3330078,0.94403076,-0.39923096
1602702933661,739,-0.3149414,0.8969116,-0.21221924
1602702933662,740,-0.40966797,0.8707886,-0.47808838
1602702933663,741,-0.21948242,0.84368896,-0.13018799
1602702933664,742,-0.3671875,0.8168335,-0.5420532
1602702933665,743,-0.23461914,0.8082886,-0.07330322
1602702933666,744,-0.34643555,0.9071655,-0.5105591
1602702933667,745,-0.18823242,0.90911865,-0.022277832
1602702933668,746,-0.3828125,0.9071655,-0.4553833
1602702933669,747,-0.19824219,0.90374756,0.03338623
1602702933670,748,-0.40820312,0.91741943,-0.3694458
1602702933671,749,-0.19726562,0.9664917,0.06951904
1602702933672,750,-0.41210938,0.89642334,-0.33917236
1602702933674,751,-0.3149414,0.8969116,-0.21221924
1602702933675,752,-0.13427734,0.9540405,0.031188965
1602702933677,753,-0.21948242,0.84368896,-0.13018799
1602702933677,754,-0.21948242,0.84368896,-0.13018799
1602702933677,755,-0.07910156,0.92230225,0.0119018555
1602702933679,756,-0.23461914,0.8082886,-0.07330322
1602702933680,757,-0.23461914,0.8082886,-0.07330322
1602702933681,758,-0.18823242,0.90911865,-0.022277832
1602702933682,759,-0.18823242,0.90911865,-0.022277832
1602702933683,760,-0.19824219,0.90374756,0.03338623
1602702933684,761,-0.19824219,0.90374756,0.03338623
1602702933685,762,-0.19726562,0.9664917,0.06951904
1602702933688,763,-0.13427734,0.9540405,0.031188965
1602702933688,764,-0.19726562,0.9664917,0.06951904
1602702933689,765,-0.07910156,0.92230225,0.0119018555
1602702933693,766,-0.13427734,0.9540405,0.031188965
1602702933695,767,-0.07910156,0.92230225,0.0119018555
1602702936048,768,-0.17260742,0.94281006,-0.043029785
1602702936048,769,-0.17260742,0.94281006,-0.043029785
1602702936048,770,-0.17260742,0.94281006,-0.043029785
1602702936049,771,-0.16430664,0.918396,-0.07110596
1602702936049,772,-0.16430664,0.918396,-0.07110596
1602702936050,773,-0.12451172,0.9489136,-0.070617676
1602702936050,774,-0.16430664,0.918396,-0.07110596
1602702936050,775,-0.14794922,0.9894409,-0.13238525
1602702936050,776,-0.12451172,0.9489136,-0.070617676
1602702936057,777,-0.12451172,0.9489136,-0.070617676
1602702936057,778,-0.28198242,0.9940796,-0.2559204
1602702936058,779,-0.14794922,0.9894409,-0.13238525
1602702936058,780,-0.14794922,0.9894409,-0.13238525
1602702936058,781,-0.28173828,0.93011475,-0.28546143
1602702936058,782,-0.28198242,0.9940796,-0.2559204
1602702936058,783,-0.28198242,0.9940796,-0.2559204
1602702936059,784,-0.28173828,0.93011475,-0.28546143
1602702936059,785,-0.28320312,0.9254761,-0.29449463
1602702936059,786,-0.28320312,0.9254761,-0.29449463
1602702936059,787,-0.2854004,0.93304443,-0.23394775
1602702936061,788,-0.28173828,0.93011475,-0.28546143
1602702936063,789,-0.2939453,0.92303467,-0.19366455
1602702936063,790,-0.2854004,0.93304443,-0.23394775
1602702936064,791,-0.28320312,0.9254761,-0.29449463
1602702936066,792,-0.32250977,0.887146,-0.17071533
1602702936066,793,-0.2939453,0.92303467,-0.19366455
1602702936066,794,-0.2854004,0.93304443,-0.23394775
1602702936068,795,-0.29052734,0.90740967,-0.09552002
1602702936069,796,-0.2939453,0.92303467,-0.19366455
1602702936070,797,-0.3256836,0.9203491,-0.023986816
1602702936071,798,-0.32250977,0.887146,-0.17071533
1602702936072,799,-0.31103516,0.90301514,-0.0413208
1602702936076,800,-0.29052734,0.90740967,-0.09552002
1602702936076,801,-0.32250977,0.887146,-0.17071533
1602702936076,802,-0.265625,0.8969116,-0.02130127
1602702936078,803,-0.3256836,0.9203491,-0.023986816
1602702936081,804,-0.21508789,0.8954468,0.04119873
1602702936081,805,-0.29052734,0.90740967,-0.09552002
1602702936082,806,-0.31103516,0.90301514,-0.0413208
1602702936083,807,-0.3256836,0.9203491,-0.023986816
1602702936083,808,-0.17163086,0.9125366,0.11077881
1602702936083,809,-0.265625,0.8969116,-0.02130127
1602702936084,810,-0.31103516,0.90301514,-0.0413208
1602702936087,811,-0.21508789,0.8954468,0.04119873
1602702936087,812,-0.2602539,0.9406128,0.023132324
1602702936087,813,-0.265625,0.8969116,-0.02130127
1602702936088,814,-0.17163086,0.9125366,0.11077881
1602702936089,815,-0.24121094,0.9398804,0.12420654
1602702936090,816,-0.2602539,0.9406128,0.023132324
1602702936095,817,-0.24121094,0.9398804,0.12420654
1602702936095,818,-0.21875,0.9491577,0.09490967
1602702936095,819,-0.21508789,0.8954468,0.04119873
1602702936095,820,-0.25805664,0.9213257,0.05999756
1602702936096,821,-0.17163086,0.9125366,0.11077881
1602702936096,822,-0.20483398,0.9381714,0.042419434
1602702936096,823,-0.2602539,0.9406128,0.023132324
1602702936097,824,-0.21875,0.9491577,0.09490967
1602702936101,825,-0.24121094,0.9398804,0.12420654
1602702936102,826,-0.22363281,0.90448,0.027770996
1602702936102,827,-0.25805664,0.9213257,0.05999756
1602702936103,828,-0.21875,0.9491577,0.09490967
1602702936103,829,-0.20483398,0.9381714,0.042419434
1602702936103,830,-0.2446289,0.9784546,0.07489014
1602702936104,831,-0.25805664,0.9213257,0.05999756
1602702936106,832,-0.23925781,0.9196167,-0.0029907227
1602702936107,833,-0.22363281,0.90448,0.027770996
1602702936107,834,-0.20483398,0.9381714,0.042419434
1602702936109,835,-0.22338867,0.92181396,-0.015686035
1602702936110,836,-0.2446289,0.9784546,0.07489014
1602702936110,837,-0.22363281,0.90448,0.027770996
1602702936111,838,-0.21191406,0.9450073,-0.012756348
1602702936113,839,-0.2446289,0.9784546,0.07489014
1602702936114,840,-0.23925781,0.9196167,-0.0029907227
1602702936114,841,-0.3088379,0.94085693,-0.004699707
1602702936115,842,-0.23925781,0.9196167,-0.0029907227
1602702936116,843,-0.22338867,0.92181396,-0.015686035
1602702936118,844,-0.32348633,0.9281616,-0.074523926
1602702936118,845,-0.22338867,0.92181396,-0.015686035
1602702936119,846,-0.21191406,0.9450073,-0.012756348
1602702936121,847,-0.2241211,0.9335327,-0.01739502
1602702936121,848,-0.21191406,0.9450073,-0.012756348
1602702936122,849,-0.3088379,0.94085693,-0.004699707
1602702936122,850,-0.18652344,0.92889404,0.005554199
1602702936123,851,-0.32348633,0.9281616,-0.074523926
1602702936125,852,-0.21728516,0.920105,-0.004211426
1602702936126,853,-0.3088379,0.94085693,-0.004699707
1602702936126,854,-0.2241211,0.9335327,-0.01739502
1602702936127,855,-0.24267578,0.9472046,-0.03668213
1602702936128,856,-0.18652344,0.92889404,0.005554199
1602702936131,857,-0.32348633,0.9281616,-0.074523926
1602702936131,858,-0.21728516,0.920105,-0.004211426
1602702936132,859,-0.2241211,0.9335327,-0.01739502
1602702936133,860,-0.24267578,0.9472046,-0.03668213
1602702936134,861,-0.18652344,0.92889404,0.005554199
1602702936135,862,-0.21728516,0.920105,-0.004211426
1602702936137,863,-0.24267578,0.9472046,-0.03668213
1602702938648,864,-0.22949219,0.95355225,-0.070617676
1602702938654,865,-0.22949219,0.95355225,-0.070617676
1602702938655,866,-0.22949219,0.95355225,-0.070617676
1602702938656,867,-0.25439453,0.9418335,-0.13043213
1602702938658,868,-0.25439453,0.9418335,-0.13043213
1602702938671,869,-0.25439453,0.9418335,-0.13043213
1602702938673,870,-0.25976562,0.9113159,-0.16461182
1602702938674,871,-0.25976562,0.9113159,-0.16461182
1602702938674,872,-0.20751953,0.9515991,-0.12994385
1602702938675,873,-0.20751953,0.9515991,-0.12994385
1602702938675,874,-0.26831055,0.9203491,-0.120666504
1602702938675,875,-0.26831055,0.9203491,-0.120666504
1602702938676,876,-0.26342773,0.92596436,-0.12384033
1602702938676,877,-0.25976562,0.9113159,-0.16461182
1602702938677,878,-0.26342773,0.92596436,-0.12384033
1602702938678,879,-0.27124023,0.9484253,-0.11260986
1602702938678,880,-0.23022461,0.9528198,-0.09259033
1602702938678,881,-0.20751953,0.9515991,-0.12994385
1602702938679,882,-0.27124023,0.9484253,-0.11260986
1602702938691,883,-0.26831055,0.9203491,-0.120666504
1602702938692,884,-0.21264648,0.93084717,-0.10211182
1602702938692,885,-0.23022461,0.9528198,-0.09259033
1602702938693,886,-0.26342773,0.92596436,-0.12384033
1602702938693,887,-0.19750977,0.9364624,-0.097717285
1602702938693,888,-0.27124023,0.9484253,-0.11260986
1602702938694,889,-0.21264648,0.93084717,-0.10211182
1602702938694,890,-0.2290039,0.93426514,-0.109436035
1602702938695,891,-0.19750977,0.9364624,-0.097717285
1602702938695,892,-0.23022461,0.9528198,-0.09259033
1602702938695,893,-0.2290039,0.93426514,-0.109436035
1602702938699,894,-0.22802734,0.9298706,-0.13189697
1602702938699,895,-0.21264648,0.93084717,-0.10211182
1602702938699,896,-0.22802734,0.9298706,-0.13189697
1602702938705,897,-0.1928711,0.9411011,-0.116760254
1602702938705,898,-0.19750977,0.9364624,-0.097717285
1602702938705,899,-0.1928711,0.9411011,-0.116760254
1602702938706,900,-0.2290039,0.93426514,-0.109436035
1602702938706,901,-0.1821289,0.96746826,-0.11212158
1602702938707,902,-0.1821289,0.96746826,-0.11212158
1602702938713,903,-0.22802734,0.9298706,-0.13189697
1602702938714,904,-0.18188477,0.9569702,-0.116760254
1602702938714,905,-0.18188477,0.9569702,-0.116760254
1602702938714,906,-0.1928711,0.9411011,-0.116760254
1602702938714,907,-0.22729492,0.93914795,-0.13433838
1602702938715,908,-0.22729492,0.93914795,-0.13433838
1602702938715,909,-0.23657227,0.9359741,-0.1651001
1602702938717,910,-0.1821289,0.96746826,-0.11212158
1602702938719,911,-0.21289062,0.9008179,-0.17266846
1602702938720,912,-0.18188477,0.9569702,-0.116760254
1602702938725,913,-0.20092773,0.94158936,-0.16143799
1602702938725,914,-0.23657227,0.9359741,-0.1651001
1602702938725,915,-0.22729492,0.93914795,-0.13433838
1602702938726,916,-0.24072266,0.97528076,-0.14556885
1602702938726,917,-0.23657227,0.9359741,-0.1651001
1602702938727,918,-0.21289062,0.9008179,-0.17266846
1602702938730,919,-0.1796875,0.9540405,-0.11773682
1602702938731,920,-0.21289062,0.9008179,-0.17266846
1602702938731,921,-0.20092773,0.94158936,-0.16143799
1602702938731,922,-0.1262207,0.9135132,-0.105285645
1602702938733,923,-0.20092773,0.94158936,-0.16143799
1602702938736,924,-0.21362305,0.9611206,-0.042541504
1602702938737,925,-0.24072266,0.97528076,-0.14556885
1602702938738,926,-0.24072266,0.97528076,-0.14556885
1602702938741,927,-0.17114258,0.94744873,-0.03253174
1602702938741,928,-0.1796875,0.9540405,-0.11773682
1602702938742,929,-0.1796875,0.9540405,-0.11773682
1602702938745,930,-0.21679688,0.9450073,-0.07086182
1602702938746,931,-0.1262207,0.9135132,-0.105285645
1602702938748,932,-0.1262207,0.9135132,-0.105285645
1602702938749,933,-0.21362305,0.9611206,-0.042541504
1602702938750,934,-0.21362305,0.9611206,-0.042541504
1602702938752,935,-0.17114258,0.94744873,-0.03253174
1602702938759,936,-0.17114258,0.94744873,-0.03253174
1602702938759,937,-0.2644043,0.94036865,-0.0569458
1602702938760,938,-0.21679688,0.9450073,-0.07086182
1602702938760,939,-0.21679688,0.9450073,-0.07086182
1602702938760,940,-0.2644043,0.94036865,-0.0569458
1602702938760,941,-0.23999023,0.9076538,-0.085510254
1602702938761,942,-0.2644043,0.94036865,-0.0569458
1602702938765,943,-0.23999023,0.9076538,-0.085510254
1602702938765,944,-0.25512695,0.9545288,-0.09576416
1602702938765,945,-0.23999023,0.9076538,-0.085510254
1602702938765,946,-0.25512695,0.9545288,-0.09576416
1602702938769,947,-0.20239258,0.920105,-0.08062744
1602702938769,948,-0.25512695,0.9545288,-0.09576416
1602702938770,949,-0.20239258,0.920105,-0.08062744
1602702938774,950,-0.21313477,0.94696045,-0.10430908
1602702938775,951,-0.21313477,0.94696045,-0.10430908
1602702938775,952,-0.20239258,0.920105,-0.08062744
1602702938775,953,-0.2368164,0.9142456,-0.14434814
1602702938776,954,-0.21313477,0.94696045,-0.10430908
1602702938779,955,-0.2368164,0.9142456,-0.14434814
1602702938779,956,-0.22314453,0.9418335,-0.14508057
1602702938779,957,-0.2368164,0.9142456,-0.14434814
1602702938783,958,-0.22314453,0.9418335,-0.14508057
1602702938783,959,-0.22314453,0.9418335,-0.14508057
1602702941249,960,-0.26831055,0.89178467,-0.21539307
1602702941257,961,-0.26831055,0.89178467,-0.21539307
1602702941257,962,-0.26831055,0.89178467,-0.21539307
1602702941258,963,-0.28076172,0.9706421,-0.2185669
1602702941258,964,-0.28076172,0.9706421,-0.2185669
1602702941261,965,-0.21484375,0.9450073,-0.18243408
1602702941264,966,-0.21484375,0.9450073,-0.18243408
1602702941266,967,-0.19482422,0.9796753,-0.13409424
1602702941271,968,-0.19482422,0.9796753,-0.13409424
1602702941272,969,-0.28076172,0.9706421,-0.2185669
1602702941273,970,-0.12768555,0.97528076,-0.06793213
1602702941293,971,-0.12768555,0.97528076,-0.06793213
1602702941294,972,-0.21484375,0.9450073,-0.18243408
1602702941295,973,-0.2097168,0.9525757,-0.07965088
1602702941295,974,-0.2097168,0.9525757,-0.07965088
1602702941296,975,-0.19482422,0.9796753,-0.13409424
1602702941296,976,-0.21313477,0.95428467,-0.06402588
1602702941296,977,-0.21313477,0.95428467,-0.06402588
1602702941296,978,-0.23388672,0.9254761,0.0016479492
1602702941297,979,-0.12768555,0.97528076,-0.06793213
1602702941297,980,-0.23388672,0.9254761,0.0016479492
1602702941297,981,-0.2097168,0.9525757,-0.07965088
1602702941298,982,-0.27661133,0.8317261,-0.015686035
1602702941298,983,-0.27661133,0.8317261,-0.015686035
1602702941298,984,-0.32910156,0.855896,-0.03717041
1602702941298,985,-0.21313477,0.95428467,-0.06402588
1602702941298,986,-0.25341797,0.92401123,-0.02960205
1602702941300,987,-0.23388672,0.9254761,0.0016479492
1602702941307,988,-0.32910156,0.855896,-0.03717041
1602702941307,989,-0.21191406,0.8685913,-0.055480957
1602702941308,990,-0.27661133,0.8317261,-0.015686035
1602702941308,991,-0.32910156,0.855896,-0.03717041
1602702941308,992,-0.3083496,1.1068726,-0.14849854
1602702941310,993,-0.25341797,0.92401123,-0.02960205
1602702941314,994,-0.35864258,1.0140991,-0.15142822
1602702941314,995,-0.25341797,0.92401123,-0.02960205
1602702941315,996,-0.21191406,0.8685913,-0.055480957
1602702941315,997,-0.21289062,0.5751343,-0.20611572
1602702941317,998,-0.21191406,0.8685913,-0.055480957
1602702941321,999,-0.32055664,0.96136475,-0.16192627
1602702941321,1000,-0.3083496,1.1068726,-0.14849854
1602702941321,1001,-0.18017578,1.0824585,-0.11236572
1602702941322,1002,-0.35864258,1.0140991,-0.15142822
1602702941329,1003,-0.3083496,1.1068726,-0.14849854
1602702941330,1004,-0.37158203,1.3002319,-0.41290283
1602702941330,1005,-0.21289062,0.5751343,-0.20611572
1602702941331,1006,-0.54907227,1.0421753,-0.5930786
1602702941331,1007,-0.35864258,1.0140991,-0.15142822
1602702941331,1008,-0.21289062,0.5751343,-0.20611572
1602702941332,1009,-0.32055664,0.96136475,-0.16192627
1602702941332,1010,-0.21679688,0.56121826,-0.302063
1602702941336,1011,-0.32055664,0.96136475,-0.16192627
1602702941336,1012,-0.18017578,1.0824585,-0.11236572
1602702941336,1013,-0.09082031,-0.027893066,-0.13775635
1602702941340,1014,-0.18017578,1.0824585,-0.11236572
1602702941340,1015,-0.37158203,1.3002319,-0.41290283
1602702941340,1016,-0.033691406,0.66156006,-0.23809814
1602702941344,1017,-0.37158203,1.3002319,-0.41290283
1602702941345,1018,-0.54907227,1.0421753,-0.5930786
1602702941345,1019,-0.8203125,1.999939,-0.34869385
1602702941351,1020,-0.54907227,1.0421753,-0.5930786
1602702941351,1021,-0.21679688,0.56121826,-0.302063
1602702941355,1022,-0.2607422,0.69573975,-0.3394165
1602702941356,1023,-0.21679688,0.56121826,-0.302063
1602702941358,1024,-0.13183594,0.22796631,-0.06524658
1602702941359,1025,-0.09082031,-0.027893066,-0.13775635
1602702941359,1026,-0.09082031,-0.027893066,-0.13775635
1602702941361,1027,-0.017822266,0.2765503,-0.06329346
1602702941362,1028,-0.033691406,0.66156006,-0.23809814
1602702941366,1029,-0.5620117,1.999939,0.03778076
1602702941366,1030,-0.033691406,0.66156006,-0.23809814
1602702941367,1031,-0.8203125,1.999939,-0.34869385
1602702941367,1032,-0.09667969,0.7284546,-0.1506958
1602702941369,1033,-0.8203125,1.999939,-0.34869385
1602702941370,1034,-0.2265625,0.5661011,-0.12432861
1602702941376,1035,-0.2607422,0.69573975,-0.3394165
1602702941377,1036,-0.2607422,0.69573975,-0.3394165
1602702941378,1037,-0.17602539,0.9911499,-0.08013916
1602702941378,1038,-0.13183594,0.22796631,-0.06524658
1602702941378,1039,-0.13183594,0.22796631,-0.06524658
1602702941379,1040,-0.21386719,1.1466675,-0.007873535
1602702941379,1041,-0.017822266,0.2765503,-0.06329346
1602702941382,1042,-0.017822266,0.2765503,-0.06329346
1602702941383,1043,-0.2355957,0.80584717,-0.11968994
1602702941384,1044,-0.5620117,1.999939,0.03778076
1602702941386,1045,-0.5620117,1.999939,0.03778076
1602702941387,1046,-0.09667969,0.7284546,-0.1506958
1602702941389,1047,-0.09667969,0.7284546,-0.1506958
1602702941390,1048,-0.2265625,0.5661011,-0.12432861
1602702941392,1049,-0.2265625,0.5661011,-0.12432861
1602702941392,1050,-0.17602539,0.9911499,-0.08013916
1602702941394,1051,-0.17602539,0.9911499,-0.08013916
1602702941398,1052,-0.21386719,1.1466675,-0.007873535
1602702941398,1053,-0.21386719,1.1466675,-0.007873535
1602702941398,1054,-0.2355957,0.80584717,-0.11968994
1602702941399,1055,-0.2355957,0.80584717,-0.11968994
1602702943748,1056,-0.2133789,0.9540405,-0.19805908
1602702943756,1057,-0.2133789,0.9540405,-0.19805908
1602702943757,1058,-0.2133789,0.9540405,-0.19805908
1602702943758,1059,-0.34838867,0.9879761,-0.29718018
1602702943759,1060,-0.34838867,0.9879761,-0.29718018
1602702943759,1061,-0.34838867,0.9879761,-0.29718018
1602702943773,1062,-0.6916504,1.0021362,-0.35601807
1602702943775,1063,-0.6916504,1.0021362,-0.35601807
1602702943776,1064,-0.6916504,1.0021362,-0.35601807
1602702943776,1065,-0.50512695,1.1535034,-0.54766846
1602702943777,1066,-0.50512695,1.1535034,-0.54766846
1602702943778,1067,-0.50512695,1.1535034,-0.54766846
1602702943778,1068,-0.77197266,0.8361206,-0.54351807
1602702943780,1069,-0.77197266,0.8361206,-0.54351807
1602702943780,1070,-0.77197266,0.8361206,-0.54351807
1602702943780,1071,-0.64624023,0.97454834,-0.46514893
1602702943788,1072,-0.64624023,0.97454834,-0.46514893
1602702943789,1073,-0.64624023,0.97454834,-0.46514893
1602702943790,1074,-0.52319336,0.8312378,-0.41461182
1602702943790,1075,-0.52319336,0.8312378,-0.41461182
1602702943790,1076,-0.52319336,0.8312378,-0.41461182
1602702943791,1077,-0.49829102,0.8029175,-0.3665161
1602702943791,1078,-0.49829102,0.8029175,-0.3665161
1602702943791,1079,-0.49829102,0.8029175,-0.3665161
1602702943796,1080,-0.43188477,0.5914917,-0.31280518
1602702943796,1081,-0.43188477,0.5914917,-0.31280518
1602702943796,1082,-0.5119629,0.43255615,-0.20050049
1602702943797,1083,-0.43188477,0.5914917,-0.31280518
1602702943801,1084,-0.0029296875,0.60858154,-0.17999268
1602702943801,1085,-0.5119629,0.43255615,-0.20050049
1602702943801,1086,-0.2434082,0.78167725,0.014831543
1602702943806,1087,-0.0029296875,0.60858154,-0.17999268
1602702943808,1088,-0.5119629,0.43255615,-0.20050049
1602702943808,1089,-0.14819336,0.8722534,-0.055725098
1602702943808,1090,-0.2434082,0.78167725,0.014831543
1602702943808,1091,-0.20654297,0.96380615,-0.02935791
1602702943812,1092,-0.14819336,0.8722534,-0.055725098
1602702943813,1093,-0.22558594,1.0648804,-0.22540283
1602702943813,1094,-0.20654297,0.96380615,-0.02935791
1602702943813,1095,-0.0029296875,0.60858154,-0.17999268
1602702943818,1096,-0.46020508,1.1300659,-0.06964111
1602702943819,1097,-0.22558594,1.0648804,-0.22540283
1602702943819,1098,-0.20117188,0.670105,-0.2156372
1602702943821,1099,-0.2434082,0.78167725,0.014831543
1602702943822,1100,-0.46020508,1.1300659,-0.06964111
1602702943822,1101,-0.3083496,0.98236084,-0.24078369
1602702943831,1102,-0.14819336,0.8722534,-0.055725098
1602702943831,1103,-0.20117188,0.670105,-0.2156372
1602702943831,1104,-0.06298828,1.0753784,-0.144104
1602702943831,1105,-0.20654297,0.96380615,-0.02935791
1602702943831,1106,-0.09082031,0.8344116,-0.17047119
1602702943831,1107,-0.22558594,1.0648804,-0.22540283
1602702943832,1108,-0.048583984,0.9730835,-0.17974854
1602702943832,1109,-0.3083496,0.98236084,-0.24078369
1602702943832,1110,-0.028808594,0.8866577,-0.2078247
1602702943833,1111,-0.46020508,1.1300659,-0.06964111
1602702943838,1112,-0.041015625,0.87493896,-0.21173096
1602702943838,1113,-0.06298828,1.0753784,-0.144104
1602702943839,1114,-0.20117188,0.670105,-0.2156372
1602702943839,1115,-0.09082031,0.8344116,-0.17047119
1602702943839,1116,-0.072021484,1.0565796,-0.1687622
1602702943841,1117,-0.048583984,0.9730835,-0.17974854
1602702943841,1118,-0.19140625,1.0197144,-0.0032348633
1602702943841,1119,-0.3083496,0.98236084,-0.24078369
1602702943843,1120,-0.06298828,1.0753784,-0.144104
1602702943844,1121,-0.49853516,1.1549683,0.10614014
1602702943845,1122,-0.09082031,0.8344116,-0.17047119
1602702943848,1123,-0.36254883,0.62054443,-0.026916504
1602702943849,1124,-0.028808594,0.8866577,-0.2078247
1602702943849,1125,-0.048583984,0.9730835,-0.17974854
1602702943850,1126,-0.27172852,0.9369507,-0.038879395
1602702943852,1127,-0.028808594,0.8866577,-0.2078247
1602702943853,1128,-0.041015625,0.87493896,-0.21173096
1602702943853,1129,-0.2734375,0.9191284,-0.057922363
1602702943854,1130,-0.30078125,0.8588257,-0.08135986
1602702943855,1131,-0.072021484,1.0565796,-0.1687622
1602702943856,1132,-0.2524414,0.9130249,-0.06427002
1602702943859,1133,-0.19140625,1.0197144,-0.0032348633
1602702943861,1134,-0.49853516,1.1549683,0.10614014
1602702943861,1135,-0.041015625,0.87493896,-0.21173096
1602702943861,1136,-0.36254883,0.62054443,-0.026916504
1602702943862,1137,-0.26049805,0.9293823,-0.09674072
1602702943865,1138,-0.072021484,1.0565796,-0.1687622
1602702943865,1139,-0.27172852,0.9369507,-0.038879395
1602702943866,1140,-0.19140625,1.0197144,-0.0032348633
1602702943867,1141,-0.2734375,0.9191284,-0.057922363
1602702943868,1142,-0.49853516,1.1549683,0.10614014
1602702943871,1143,-0.30078125,0.8588257,-0.08135986
1602702943871,1144,-0.36254883,0.62054443,-0.026916504
1602702943871,1145,-0.2524414,0.9130249,-0.06427002
1602702943873,1146,-0.27172852,0.9369507,-0.038879395
1602702943875,1147,-0.26049805,0.9293823,-0.09674072
1602702943876,1148,-0.2734375,0.9191284,-0.057922363
1602702943877,1149,-0.30078125,0.8588257,-0.08135986
1602702943878,1150,-0.2524414,0.9130249,-0.06427002
1602702943880,1151,-0.26049805,0.9293823,-0.09674072
