# Sensor position: Chest
# Sensor side: Right
# Activity type: Movement
# Activity code: 9
# Subject id: s1758499
timestamp,seq,accel_x,accel_y,accel_z
1602703450853,0,0.0769043,-1.0547485,0.13568115
1602703450854,1,0.0769043,-1.0547485,0.13568115
1602703450855,2,0.0769043,-1.0547485,0.13568115
1602703450861,3,0.08496094,-1.0095825,0.11126709
1602703450862,4,0.08496094,-1.0095825,0.11126709
1602703450862,5,0.08496094,-1.0095825,0.11126709
1602703450869,6,0.12011719,-1.0005493,0.081726074
1602703450870,7,0.12011719,-1.0005493,0.081726074
1602703450870,8,0.07910156,-1.0447388,0.058288574
1602703450872,9,0.12011719,-1.0005493,0.081726074
1602703450876,10,0.0041503906,-1.1880493,0.047790527
1602703450881,11,0.07910156,-1.0447388,0.058288574
1602703450881,12,0.07910156,-1.0447388,0.058288574
1602703450881,13,-0.103271484,-1.1321411,-0.014709473
1602703450883,14,0.0041503906,-1.1880493,0.047790527
1602703450887,15,-0.16674805,-0.90582275,-0.0025024414
1602703450888,16,0.0041503906,-1.1880493,0.047790527
1602703450888,17,-0.103271484,-1.1321411,-0.014709473
1602703450889,18,-0.057861328,-1.0166626,0.06048584
1602703450890,19,-0.16674805,-0.90582275,-0.0025024414
1602703450897,20,-0.076660156,-0.9390259,0.043884277
1602703450898,21,-0.103271484,-1.1321411,-0.014709473
1602703450898,22,-0.08496094,-1.0237427,0.08831787
1602703450899,23,-0.057861328,-1.0166626,0.06048584
1602703450899,24,-0.029541016,-0.99957275,0.13787842
1602703450900,25,-0.16674805,-0.90582275,-0.0025024414
1602703450906,26,-0.076660156,-0.9390259,0.043884277
1602703450909,27,0.0026855469,-0.97003174,0.14544678
1602703450909,28,-0.057861328,-1.0166626,0.06048584
1602703450911,29,-0.08496094,-1.0237427,0.08831787
1602703450912,30,0.0041503906,-1.0161743,0.16741943
1602703450914,31,-0.029541016,-0.99957275,0.13787842
1602703450915,32,0.06640625,-1.0501099,0.22747803
1602703450916,33,0.0026855469,-0.97003174,0.14544678
1602703450920,34,0.06225586,-1.1809692,0.1317749
1602703450920,35,-0.076660156,-0.9390259,0.043884277
1602703450920,36,0.0041503906,-1.0161743,0.16741943
1602703450920,37,0.07519531,-1.060852,0.070007324
1602703450922,38,0.06640625,-1.0501099,0.22747803
1602703450923,39,-0.08496094,-1.0237427,0.08831787
1602703450930,40,0.06225586,-1.1809692,0.1317749
1602703450931,41,0.0715332,-0.8218384,-0.035705566
1602703450931,42,-0.029541016,-0.99957275,0.13787842
1602703450931,43,0.044433594,-1.1907349,0.06829834
1602703450931,44,0.07519531,-1.060852,0.070007324
1602703450932,45,-0.022460938,-0.87945557,0.074157715
1602703450933,46,0.0715332,-0.8218384,-0.035705566
1602703450933,47,0.0026855469,-0.97003174,0.14544678
1602703450933,48,0.044433594,-1.1907349,0.06829834
1602703450935,49,0.041259766,-0.9072876,0.08343506
1602703450937,50,-0.022460938,-0.87945557,0.074157715
1602703450937,51,0.0041503906,-1.0161743,0.16741943
1602703450937,52,0.024169922,-0.98760986,0.1005249
1602703450938,53,0.041259766,-0.9072876,0.08343506
1602703450939,54,0.05053711,-1.2136841,0.12884521
1602703450943,55,0.024169922,-0.98760986,0.1005249
1602703450943,56,0.06640625,-1.0501099,0.22747803
1602703450943,57,-0.08569336,-1.3821411,0.030456543
1602703450943,58,0.05053711,-1.2136841,0.12884521
1602703450945,59,0.06225586,-1.1809692,0.1317749
1602703450946,60,-0.08569336,-1.3821411,0.030456543
1602703450947,61,0.07519531,-1.060852,0.070007324
1602703450949,62,-0.2265625,-0.8882446,-0.15582275
1602703450949,63,-0.2265625,-0.8882446,-0.15582275
1602703450950,64,0.0715332,-0.8218384,-0.035705566
1602703450951,65,-0.061767578,-1.003479,-0.0068969727
1602703450954,66,0.044433594,-1.1907349,0.06829834
1602703450954,67,-0.061767578,-1.003479,-0.0068969727
1602703450955,68,-0.0625,-0.81622314,0.032165527
1602703450955,69,-0.022460938,-0.87945557,0.074157715
1602703450957,70,-0.0625,-0.81622314,0.032165527
1602703450958,71,-0.04248047,-0.8237915,0.12640381
1602703450958,72,0.041259766,-0.9072876,0.08343506
1602703450960,73,-0.04248047,-0.8237915,0.12640381
1602703450960,74,-0.044677734,-1.031311,0.12298584
1602703450960,75,0.024169922,-0.98760986,0.1005249
1602703450962,76,-0.044677734,-1.031311,0.12298584
1602703450963,77,0.05053711,-1.2136841,0.12884521
1602703450964,78,0.025634766,-1.3530884,0.16522217
1602703450965,79,-0.08569336,-1.3821411,0.030456543
1602703450967,80,0.09008789,-1.2073364,-0.038146973
1602703450967,81,0.025634766,-1.3530884,0.16522217
1602703450968,82,-0.2265625,-0.8882446,-0.15582275
1602703450970,83,-0.0107421875,-1.0039673,-0.039611816
1602703450970,84,0.09008789,-1.2073364,-0.038146973
1602703450970,85,-0.061767578,-1.003479,-0.0068969727
1602703450971,86,-0.041748047,-0.9116821,0.050476074
1602703450974,87,-0.0107421875,-1.0039673,-0.039611816
1602703450974,88,-0.0625,-0.81622314,0.032165527
1602703450976,89,-0.041748047,-0.9116821,0.050476074
1602703450976,90,-0.04248047,-0.8237915,0.12640381
1602703450978,91,-0.044677734,-1.031311,0.12298584
1602703450979,92,0.025634766,-1.3530884,0.16522217
1602703450980,93,0.09008789,-1.2073364,-0.038146973
1602703450981,94,-0.0107421875,-1.0039673,-0.039611816
1602703450982,95,-0.041748047,-0.9116821,0.050476074
1602703453349,96,0.05444336,-0.74664307,0.059753418
1602703453359,97,0.05444336,-0.74664307,0.059753418
1602703453359,98,0.05444336,-0.74664307,0.059753418
1602703453360,99,0.030029297,-1.0142212,0.07611084
1602703453360,100,0.030029297,-1.0142212,0.07611084
1602703453360,101,0.030029297,-1.0142212,0.07611084
1602703453363,102,0.06542969,-1.2434692,0.20526123
1602703453365,103,0.06542969,-1.2434692,0.20526123
1602703453370,104,-0.18139648,-1.2097778,0.047058105
1602703453371,105,0.06542969,-1.2434692,0.20526123
1602703453371,106,-0.19604492,-1.0010376,-0.043273926
1602703453374,107,-0.18139648,-1.2097778,0.047058105
1602703453382,108,-0.19604492,-1.0010376,-0.043273926
1602703453383,109,-0.18139648,-1.2097778,0.047058105
1602703453383,110,-0.005126953,-0.9314575,0.024353027
1602703453384,111,-0.005126953,-0.9314575,0.024353027
1602703453384,112,-0.060546875,-0.7346802,0.09222412
1602703453386,113,-0.060546875,-0.7346802,0.09222412
1602703453389,114,-0.022949219,-0.8916626,0.1564331
1602703453391,115,-0.022949219,-0.8916626,0.1564331
1602703453396,116,-0.040283203,-1.253479,0.19403076
1602703453397,117,-0.19604492,-1.0010376,-0.043273926
1602703453398,118,-0.040283203,-1.253479,0.19403076
1602703453402,119,-0.005126953,-0.9314575,0.024353027
1602703453402,120,0.13256836,-1.3843384,0.070007324
1602703453403,121,0.13256836,-1.3843384,0.070007324
1602703453408,122,-0.060546875,-0.7346802,0.09222412
1602703453409,123,0.020507812,-0.9920044,-0.109436035
1602703453409,124,0.020507812,-0.9920044,-0.109436035
1602703453409,125,-0.022949219,-0.8916626,0.1564331
1602703453413,126,-0.028320312,-0.9636841,0.038513184
1602703453413,127,-0.028320312,-0.9636841,0.038513184
1602703453414,128,-0.040283203,-1.253479,0.19403076
1602703453415,129,0.049316406,-0.7398071,0.022888184
1602703453424,130,0.13256836,-1.3843384,0.070007324
1602703453424,131,0.049316406,-0.7398071,0.022888184
1602703453424,132,0.063964844,-0.91485596,0.01727295
1602703453424,133,0.063964844,-0.91485596,0.01727295
1602703453425,134,0.056152344,-1.2258911,0.16766357
1602703453425,135,0.056152344,-1.2258911,0.16766357
1602703453426,136,-0.09643555,-1.3093872,-0.01739502
1602703453426,137,-0.09643555,-1.3093872,-0.01739502
1602703453426,138,-0.2475586,-1.0593872,-0.10992432
1602703453430,139,0.020507812,-0.9920044,-0.109436035
1602703453431,140,-0.2475586,-1.0593872,-0.10992432
1602703453431,141,0.018798828,-0.9678345,-0.002746582
1602703453431,142,-0.028320312,-0.9636841,0.038513184
1602703453434,143,0.018798828,-0.9678345,-0.002746582
1602703453437,144,0.049316406,-0.7398071,0.022888184
1602703453439,145,0.063964844,-0.91485596,0.01727295
1602703453446,146,-0.025878906,-0.6729126,0.058044434
1602703453446,147,-0.025878906,-0.6729126,0.058044434
1602703453446,148,0.027832031,-0.8435669,0.12030029
1602703453446,149,0.027832031,-0.8435669,0.12030029
1602703453447,150,0.056152344,-1.2258911,0.16766357
1602703453447,151,-0.02319336,-1.2393188,0.20794678
1602703453448,152,-0.09643555,-1.3093872,-0.01739502
1602703453449,153,0.1394043,-1.4490356,0.08270264
1602703453452,154,-0.2475586,-1.0593872,-0.10992432
1602703453453,155,-0.01171875,-1.0361938,-0.14801025
1602703453454,156,0.018798828,-0.9678345,-0.002746582
1602703453456,157,-0.052246094,-0.956604,0.014343262
1602703453457,158,-0.02319336,-1.2393188,0.20794678
1602703453457,159,-0.010498047,-0.7695923,-0.00592041
1602703453460,160,0.1394043,-1.4490356,0.08270264
1602703453461,161,0.034423828,-0.8945923,0.043884277
1602703453462,162,-0.01171875,-1.0361938,-0.14801025
1602703453467,163,-0.052246094,-0.956604,0.014343262
1602703453468,164,-0.025878906,-0.6729126,0.058044434
1602703453468,165,-0.010498047,-0.7695923,-0.00592041
1602703453468,166,0.027832031,-0.8435669,0.12030029
1602703453468,167,0.09643555,-1.1575317,0.18499756
1602703453469,168,0.034423828,-0.8945923,0.043884277
1602703453472,169,-0.02319336,-1.2393188,0.20794678
1602703453472,170,-0.017089844,-1.2593384,0.14837646
1602703453473,171,0.09643555,-1.1575317,0.18499756
1602703453473,172,-0.24707031,-1.0239868,-0.08087158
1602703453473,173,-0.017089844,-1.2593384,0.14837646
1602703453475,174,0.1394043,-1.4490356,0.08270264
1602703453475,175,-0.03955078,-1.0869751,0.051940918
1602703453475,176,-0.01171875,-1.0361938,-0.14801025
1602703453476,177,-0.24707031,-1.0239868,-0.08087158
1602703453478,178,-0.052246094,-0.956604,0.014343262
1602703453480,179,-0.03955078,-1.0869751,0.051940918
1602703453480,180,0.0068359375,-0.7432251,0.09222412
1602703453481,181,0.0068359375,-0.7432251,0.09222412
1602703453481,182,-0.010498047,-0.7695923,-0.00592041
1602703453484,183,-0.012451172,-0.7888794,0.14984131
1602703453484,184,-0.012451172,-0.7888794,0.14984131
1602703453485,185,0.034423828,-0.8945923,0.043884277
1602703453487,186,0.09643555,-1.1575317,0.18499756
1602703453488,187,-0.017089844,-1.2593384,0.14837646
1602703453490,188,-0.24707031,-1.0239868,-0.08087158
1602703453491,189,-0.03955078,-1.0869751,0.051940918
1602703453492,190,0.0068359375,-0.7432251,0.09222412
1602703453494,191,-0.012451172,-0.7888794,0.14984131
1602703455850,192,-0.06933594,-1.0942993,0.19110107
1602703455858,193,-0.06933594,-1.0942993,0.19110107
1602703455859,194,-0.06933594,-1.0942993,0.19110107
1602703455860,195,0.095214844,-1.4214478,0.25408936
1602703455861,196,0.095214844,-1.4214478,0.25408936
1602703455865,197,0.095214844,-1.4214478,0.25408936
1602703455866,198,0.10131836,-1.0664673,-0.058410645
1602703455869,199,0.10131836,-1.0664673,-0.058410645
1602703455878,200,-0.067871094,-0.9483032,0.029724121
1602703455880,201,0.10131836,-1.0664673,-0.058410645
1602703455880,202,-0.067871094,-0.9483032,0.029724121
1602703455881,203,-0.067871094,-0.9483032,0.029724121
1602703455881,204,-0.01953125,-0.8569946,0.07147217
1602703455882,205,-0.01953125,-0.8569946,0.07147217
1602703455888,206,-0.01953125,-0.8569946,0.07147217
1602703455888,207,0.10131836,-0.8394165,0.066589355
1602703455889,208,0.10131836,-0.8394165,0.066589355
1602703455896,209,0.030273438,-1.1160278,0.121520996
1602703455908,210,0.030273438,-1.1160278,0.121520996
1602703455908,211,0.10131836,-0.8394165,0.066589355
1602703455908,212,0.091796875,-1.288147,0.16790771
1602703455909,213,0.030273438,-1.1160278,0.121520996
1602703455909,214,0.091796875,-1.288147,0.16790771
1602703455910,215,-0.27514648,-1.0801392,-0.101135254
1602703455910,216,-0.27514648,-1.0801392,-0.101135254
1602703455911,217,0.091796875,-1.288147,0.16790771
1602703455914,218,-0.18725586,-1.0779419,-0.0020141602
1602703455914,219,-0.18725586,-1.0779419,-0.0020141602
1602703455915,220,-0.27514648,-1.0801392,-0.101135254
1602703455917,221,-0.017089844,-0.82159424,0.043151855
1602703455918,222,-0.18725586,-1.0779419,-0.0020141602
1602703455921,223,-0.07421875,-0.788147,0.12371826
1602703455921,224,-0.017089844,-0.82159424,0.043151855
1602703455921,225,-0.017089844,-0.82159424,0.043151855
1602703455923,226,-0.07421875,-0.788147,0.12371826
1602703455927,227,-0.05834961,-0.9446411,0.13226318
1602703455928,228,-0.07421875,-0.788147,0.12371826
1602703455929,229,-0.05834961,-0.9446411,0.13226318
1602703455936,230,-0.05834961,-0.9446411,0.13226318
1602703455936,231,-0.017333984,-1.2788696,0.18548584
1602703455936,232,-0.017333984,-1.2788696,0.18548584
1602703455937,233,0.075927734,-1.312561,0.042663574
1602703455937,234,0.075927734,-1.312561,0.042663574
1602703455938,235,-0.055908203,-0.9570923,-0.10455322
1602703455938,236,-0.017333984,-1.2788696,0.18548584
1602703455939,237,-0.055908203,-0.9570923,-0.10455322
1602703455940,238,-0.0769043,-0.9717407,0.09979248
1602703455948,239,-0.0769043,-0.9717407,0.09979248
1602703455949,240,0.075927734,-1.312561,0.042663574
1602703455949,241,-0.0029296875,-0.8362427,0.04486084
1602703455950,242,-0.055908203,-0.9570923,-0.10455322
1602703455950,243,0.049316406,-0.989563,0.10345459
1602703455950,244,-0.0769043,-0.9717407,0.09979248
1602703455950,245,-0.0029296875,-0.8362427,0.04486084
1602703455951,246,-0.008300781,-1.142395,0.094177246
1602703455954,247,0.049316406,-0.989563,0.10345459
1602703455955,248,-0.0029296875,-0.8362427,0.04486084
1602703455955,249,-0.17993164,-1.2039185,0.04534912
1602703455955,250,-0.008300781,-1.142395,0.094177246
1602703455956,251,0.049316406,-0.989563,0.10345459
1602703455960,252,-0.17993164,-1.2039185,0.04534912
1602703455960,253,-0.19018555,-1.0523071,0.017028809
1602703455961,254,-0.008300781,-1.142395,0.094177246
1602703455962,255,-0.19018555,-1.0523071,0.017028809
1602703455962,256,-0.17993164,-1.2039185,0.04534912
1602703455962,257,0.040527344,-0.913147,0.02166748
1602703455963,258,0.040527344,-0.913147,0.02166748
1602703455966,259,-0.079833984,-0.82110596,0.093688965
1602703455966,260,-0.19018555,-1.0523071,0.017028809
1602703455966,261,-0.079833984,-0.82110596,0.093688965
1602703455967,262,-0.13574219,-1.0088501,0.17694092
1602703455969,263,0.040527344,-0.913147,0.02166748
1602703455969,264,-0.13574219,-1.0088501,0.17694092
1602703455970,265,0.050048828,-1.1309204,0.14300537
1602703455971,266,-0.079833984,-0.82110596,0.093688965
1602703455972,267,0.09887695,-1.2756958,0.04559326
1602703455980,268,-0.13574219,-1.0088501,0.17694092
1602703455981,269,0.050048828,-1.1309204,0.14300537
1602703455981,270,-0.050048828,-0.8804321,-0.03692627
1602703455981,271,0.09887695,-1.2756958,0.04559326
1602703455983,272,-0.0087890625,-1.0923462,0.06317139
1602703455983,273,0.06933594,-0.82037354,0.0045776367
1602703455983,274,0.03173828,-0.9324341,-0.007385254
1602703455983,275,0.111816406,-1.0147095,-0.07476807
1602703455985,276,-0.050048828,-0.8804321,-0.03692627
1602703455985,277,0.050048828,-1.1309204,0.14300537
1602703455986,278,-0.0087890625,-1.0923462,0.06317139
1602703455987,279,0.09887695,-1.2756958,0.04559326
1602703455988,280,0.06933594,-0.82037354,0.0045776367
1602703455989,281,-0.050048828,-0.8804321,-0.03692627
1602703455991,282,0.03173828,-0.9324341,-0.007385254
1602703455992,283,-0.0087890625,-1.0923462,0.06317139
1602703455994,284,0.111816406,-1.0147095,-0.07476807
1602703455996,285,0.06933594,-0.82037354,0.0045776367
1602703455998,286,0.03173828,-0.9324341,-0.007385254
1602703456000,287,0.111816406,-1.0147095,-0.07476807
1602703458446,288,-0.14746094,-1.1270142,-0.11773682
1602703458448,289,0.21972656,-1.2932739,-0.045715332
1602703458450,290,-0.14746094,-1.1270142,-0.11773682
1602703458454,291,0.07543945,-0.96832275,-0.0569458
1602703458455,292,-0.14746094,-1.1270142,-0.11773682
1602703458456,293,0.21972656,-1.2932739,-0.045715332
1602703458460,294,0.010498047,-0.7974243,-0.11016846
1602703458461,295,0.21972656,-1.2932739,-0.045715332
1602703458461,296,0.07543945,-0.96832275,-0.0569458
1602703458463,297,-0.103515625,-0.8584595,-0.094055176
1602703458464,298,0.07543945,-0.96832275,-0.0569458
1602703458469,299,-0.1586914,-0.7319946,-0.11651611
1602703458471,300,0.010498047,-0.7974243,-0.11016846
1602703458471,301,0.010498047,-0.7974243,-0.11016846
1602703458471,302,-0.103515625,-0.8584595,-0.094055176
1602703458476,303,-0.15161133,-0.5786743,-0.5322876
1602703458476,304,-0.103515625,-0.8584595,-0.094055176
1602703458477,305,-0.1586914,-0.7319946,-0.11651611
1602703458477,306,-0.1586914,-0.7319946,-0.11651611
1602703458477,307,-0.15161133,-0.5786743,-0.5322876
1602703458478,308,-0.15161133,-0.5786743,-0.5322876
1602703458479,309,-0.1315918,-1.0317993,-0.4109497
1602703458480,310,-0.1315918,-1.0317993,-0.4109497
1602703458481,311,-0.1315918,-1.0317993,-0.4109497
1602703458482,312,-0.2524414,-0.8882446,-0.4776001
1602703458483,313,-0.2524414,-0.8882446,-0.4776001
1602703458487,314,-0.32861328,-1.1201782,-0.5027466
1602703458487,315,-0.2524414,-0.8882446,-0.4776001
1602703458488,316,-0.32861328,-1.1201782,-0.5027466
1602703458488,317,-0.32861328,-1.1201782,-0.5027466
1602703458488,318,-0.38598633,-1.1187134,-0.53082275
1602703458495,319,-0.38598633,-1.1187134,-0.53082275
1602703458495,320,-0.38598633,-1.1187134,-0.53082275
1602703458495,321,-0.38256836,-1.1123657,-0.49395752
1602703458495,322,-0.38256836,-1.1123657,-0.49395752
1602703458496,323,-0.38256836,-1.1123657,-0.49395752
1602703458496,324,-0.29858398,-1.4006958,-0.39971924
1602703458496,325,-0.29858398,-1.4006958,-0.39971924
1602703458496,326,-0.08105469,-1.2219849,-0.16998291
1602703458501,327,-0.08105469,-1.2219849,-0.16998291
1602703458501,328,0.09326172,-0.72003174,-0.078430176
1602703458501,329,0.09326172,-0.72003174,-0.078430176
1602703458503,330,-0.29858398,-1.4006958,-0.39971924
1602703458504,331,0.13134766,-0.986145,-0.015930176
1602703458504,332,-0.08105469,-1.2219849,-0.16998291
1602703458504,333,0.13134766,-0.986145,-0.015930176
1602703458505,334,0.12670898,-1.1360474,0.11785889
1602703458507,335,0.12670898,-1.1360474,0.11785889
1602703458508,336,0.09326172,-0.72003174,-0.078430176
1602703458508,337,0.119140625,-0.9649048,0.15667725
1602703458510,338,0.119140625,-0.9649048,0.15667725
1602703458511,339,0.13134766,-0.986145,-0.015930176
1602703458511,340,0.0925293,-1.0125122,0.19110107
1602703458516,341,0.0925293,-1.0125122,0.19110107
1602703458517,342,0.12670898,-1.1360474,0.11785889
1602703458517,343,0.0847168,-0.99884033,0.19476318
1602703458517,344,0.119140625,-0.9649048,0.15667725
1602703458518,345,-0.0024414062,-0.986145,0.17767334
1602703458518,346,0.0847168,-0.99884033,0.19476318
1602703458518,347,0.0925293,-1.0125122,0.19110107
1602703458518,348,-0.030517578,-0.99346924,0.14910889
1602703458530,349,-0.0024414062,-0.986145,0.17767334
1602703458531,350,0.0847168,-0.99884033,0.19476318
1602703458531,351,-0.08081055,-1.0496216,0.1720581
1602703458531,352,-0.030517578,-0.99346924,0.14910889
1602703458532,353,0.0053710938,-0.9968872,0.11199951
1602703458533,354,-0.0024414062,-0.986145,0.17767334
1602703458533,355,-0.08081055,-1.0496216,0.1720581
1602703458533,356,-0.06738281,-0.99713135,0.047302246
1602703458533,357,-0.030517578,-0.99346924,0.14910889
1602703458533,358,0.0053710938,-0.9968872,0.11199951
1602703458534,359,-0.09423828,-1.0115356,-0.1375122
1602703458534,360,-0.08081055,-1.0496216,0.1720581
1602703458534,361,-0.06738281,-0.99713135,0.047302246
1602703458534,362,-0.16210938,-1.2717896,-0.39801025
1602703458534,363,0.0053710938,-0.9968872,0.11199951
1602703458535,364,-0.09423828,-1.0115356,-0.1375122
1602703458535,365,-0.22607422,-1.2503052,-0.5366821
1602703458535,366,-0.16210938,-1.2717896,-0.39801025
1602703458535,367,-0.06738281,-0.99713135,0.047302246
1602703458536,368,-0.22607422,-1.2503052,-0.5366821
1602703458536,369,-0.09423828,-1.0115356,-0.1375122
1602703458539,370,-0.25390625,-1.2676392,-0.5317993
1602703458540,371,-0.25390625,-1.2676392,-0.5317993
1602703458540,372,-0.20727539,-1.217102,-0.48590088
1602703458541,373,-0.16210938,-1.2717896,-0.39801025
1602703458542,374,-0.18530273,-1.107727,-0.40802002
1602703458544,375,-0.22607422,-1.2503052,-0.5366821
1602703458545,376,-0.28076172,-0.8328247,-0.29278564
1602703458548,377,-0.25390625,-1.2676392,-0.5317993
1602703458548,378,-0.20727539,-1.217102,-0.48590088
1602703458550,379,-0.20727539,-1.217102,-0.48590088
1602703458551,380,-0.18530273,-1.107727,-0.40802002
1602703458552,381,-0.18530273,-1.107727,-0.40802002
1602703458554,382,-0.28076172,-0.8328247,-0.29278564
1602703458555,383,-0.28076172,-0.8328247,-0.29278564
1602703460945,384,-0.30419922,-0.52789307,-0.3015747
1602703460950,385,-0.30419922,-0.52789307,-0.3015747
1602703460951,386,-0.39770508,-0.72857666,-0.19342041
1602703460951,387,-0.30419922,-0.52789307,-0.3015747
1602703460956,388,-0.39770508,-0.72857666,-0.19342041
1602703460956,389,-0.37158203,-0.76568604,-0.12213135
1602703460957,390,-0.39770508,-0.72857666,-0.19342041
1602703460958,391,-0.37158203,-0.76568604,-0.12213135
1602703460962,392,-0.32421875,-0.803772,-0.070373535
1602703460962,393,-0.37158203,-0.76568604,-0.12213135
1602703460962,394,-0.32421875,-0.803772,-0.070373535
1602703460962,395,-0.32421875,-0.803772,-0.070373535
1602703460964,396,-0.24047852,-0.8850708,0.04095459
1602703460965,397,-0.24047852,-0.8850708,0.04095459
1602703460965,398,-0.24047852,-0.8850708,0.04095459
1602703460968,399,-0.26708984,-1.0701294,0.06732178
1602703460968,400,-0.26708984,-1.0701294,0.06732178
1602703460969,401,-0.26708984,-1.0701294,0.06732178
1602703460969,402,-0.17456055,-1.4085083,-0.112854004
1602703460975,403,-0.17456055,-1.4085083,-0.112854004
1602703460975,404,-0.17456055,-1.4085083,-0.112854004
1602703460975,405,0.00390625,-0.9602661,-0.18927002
1602703460976,406,0.00390625,-0.9602661,-0.18927002
1602703460976,407,0.00390625,-0.9602661,-0.18927002
1602703460976,408,-0.048583984,-0.8989868,-0.13531494
1602703460976,409,-0.048583984,-0.8989868,-0.13531494
1602703460977,410,-0.048583984,-0.8989868,-0.13531494
1602703460978,411,-0.0036621094,-0.94195557,-0.04937744
1602703460981,412,-0.0036621094,-0.94195557,-0.04937744
1602703460981,413,-0.0036621094,-0.94195557,-0.04937744
1602703460982,414,0.052246094,-0.9380493,0.062438965
1602703460982,415,0.052246094,-0.9380493,0.062438965
1602703460983,416,0.052246094,-0.9380493,0.062438965
1602703460986,417,-0.020751953,-0.96466064,-0.0068969727
1602703460986,418,-0.020751953,-0.96466064,-0.0068969727
1602703460987,419,-0.020751953,-0.96466064,-0.0068969727
1602703460987,420,-0.018310547,-1.2442017,0.047790527
1602703460989,421,-0.018310547,-1.2442017,0.047790527
1602703460990,422,-0.41137695,-1.229065,-0.06890869
1602703460990,423,-0.41137695,-1.229065,-0.06890869
1602703460994,424,-0.1027832,-0.8892212,-0.14312744
1602703460994,425,-0.018310547,-1.2442017,0.047790527
1602703460995,426,-0.1027832,-0.8892212,-0.14312744
1602703460995,427,-0.41137695,-1.229065,-0.06890869
1602703460996,428,-0.040771484,-0.87164307,-0.04473877
1602703460996,429,-0.040771484,-0.87164307,-0.04473877
1602703460997,430,-0.1027832,-0.8892212,-0.14312744
1602703460998,431,-0.12084961,-0.89068604,0.09637451
1602703460999,432,-0.12084961,-0.89068604,0.09637451
1602703461000,433,-0.123046875,-1.0032349,0.14154053
1602703461001,434,-0.123046875,-1.0032349,0.14154053
1602703461005,435,0.010498047,-1.2649536,0.06976318
1602703461005,436,-0.040771484,-0.87164307,-0.04473877
1602703461006,437,0.010498047,-1.2649536,0.06976318
1602703461006,438,-0.12084961,-0.89068604,0.09637451
1602703461006,439,-0.053466797,-1.2559204,-0.05230713
1602703461006,440,-0.123046875,-1.0032349,0.14154053
1602703461008,441,-0.053466797,-1.2559204,-0.05230713
1602703461009,442,-0.09350586,-0.9644165,-0.11212158
1602703461009,443,0.010498047,-1.2649536,0.06976318
1602703461013,444,-0.09350586,-0.9644165,-0.11212158
1602703461013,445,-0.07397461,-0.97052,-0.0064086914
1602703461013,446,-0.053466797,-1.2559204,-0.05230713
1602703461016,447,-0.07397461,-0.97052,-0.0064086914
1602703461016,448,0.03564453,-0.90411377,0.012634277
1602703461016,449,-0.09350586,-0.9644165,-0.11212158
1602703461018,450,0.03564453,-0.90411377,0.012634277
1602703461019,451,0.04711914,-0.9326782,0.06536865
1602703461019,452,-0.07397461,-0.97052,-0.0064086914
1602703461020,453,0.04711914,-0.9326782,0.06536865
1602703461022,454,0.03564453,-0.90411377,0.012634277
1602703461022,455,0.057861328,-1.1194458,0.12591553
1602703461022,456,0.057861328,-1.1194458,0.12591553
1602703461023,457,0.04711914,-0.9326782,0.06536865
1602703461025,458,-0.13305664,-1.2959595,0.002380371
1602703461026,459,0.057861328,-1.1194458,0.12591553
1602703461027,460,-0.33251953,-0.9446411,-0.12799072
1602703461032,461,-0.13305664,-1.2959595,0.002380371
1602703461032,462,-0.13305664,-1.2959595,0.002380371
1602703461032,463,0.043945312,-1.0349731,-0.06866455
1602703461033,464,-0.33251953,-0.9446411,-0.12799072
1602703461033,465,-0.33251953,-0.9446411,-0.12799072
1602703461033,466,0.009033203,-0.9011841,-0.0115356445
1602703461034,467,0.043945312,-1.0349731,-0.06866455
1602703461034,468,0.043945312,-1.0349731,-0.06866455
1602703461035,469,-0.064208984,-0.9126587,0.09637451
1602703461036,470,0.009033203,-0.9011841,-0.0115356445
1602703461039,471,-0.009521484,-0.9553833,0.09686279
1602703461039,472,0.009033203,-0.9011841,-0.0115356445
1602703461039,473,-0.064208984,-0.9126587,0.09637451
1602703461043,474,-0.009521484,-0.9553833,0.09686279
1602703461043,475,-0.064208984,-0.9126587,0.09637451
1602703461043,476,0.16772461,-1.232727,-0.10992432
1602703461045,477,0.16772461,-1.232727,-0.10992432
1602703461045,478,-0.009521484,-0.9553833,0.09686279
1602703461048,479,0.16772461,-1.232727,-0.10992432
1602703463446,480,-0.007080078,-1.0281372,-0.11431885
1602703463451,481,-0.007080078,-1.0281372,-0.11431885
1602703463454,482,-0.007080078,-1.0281372,-0.11431885
1602703463454,483,0.07421875,-1.1519165,-0.18096924
1602703463456,484,0.07421875,-1.1519165,-0.18096924
1602703463464,485,0.12915039,-1.0003052,-0.12237549
1602703463465,486,0.12915039,-1.0003052,-0.12237549
1602703463465,487,0.07421875,-1.1519165,-0.18096924
1602703463466,488,0.10546875,-0.80841064,-0.25982666
1602703463467,489,0.12915039,-1.0003052,-0.12237549
1602703463468,490,0.10546875,-0.80841064,-0.25982666
1602703463469,491,0.072753906,-0.78863525,-0.30426025
1602703463471,492,0.072753906,-0.78863525,-0.30426025
1602703463471,493,-0.015625,-0.95147705,-0.24493408
1602703463473,494,0.10546875,-0.80841064,-0.25982666
1602703463473,495,-0.015625,-0.95147705,-0.24493408
1602703463474,496,-0.041992188,-0.9680786,-0.2588501
1602703463475,497,0.072753906,-0.78863525,-0.30426025
1602703463477,498,-0.15161133,-0.6987915,-0.23760986
1602703463481,499,-0.015625,-0.95147705,-0.24493408
1602703463481,500,-0.041992188,-0.9680786,-0.2588501
1602703463481,501,-0.18457031,-0.60528564,-0.38116455
1602703463481,502,-0.041992188,-0.9680786,-0.2588501
1602703463483,503,-0.15161133,-0.6987915,-0.23760986
1602703463486,504,-0.15161133,-0.6987915,-0.23760986
1602703463486,505,-0.12011719,-0.76397705,-0.4360962
1602703463487,506,-0.18457031,-0.60528564,-0.38116455
1602703463489,507,-0.18457031,-0.60528564,-0.38116455
1602703463490,508,-0.12011719,-0.76397705,-0.4360962
1602703463491,509,-0.12011719,-0.76397705,-0.4360962
1602703463496,510,-0.0871582,-0.9319458,-0.4685669
1602703463497,511,-0.0871582,-0.9319458,-0.4685669
1602703463497,512,-0.0871582,-0.9319458,-0.4685669
1602703463498,513,-0.19555664,-0.9636841,-0.5105591
1602703463498,514,-0.19555664,-0.9636841,-0.5105591
1602703463501,515,-0.19555664,-0.9636841,-0.5105591
1602703463501,516,-0.13427734,-1.0527954,-0.49713135
1602703463502,517,-0.13427734,-1.0527954,-0.49713135
1602703463505,518,-0.13427734,-1.0527954,-0.49713135
1602703463505,519,-0.23046875,-1.5903931,-0.2185669
1602703463505,520,-0.23046875,-1.5903931,-0.2185669
1602703463511,521,-0.011230469,-1.8652954,-0.07232666
1602703463511,522,-0.23046875,-1.5903931,-0.2185669
1602703463512,523,-0.011230469,-1.8652954,-0.07232666
1602703463512,524,-0.011230469,-1.8652954,-0.07232666
1602703463513,525,0.109375,-1.2493286,0.23724365
1602703463513,526,0.109375,-1.2493286,0.23724365
1602703463516,527,0.109375,-1.2493286,0.23724365
1602703463517,528,0.07324219,-0.57891846,0.21160889
1602703463517,529,0.07324219,-0.57891846,0.21160889
1602703463523,530,0.11328125,-0.66241455,0.35321045
1602703463523,531,0.07324219,-0.57891846,0.21160889
1602703463524,532,0.11328125,-0.66241455,0.35321045
1602703463524,533,0.13061523,-0.9307251,0.6161499
1602703463524,534,0.13061523,-0.9307251,0.6161499
1602703463525,535,0.11328125,-0.66241455,0.35321045
1602703463525,536,0.1796875,-1.0352173,0.763855
1602703463530,537,0.1796875,-1.0352173,0.763855
1602703463530,538,0.13061523,-0.9307251,0.6161499
1602703463530,539,0.09790039,-0.8682251,0.5934448
1602703463531,540,0.1796875,-1.0352173,0.763855
1602703463531,541,0.09790039,-0.8682251,0.5934448
1602703463533,542,0.05493164,-0.8128052,0.34466553
1602703463535,543,0.05493164,-0.8128052,0.34466553
1602703463536,544,0.09790039,-0.8682251,0.5934448
1602703463537,545,0.05102539,-0.8284302,0.31195068
1602703463540,546,0.05493164,-0.8128052,0.34466553
1602703463541,547,0.05102539,-0.8284302,0.31195068
1602703463541,548,0.11328125,-0.8032837,0.41693115
1602703463543,549,0.05102539,-0.8284302,0.31195068
1602703463546,550,0.1459961,-0.89312744,0.6466675
1602703463546,551,0.11328125,-0.8032837,0.41693115
1602703463547,552,0.16186523,-0.8328247,0.59490967
1602703463550,553,0.11328125,-0.8032837,0.41693115
1602703463550,554,0.1459961,-0.89312744,0.6466675
1602703463551,555,0.1459961,-0.89312744,0.6466675
1602703463554,556,0.16186523,-0.8328247,0.59490967
1602703463554,557,0.039794922,-0.9390259,0.5062866
1602703463555,558,0.039794922,-0.9390259,0.5062866
1602703463556,559,0.060791016,-0.8440552,0.43670654
1602703463561,560,0.060791016,-0.8440552,0.43670654
1602703463562,561,0.16186523,-0.8328247,0.59490967
1602703463562,562,4.8828125E-4,-0.8538208,0.49749756
1602703463562,563,4.8828125E-4,-0.8538208,0.49749756
1602703463563,564,0.04345703,-0.8250122,0.62054443
1602703463563,565,0.039794922,-0.9390259,0.5062866
1602703463565,566,0.04345703,-0.8250122,0.62054443
1602703463566,567,0.060791016,-0.8440552,0.43670654
1602703463567,568,0.02709961,-0.83258057,0.5187378
1602703463569,569,4.8828125E-4,-0.8538208,0.49749756
1602703463570,570,-0.015625,-0.85894775,0.46551514
1602703463574,571,0.02709961,-0.83258057,0.5187378
1602703463575,572,0.04345703,-0.8250122,0.62054443
1602703463575,573,-0.015625,-0.85894775,0.46551514
1602703463578,574,0.02709961,-0.83258057,0.5187378
1602703463580,575,-0.015625,-0.85894775,0.46551514
1602703466046,576,-0.09448242,-0.97784424,0.45306396
1602703466055,577,-0.011474609,-0.9417114,0.38079834
1602703466056,578,-0.09448242,-0.97784424,0.45306396
1602703466056,579,-0.09448242,-0.97784424,0.45306396
1602703466056,580,-0.16088867,-0.944397,0.30194092
1602703466057,581,-0.011474609,-0.9417114,0.38079834
1602703466058,582,-0.16577148,-1.0042114,0.22113037
1602703466058,583,-0.16088867,-0.944397,0.30194092
1602703466059,584,-0.2355957,-1.0144653,0.19866943
1602703466066,585,-0.16577148,-1.0042114,0.22113037
1602703466066,586,-0.011474609,-0.9417114,0.38079834
1602703466067,587,-0.32104492,-0.9631958,0.23968506
1602703466068,588,-0.16088867,-0.944397,0.30194092
1602703466068,589,-0.40966797,-0.89630127,0.19451904
1602703466068,590,-0.2355957,-1.0144653,0.19866943
1602703466069,591,-0.16577148,-1.0042114,0.22113037
1602703466071,592,-0.48095703,-0.88287354,0.24285889
1602703466073,593,-0.2355957,-1.0144653,0.19866943
1602703466078,594,-0.4645996,-0.8386841,0.27215576
1602703466078,595,-0.32104492,-0.9631958,0.23968506
1602703466078,596,-0.3942871,-0.7424927,0.24920654
1602703466079,597,-0.32104492,-0.9631958,0.23968506
1602703466081,598,-0.40966797,-0.89630127,0.19451904
1602703466083,599,-0.46362305,-0.78863525,0.37493896
1602703466084,600,-0.48095703,-0.88287354,0.24285889
1602703466088,601,-0.4650879,-0.57598877,0.5014038
1602703466089,602,-0.40966797,-0.89630127,0.19451904
1602703466090,603,-0.4645996,-0.8386841,0.27215576
1602703466094,604,-0.40942383,-0.5808716,0.6918335
1602703466095,605,-0.48095703,-0.88287354,0.24285889
1602703466095,606,-0.3942871,-0.7424927,0.24920654
1602703466096,607,-0.24169922,-0.4163208,0.8414917
1602703466104,608,-0.4645996,-0.8386841,0.27215576
1602703466105,609,-0.46362305,-0.78863525,0.37493896
1602703466105,610,-0.54956055,-0.026184082,1.017273
1602703466106,611,-0.4650879,-0.57598877,0.5014038
1602703466106,612,-0.3942871,-0.7424927,0.24920654
1602703466107,613,-0.42773438,0.13006592,1.1547241
1602703466112,614,-0.40942383,-0.5808716,0.6918335
1602703466113,615,-0.46362305,-0.78863525,0.37493896
1602703466114,616,-0.39038086,0.06951904,0.9100952
1602703466115,617,-0.24169922,-0.4163208,0.8414917
1602703466115,618,-0.4650879,-0.57598877,0.5014038
1602703466116,619,-0.18969727,0.035339355,0.8517456
1602703466120,620,-0.19335938,0.11053467,0.93133545
1602703466121,621,-0.40942383,-0.5808716,0.6918335
1602703466121,622,-0.54956055,-0.026184082,1.017273
1602703466123,623,0.04711914,0.11004639,0.8612671
1602703466126,624,-0.42773438,0.13006592,1.1547241
1602703466127,625,-0.24169922,-0.4163208,0.8414917
1602703466127,626,0.20825195,0.08294678,0.8915405
1602703466129,627,-0.39038086,0.06951904,0.9100952
1602703466138,628,0.21875,0.3624878,0.99432373
1602703466138,629,-0.54956055,-0.026184082,1.017273
1602703466139,630,0.008544922,0.4015503,0.6010132
1602703466139,631,-0.18969727,0.035339355,0.8517456
1602703466140,632,0.31689453,-0.3352661,0.670105
1602703466140,633,-0.42773438,0.13006592,1.1547241
1602703466141,634,-0.19335938,0.11053467,0.93133545
1602703466141,635,-0.39038086,0.06951904,0.9100952
1602703466141,636,0.84033203,-0.5654907,1.074646
1602703466143,637,0.04711914,0.11004639,0.8612671
1602703466144,638,0.56225586,-0.19146729,0.9398804
1602703466146,639,0.20825195,0.08294678,0.8915405
1602703466152,640,0.25854492,0.24456787,0.8175659
1602703466152,641,-0.18969727,0.035339355,0.8517456
1602703466152,642,0.21875,0.3624878,0.99432373
1602703466153,643,-0.19335938,0.11053467,0.93133545
1602703466153,644,0.008544922,0.4015503,0.6010132
1602703466154,645,0.064208984,0.00970459,0.7094116
1602703466157,646,0.04711914,0.11004639,0.8612671
1602703466158,647,0.31689453,-0.3352661,0.670105
1602703466158,648,0.34228516,-0.012023926,0.95770264
1602703466162,649,0.20825195,0.08294678,0.8915405
1602703466163,650,0.84033203,-0.5654907,1.074646
1602703466163,651,0.41674805,-0.004211426,1.0275269
1602703466163,652,0.56225586,-0.19146729,0.9398804
1602703466164,653,0.21875,0.3624878,0.99432373
1602703466166,654,0.27075195,0.02166748,0.8673706
1602703466167,655,0.008544922,0.4015503,0.6010132
1602703466169,656,0.23657227,0.014099121,0.80682373
1602703466174,657,0.25854492,0.24456787,0.8175659
1602703466174,658,0.31689453,-0.3352661,0.670105
1602703466176,659,0.064208984,0.00970459,0.7094116
1602703466177,660,0.84033203,-0.5654907,1.074646
1602703466180,661,0.34228516,-0.012023926,0.95770264
1602703466183,662,0.56225586,-0.19146729,0.9398804
1602703466186,663,0.41674805,-0.004211426,1.0275269
1602703466186,664,0.25854492,0.24456787,0.8175659
1602703466187,665,0.27075195,0.02166748,0.8673706
1602703466187,666,0.064208984,0.00970459,0.7094116
1602703466189,667,0.23657227,0.014099121,0.80682373
1602703466192,668,0.34228516,-0.012023926,0.95770264
1602703466194,669,0.41674805,-0.004211426,1.0275269
1602703466196,670,0.27075195,0.02166748,0.8673706
1602703466198,671,0.23657227,0.014099121,0.80682373
1602703468546,672,0.19995117,0.0692749,0.8954468
1602703468547,673,0.19995117,0.0692749,0.8954468
1602703468547,674,0.19995117,0.0692749,0.8954468
1602703468551,675,0.2915039,0.010437012,0.94818115
1602703468551,676,0.2915039,0.010437012,0.94818115
1602703468551,677,0.2915039,0.010437012,0.94818115
1602703468553,678,0.29589844,-0.05279541,0.916687
1602703468569,679,0.29589844,-0.05279541,0.916687
1602703468569,680,0.29589844,-0.05279541,0.916687
1602703468569,681,0.30932617,0.0138549805,0.855896
1602703468569,682,0.32128906,0.018005371,0.89837646
1602703468570,683,0.30932617,0.0138549805,0.855896
1602703468570,684,0.32128906,0.018005371,0.89837646
1602703468570,685,0.21264648,-0.043273926,0.90838623
1602703468571,686,0.30932617,0.0138549805,0.855896
1602703468571,687,0.3125,0.101989746,0.8900757
1602703468572,688,0.21264648,-0.043273926,0.90838623
1602703468573,689,0.31079102,0.022399902,0.8812866
1602703468573,690,0.32128906,0.018005371,0.89837646
1602703468574,691,0.3125,0.101989746,0.8900757
1602703468575,692,0.20751953,0.0138549805,0.8878784
1602703468584,693,0.31079102,0.022399902,0.8812866
1602703468584,694,0.20751953,0.0138549805,0.8878784
1602703468584,695,0.27490234,-0.0115356445,0.9003296
1602703468585,696,0.2878418,0.028503418,0.9093628
1602703468585,697,0.27490234,-0.0115356445,0.9003296
1602703468590,698,0.21264648,-0.043273926,0.90838623
1602703468590,699,0.2770996,0.028015137,0.8932495
1602703468591,700,0.2878418,0.028503418,0.9093628
1602703468591,701,0.2680664,0.029968262,0.8866577
1602703468591,702,0.2770996,0.028015137,0.8932495
1602703468592,703,0.26953125,0.0099487305,0.9088745
1602703468595,704,0.2680664,0.029968262,0.8866577
1602703468595,705,0.3125,0.101989746,0.8900757
1602703468595,706,0.26953125,0.0099487305,0.9088745
1602703468597,707,0.25048828,0.016540527,0.90301514
1602703468598,708,0.25048828,0.016540527,0.90301514
1602703468600,709,0.25854492,0.0119018555,0.8981323
1602703468600,710,0.31079102,0.022399902,0.8812866
1602703468600,711,0.25854492,0.0119018555,0.8981323
1602703468602,712,0.25854492,0.024353027,0.9008179
1602703468604,713,0.25854492,0.024353027,0.9008179
1602703468604,714,0.20751953,0.0138549805,0.8878784
1602703468604,715,0.2446289,0.0099487305,0.90740967
1602703468608,716,0.2446289,0.0099487305,0.90740967
1602703468608,717,0.27490234,-0.0115356445,0.9003296
1602703468609,718,0.25952148,0.011657715,0.9003296
1602703468612,719,0.25952148,0.011657715,0.9003296
1602703468612,720,0.2878418,0.028503418,0.9093628
1602703468615,721,0.2770996,0.028015137,0.8932495
1602703468619,722,0.2680664,0.029968262,0.8866577
1602703468619,723,0.26391602,0.0053100586,0.8942261
1602703468619,724,0.26391602,0.0053100586,0.8942261
1602703468620,725,0.26123047,0.018737793,0.9059448
1602703468622,726,0.26123047,0.018737793,0.9059448
1602703468624,727,0.25341797,-3.0517578E-4,0.9059448
1602703468624,728,0.26953125,0.0099487305,0.9088745
1602703468624,729,0.25341797,-3.0517578E-4,0.9059448
1602703468627,730,0.2680664,0.011413574,0.89715576
1602703468627,731,0.25048828,0.016540527,0.90301514
1602703468627,732,0.2680664,0.011413574,0.89715576
1602703468628,733,0.2578125,0.0021362305,0.90618896
1602703468630,734,0.2578125,0.0021362305,0.90618896
1602703468631,735,0.26831055,0.008728027,0.90008545
1602703468632,736,0.26831055,0.008728027,0.90008545
1602703468635,737,0.26391602,0.0033569336,0.8978882
1602703468636,738,0.25854492,0.0119018555,0.8981323
1602703468636,739,0.26391602,0.0033569336,0.8978882
1602703468636,740,0.25854492,0.024353027,0.9008179
1602703468637,741,0.2697754,-0.0056762695,0.89642334
1602703468638,742,0.2697754,-0.0056762695,0.89642334
1602703468640,743,0.27124023,0.03363037,0.8973999
1602703468641,744,0.2446289,0.0099487305,0.90740967
1602703468641,745,0.27124023,0.03363037,0.8973999
1602703468642,746,0.2668457,-0.020568848,0.90252686
1602703468645,747,0.2668457,-0.020568848,0.90252686
1602703468647,748,0.26611328,-0.003479004,0.8991089
1602703468648,749,0.26611328,-0.003479004,0.8991089
1602703468649,750,0.25952148,0.011657715,0.9003296
1602703468654,751,0.27172852,0.014343262,0.8949585
1602703468654,752,0.27172852,0.014343262,0.8949585
1602703468654,753,0.26391602,0.0053100586,0.8942261
1602703468655,754,0.26245117,1.8310547E-4,0.8978882
1602703468655,755,0.26245117,1.8310547E-4,0.8978882
1602703468655,756,0.26123047,0.018737793,0.9059448
1602703468655,757,0.25341797,-3.0517578E-4,0.9059448
1602703468657,758,0.2680664,0.011413574,0.89715576
1602703468660,759,0.2578125,0.0021362305,0.90618896
1602703468662,760,0.26831055,0.008728027,0.90008545
1602703468667,761,0.26391602,0.0033569336,0.8978882
1602703468667,762,0.2697754,-0.0056762695,0.89642334
1602703468667,763,0.27124023,0.03363037,0.8973999
1602703468667,764,0.2668457,-0.020568848,0.90252686
1602703468667,765,0.26611328,-0.003479004,0.8991089
1602703468669,766,0.27172852,0.014343262,0.8949585
1602703468672,767,0.26245117,1.8310547E-4,0.8978882
1602703471051,768,0.2607422,-7.9345703E-4,0.9052124
1602703471052,769,0.2607422,-7.9345703E-4,0.9052124
1602703471053,770,0.2607422,-7.9345703E-4,0.9052124
1602703471053,771,0.24267578,0.005065918,0.9176636
1602703471053,772,0.24267578,0.005065918,0.9176636
1602703471054,773,0.24267578,0.005065918,0.9176636
1602703471054,774,0.3232422,-0.007385254,0.86273193
1602703471056,775,0.3232422,-0.007385254,0.86273193
1602703471059,776,0.2607422,-0.0032348633,0.9093628
1602703471060,777,0.3232422,-0.007385254,0.86273193
1602703471060,778,0.2607422,-0.0032348633,0.9093628
1602703471063,779,0.2763672,0.0016479492,0.887146
1602703471066,780,0.2763672,0.0016479492,0.887146
1602703471067,781,0.2607422,-0.0032348633,0.9093628
1602703471067,782,0.21362305,0.0038452148,0.902771
1602703471072,783,0.21362305,0.0038452148,0.902771
1602703471073,784,0.2763672,0.0016479492,0.887146
1602703471073,785,0.18945312,0.0289917,0.94744873
1602703471074,786,0.18945312,0.0289917,0.94744873
1602703471079,787,0.21362305,0.0038452148,0.902771
1602703471080,788,0.38061523,0.10321045,0.8270874
1602703471080,789,0.38061523,0.10321045,0.8270874
1602703471080,790,0.18945312,0.0289917,0.94744873
1602703471082,791,0.19824219,-0.06329346,0.9244995
1602703471084,792,0.38061523,0.10321045,0.8270874
1602703471086,793,0.15576172,0.027282715,0.8612671
1602703471091,794,0.19824219,-0.06329346,0.9244995
1602703471092,795,0.19824219,-0.06329346,0.9244995
1602703471093,796,-0.0925293,0.09490967,0.8578491
1602703471094,797,0.15576172,0.027282715,0.8612671
1602703471095,798,0.15576172,0.027282715,0.8612671
1602703471101,799,0.08154297,0.09466553,1.0228882
1602703471102,800,-0.0925293,0.09490967,0.8578491
1602703471102,801,-0.0925293,0.09490967,0.8578491
1602703471102,802,0.08154297,0.09466553,1.0228882
1602703471103,803,0.08154297,0.09466553,1.0228882
1602703471103,804,0.19970703,-0.101135254,1.104187
1602703471105,805,0.19970703,-0.101135254,1.104187
1602703471107,806,0.14477539,-0.04156494,1.0824585
1602703471124,807,0.19970703,-0.101135254,1.104187
1602703471124,808,0.14477539,-0.04156494,1.0824585
1602703471124,809,0.010498047,-0.19293213,1.0101929
1602703471125,810,0.14477539,-0.04156494,1.0824585
1602703471125,811,0.0690918,-0.3213501,1.1676636
1602703471126,812,0.010498047,-0.19293213,1.0101929
1602703471127,813,-0.27124023,-0.36895752,0.8925171
1602703471127,814,0.010498047,-0.19293213,1.0101929
1602703471128,815,-0.25317383,-0.5420532,0.64471436
1602703471128,816,0.0690918,-0.3213501,1.1676636
1602703471129,817,-0.12817383,-0.67071533,0.4472046
1602703471129,818,0.0690918,-0.3213501,1.1676636
1602703471129,819,-0.27124023,-0.36895752,0.8925171
1602703471130,820,-0.095458984,-0.6983032,0.38323975
1602703471135,821,-0.25317383,-0.5420532,0.64471436
1602703471136,822,-0.12817383,-0.67071533,0.4472046
1602703471138,823,-0.27124023,-0.36895752,0.8925171
1602703471138,824,-0.095458984,-0.6983032,0.38323975
1602703471142,825,-0.25317383,-0.5420532,0.64471436
1602703471142,826,-0.061279297,-0.9331665,0.40496826
1602703471142,827,-0.061279297,-0.9331665,0.40496826
1602703471147,828,-0.12817383,-0.67071533,0.4472046
1602703471148,829,-0.15478516,-1.0696411,0.31341553
1602703471148,830,-0.095458984,-0.6983032,0.38323975
1602703471149,831,-0.12084961,-0.98565674,0.27215576
1602703471149,832,-0.061279297,-0.9331665,0.40496826
1602703471149,833,-0.15478516,-1.0696411,0.31341553
1602703471149,834,-0.09301758,-0.9924927,0.08660889
1602703471155,835,-0.12084961,-0.98565674,0.27215576
1602703471155,836,-0.15478516,-1.0696411,0.31341553
1602703471155,837,-0.09667969,-0.9627075,-0.06304932
1602703471156,838,-0.09301758,-0.9924927,0.08660889
1602703471156,839,-0.09667969,-0.9627075,-0.06304932
1602703471157,840,-0.14013672,-0.9421997,-0.17437744
1602703471160,841,-0.17944336,-0.9595337,-0.16973877
1602703471160,842,-0.14013672,-0.9421997,-0.17437744
1602703471161,843,-0.12084961,-0.98565674,0.27215576
1602703471161,844,-0.23291016,-0.973938,-0.23858643
1602703471167,845,-0.17944336,-0.9595337,-0.16973877
1602703471168,846,-0.09301758,-0.9924927,0.08660889
1602703471168,847,-0.2709961,-1.0264282,-0.32476807
1602703471169,848,-0.09667969,-0.9627075,-0.06304932
1602703471170,849,-0.23291016,-0.973938,-0.23858643
1602703471170,850,-0.1862793,-1.0252075,-0.7017212
1602703471170,851,-0.2709961,-1.0264282,-0.32476807
1602703471171,852,-0.14013672,-0.9421997,-0.17437744
1602703471174,853,-0.35595703,-1.0601196,-1.0427856
1602703471174,854,-0.1862793,-1.0252075,-0.7017212
1602703471174,855,-0.17944336,-0.9595337,-0.16973877
1602703471176,856,-0.24804688,-1.0747681,-0.97076416
1602703471177,857,-0.35595703,-1.0601196,-1.0427856
1602703471177,858,-0.23291016,-0.973938,-0.23858643
1602703471180,859,-0.24804688,-1.0747681,-0.97076416
1602703471180,860,-0.2709961,-1.0264282,-0.32476807
1602703471182,861,-0.1862793,-1.0252075,-0.7017212
1602703471184,862,-0.35595703,-1.0601196,-1.0427856
1602703471186,863,-0.24804688,-1.0747681,-0.97076416
1602703473644,864,-0.20922852,-1.0286255,-0.8760376
1602703473647,865,-0.20922852,-1.0286255,-0.8760376
1602703473647,866,-0.18579102,-1.0552368,-0.72735596
1602703473648,867,-0.20922852,-1.0286255,-0.8760376
1602703473650,868,-0.18579102,-1.0552368,-0.72735596
1602703473653,869,-0.18579102,-1.0552368,-0.72735596
1602703473654,870,-0.1550293,-1.0281372,-0.58673096
1602703473654,871,-0.1550293,-1.0281372,-0.58673096
1602703473655,872,-0.1550293,-1.0281372,-0.58673096
1602703473658,873,-0.09399414,-0.895813,-0.37799072
1602703473659,874,-0.09399414,-0.895813,-0.37799072
1602703473661,875,0.0043945312,-0.5515747,-0.32086182
1602703473661,876,0.0043945312,-0.5515747,-0.32086182
1602703473666,877,-0.09399414,-0.895813,-0.37799072
1602703473666,878,0.10620117,-0.45489502,-0.18267822
1602703473666,879,0.10620117,-0.45489502,-0.18267822
1602703473666,880,0.0043945312,-0.5515747,-0.32086182
1602703473667,881,0.080566406,-0.6043091,-0.117004395
1602703473669,882,0.080566406,-0.6043091,-0.117004395
1602703473671,883,0.07055664,-0.96588135,-0.035705566
1602703473672,884,0.10620117,-0.45489502,-0.18267822
1602703473672,885,0.07055664,-0.96588135,-0.035705566
1602703473677,886,0.3227539,-0.9937134,0.032409668
1602703473677,887,0.080566406,-0.6043091,-0.117004395
1602703473678,888,0.3227539,-0.9937134,0.032409668
1602703473678,889,0.107421875,-1.045227,-0.1104126
1602703473683,890,0.07055664,-0.96588135,-0.035705566
1602703473684,891,0.107421875,-1.045227,-0.1104126
1602703473684,892,-0.328125,-1.335022,0.014343262
1602703473685,893,-0.328125,-1.335022,0.014343262
1602703473685,894,0.3227539,-0.9937134,0.032409668
1602703473689,895,-0.18017578,-1.0120239,0.0680542
1602703473689,896,-0.18017578,-1.0120239,0.0680542
1602703473689,897,0.107421875,-1.045227,-0.1104126
1602703473690,898,-0.21655273,-0.78912354,0.0770874
1602703473691,899,-0.328125,-1.335022,0.014343262
1602703473694,900,-0.18017578,-1.0120239,0.0680542
1602703473698,901,-0.21655273,-0.78912354,0.0770874
1602703473698,902,-0.21655273,-0.78912354,0.0770874
1602703473699,903,-0.14233398,-0.7583618,0.09686279
1602703473699,904,-0.14233398,-0.7583618,0.09686279
1602703473704,905,-0.14233398,-0.7583618,0.09686279
1602703473704,906,-0.18481445,-0.92852783,0.17645264
1602703473704,907,-0.18481445,-0.92852783,0.17645264
1602703473705,908,-0.18481445,-0.92852783,0.17645264
1602703473705,909,-0.1105957,-1.081604,0.19158936
1602703473707,910,-0.1105957,-1.081604,0.19158936
1602703473711,911,-0.076660156,-1.3638306,0.061462402
1602703473712,912,-0.1105957,-1.081604,0.19158936
1602703473712,913,-0.076660156,-1.3638306,0.061462402
1602703473713,914,-0.076660156,-1.3638306,0.061462402
1602703473717,915,-0.11743164,-1.0374146,-0.09576416
1602703473718,916,-0.11743164,-1.0374146,-0.09576416
1602703473718,917,-0.11743164,-1.0374146,-0.09576416
1602703473718,918,-0.09692383,-1.0925903,0.014831543
1602703473722,919,-0.09692383,-1.0925903,0.014831543
1602703473723,920,-0.09692383,-1.0925903,0.014831543
1602703473723,921,-0.15722656,-0.9175415,0.0067749023
1602703473723,922,-0.15722656,-0.9175415,0.0067749023
1602703473725,923,-0.010253906,-0.8262329,0.0119018555
1602703473729,924,-0.010253906,-0.8262329,0.0119018555
1602703473729,925,-0.15722656,-0.9175415,0.0067749023
1602703473729,926,-0.06347656,-1.0615845,0.08392334
1602703473730,927,-0.06347656,-1.0615845,0.08392334
1602703473733,928,-0.010253906,-0.8262329,0.0119018555
1602703473734,929,-7.324219E-4,-1.2227173,0.12542725
1602703473734,930,-7.324219E-4,-1.2227173,0.12542725
1602703473739,931,-0.06347656,-1.0615845,0.08392334
1602703473740,932,-0.3305664,-1.109436,-0.054504395
1602703473740,933,-0.3305664,-1.109436,-0.054504395
1602703473740,934,-7.324219E-4,-1.2227173,0.12542725
1602703473740,935,-0.21972656,-1.062561,-0.0071411133
1602703473741,936,-0.21972656,-1.062561,-0.0071411133
1602703473743,937,-0.045166016,-0.8255005,0.047546387
1602703473743,938,-0.3305664,-1.109436,-0.054504395
1602703473743,939,-0.045166016,-0.8255005,0.047546387
1602703473745,940,-0.12817383,-0.8418579,0.12542725
1602703473747,941,-0.12817383,-0.8418579,0.12542725
1602703473747,942,-0.21972656,-1.062561,-0.0071411133
1602703473748,943,-0.13110352,-0.9116821,0.16009521
1602703473751,944,-0.13110352,-0.9116821,0.16009521
1602703473751,945,-0.045166016,-0.8255005,0.047546387
1602703473752,946,-0.01171875,-1.2026978,0.086364746
1602703473752,947,0.076171875,-1.3252563,-0.058654785
1602703473753,948,-0.12817383,-0.8418579,0.12542725
1602703473755,949,-0.13110352,-0.9116821,0.16009521
1602703473755,950,-0.01171875,-1.2026978,0.086364746
1602703473756,951,-0.012451172,-1.0747681,-0.17364502
1602703473757,952,-0.01171875,-1.2026978,0.086364746
1602703473758,953,0.05053711,-1.0403442,-0.1350708
1602703473761,954,0.076171875,-1.3252563,-0.058654785
1602703473761,955,0.076171875,-1.3252563,-0.058654785
1602703473764,956,-0.012451172,-1.0747681,-0.17364502
1602703473765,957,-0.012451172,-1.0747681,-0.17364502
1602703473765,958,0.05053711,-1.0403442,-0.1350708
1602703473765,959,0.05053711,-1.0403442,-0.1350708
1602703476146,960,0.09863281,-0.86602783,-0.20025635
1602703476157,961,0.07543945,-0.96343994,-0.24053955
1602703476158,962,0.09863281,-0.86602783,-0.20025635
1602703476159,963,0.09863281,-0.86602783,-0.20025635
1602703476159,964,0.07543945,-0.96343994,-0.24053955
1602703476160,965,0.07543945,-0.96343994,-0.24053955
1602703476162,966,0.07104492,-0.95098877,-0.22515869
1602703476162,967,0.07104492,-0.95098877,-0.22515869
1602703476163,968,0.07104492,-0.95098877,-0.22515869
1602703476168,969,0.11694336,-1.0366821,-0.24737549
1602703476169,970,0.11694336,-1.0366821,-0.24737549
1602703476169,971,0.11694336,-1.0366821,-0.24737549
1602703476171,972,-0.2253418,-1.1870728,-0.07501221
1602703476177,973,-0.2253418,-1.1870728,-0.07501221
1602703476178,974,-0.2253418,-1.1870728,-0.07501221
1602703476178,975,-0.12402344,-0.9661255,-0.10723877
1602703476179,976,-0.12402344,-0.9661255,-0.10723877
1602703476179,977,-0.12402344,-0.9661255,-0.10723877
1602703476188,978,-0.17919922,-0.8088989,-0.1350708
1602703476189,979,-0.17919922,-0.8088989,-0.1350708
1602703476189,980,-0.17919922,-0.8088989,-0.1350708
1602703476190,981,-0.21264648,-0.75860596,-0.23858643
1602703476190,982,-0.21264648,-0.75860596,-0.23858643
1602703476191,983,-0.12841797,-0.5984497,-0.36358643
1602703476191,984,-0.12841797,-0.5984497,-0.36358643
1602703476191,985,-0.10107422,-0.70635986,-0.5276489
1602703476192,986,-0.10107422,-0.70635986,-0.5276489
1602703476203,987,-0.21264648,-0.75860596,-0.23858643
1602703476203,988,-0.06347656,-1.0403442,-0.5130005
1602703476203,989,-0.06347656,-1.0403442,-0.5130005
1602703476203,990,-0.12841797,-0.5984497,-0.36358643
1602703476205,991,0.0043945312,-0.91485596,-0.6506958
1602703476206,992,-0.10107422,-0.70635986,-0.5276489
1602703476206,993,0.0043945312,-0.91485596,-0.6506958
1602703476209,994,-0.14868164,-1.0442505,-0.7078247
1602703476209,995,-0.06347656,-1.0403442,-0.5130005
1602703476209,996,-0.15234375,-1.0418091,-0.70880127
1602703476210,997,0.0043945312,-0.91485596,-0.6506958
1602703476210,998,-0.14868164,-1.0442505,-0.7078247
1602703476222,999,-0.15698242,-1.1109009,-0.7000122
1602703476222,1000,-0.14868164,-1.0442505,-0.7078247
1602703476223,1001,-0.12817383,-1.1538696,-0.6018677
1602703476224,1002,-0.15234375,-1.0418091,-0.70880127
1602703476224,1003,-0.15234375,-1.0418091,-0.70880127
1602703476224,1004,-0.1352539,-1.1560669,-0.43170166
1602703476225,1005,-0.15698242,-1.1109009,-0.7000122
1602703476225,1006,-0.15698242,-1.1109009,-0.7000122
1602703476226,1007,-0.12817383,-1.1538696,-0.6018677
1602703476226,1008,-0.08618164,-1.0339966,-0.3040161
1602703476227,1009,-0.1352539,-1.1560669,-0.43170166
1602703476236,1010,-0.12817383,-1.1538696,-0.6018677
1602703476236,1011,-0.021972656,-0.97540283,-0.11236572
1602703476237,1012,-0.08618164,-1.0339966,-0.3040161
1602703476238,1013,-0.028320312,-0.831604,0.03265381
1602703476238,1014,-0.1352539,-1.1560669,-0.43170166
1602703476239,1015,-0.0012207031,-1.0789185,0.112976074
1602703476240,1016,-0.08618164,-1.0339966,-0.3040161
1602703476244,1017,-0.025634766,-1.013977,0.22161865
1602703476245,1018,-0.021972656,-0.97540283,-0.11236572
1602703476245,1019,-0.021972656,-0.97540283,-0.11236572
1602703476248,1020,-0.12768555,-0.9727173,0.18450928
1602703476251,1021,-0.028320312,-0.831604,0.03265381
1602703476251,1022,-0.028320312,-0.831604,0.03265381
1602703476252,1023,-0.04736328,-1.0339966,0.23602295
1602703476261,1024,-0.0012207031,-1.0789185,0.112976074
1602703476262,1025,-0.0012207031,-1.0789185,0.112976074
1602703476262,1026,0.0017089844,-0.99346924,0.2518921
1602703476263,1027,-0.025634766,-1.013977,0.22161865
1602703476263,1028,-0.036865234,-0.96173096,0.26531982
1602703476263,1029,-0.025634766,-1.013977,0.22161865
1602703476264,1030,-0.12768555,-0.9727173,0.18450928
1602703476271,1031,0.1027832,-0.98028564,0.31414795
1602703476271,1032,-0.12768555,-0.9727173,0.18450928
1602703476272,1033,-0.04736328,-1.0339966,0.23602295
1602703476273,1034,-0.04736328,-1.0339966,0.23602295
1602703476273,1035,0.0017089844,-0.99346924,0.2518921
1602703476273,1036,0.030273438,-0.93463135,0.27850342
1602703476282,1037,0.0017089844,-0.99346924,0.2518921
1602703476282,1038,-0.036865234,-0.96173096,0.26531982
1602703476283,1039,0.053955078,-0.9558716,0.23382568
1602703476283,1040,-0.036865234,-0.96173096,0.26531982
1602703476283,1041,0.0637207,-0.9561157,0.2892456
1602703476284,1042,0.1027832,-0.98028564,0.31414795
1602703476285,1043,0.091796875,-0.96466064,0.2177124
1602703476285,1044,0.1027832,-0.98028564,0.31414795
1602703476289,1045,0.030273438,-0.93463135,0.27850342
1602703476289,1046,-0.010498047,-1.0525513,0.24139404
1602703476289,1047,0.030273438,-0.93463135,0.27850342
1602703476294,1048,0.053955078,-0.9558716,0.23382568
1602703476303,1049,0.053955078,-0.9558716,0.23382568
1602703476303,1050,0.0637207,-0.9561157,0.2892456
1602703476304,1051,0.0637207,-0.9561157,0.2892456
1602703476304,1052,0.091796875,-0.96466064,0.2177124
1602703476304,1053,0.091796875,-0.96466064,0.2177124
1602703476304,1054,-0.010498047,-1.0525513,0.24139404
1602703476309,1055,-0.010498047,-1.0525513,0.24139404
1602703478648,1056,0.0078125,-0.9507446,0.21136475
1602703478654,1057,0.0078125,-0.9507446,0.21136475
1602703478655,1058,0.0078125,-0.9507446,0.21136475
1602703478655,1059,0.0126953125,-0.99957275,0.16156006
1602703478664,1060,0.0126953125,-0.99957275,0.16156006
1602703478665,1061,0.0126953125,-0.99957275,0.16156006
1602703478665,1062,0.09667969,-1.0227661,0.08441162
1602703478666,1063,0.09667969,-1.0227661,0.08441162
1602703478667,1064,0.09667969,-1.0227661,0.08441162
1602703478668,1065,0.08129883,-0.94976807,-0.043762207
1602703478673,1066,0.08129883,-0.94976807,-0.043762207
1602703478674,1067,0.08129883,-0.94976807,-0.043762207
1602703478675,1068,-0.016357422,-1.1748657,-0.16192627
1602703478675,1069,-0.016357422,-1.1748657,-0.16192627
1602703478691,1070,-0.016357422,-1.1748657,-0.16192627
1602703478692,1071,-0.023925781,-1.3167114,-0.40679932
1602703478693,1072,-0.023925781,-1.3167114,-0.40679932
1602703478693,1073,-0.115234375,-1.2893677,-0.5928345
1602703478693,1074,-0.115234375,-1.2893677,-0.5928345
1602703478693,1075,-0.023925781,-1.3167114,-0.40679932
1602703478694,1076,-0.20947266,-1.2627563,-0.59869385
1602703478695,1077,-0.20947266,-1.2627563,-0.59869385
1602703478695,1078,-0.17895508,-1.2246704,-0.5454712
1602703478695,1079,-0.115234375,-1.2893677,-0.5928345
1602703478696,1080,-0.17895508,-1.2246704,-0.5454712
1602703478696,1081,-0.20947266,-1.2627563,-0.59869385
1602703478697,1082,-0.1508789,-1.0823364,-0.4631958
1602703478698,1083,-0.17895508,-1.2246704,-0.5454712
1602703478698,1084,-0.1508789,-1.0823364,-0.4631958
1602703478703,1085,-0.10571289,-0.80474854,-0.36138916
1602703478704,1086,-0.1508789,-1.0823364,-0.4631958
1602703478705,1087,-0.10571289,-0.80474854,-0.36138916
1602703478712,1088,-0.16552734,-0.48199463,-0.27056885
1602703478713,1089,-0.10571289,-0.80474854,-0.36138916
1602703478713,1090,-0.16552734,-0.48199463,-0.27056885
1602703478714,1091,-0.16552734,-0.48199463,-0.27056885
1602703478714,1092,-0.119628906,-0.53375244,-0.11114502
1602703478715,1093,-0.119628906,-0.53375244,-0.11114502
1602703478717,1094,-0.12768555,-0.7554321,-0.06304932
1602703478721,1095,-0.12768555,-0.7554321,-0.06304932
1602703478722,1096,-0.119628906,-0.53375244,-0.11114502
1602703478722,1097,-0.09399414,-0.9854126,0.046569824
1602703478726,1098,-0.12768555,-0.7554321,-0.06304932
1602703478726,1099,-0.09399414,-0.9854126,0.046569824
1602703478726,1100,-0.05029297,-0.9907837,0.13006592
1602703478737,1101,-0.09399414,-0.9854126,0.046569824
1602703478737,1102,-0.05029297,-0.9907837,0.13006592
1602703478738,1103,0.004638672,-0.98443604,0.13519287
1602703478739,1104,0.004638672,-0.98443604,0.13519287
1602703478739,1105,-0.05029297,-0.9907837,0.13006592
1602703478739,1106,0.050048828,-1.0742798,0.1696167
1602703478740,1107,0.050048828,-1.0742798,0.1696167
1602703478740,1108,0.11425781,-1.3526001,0.16131592
1602703478741,1109,0.004638672,-0.98443604,0.13519287
1602703478741,1110,0.11425781,-1.3526001,0.16131592
1602703478747,1111,-0.08203125,-1.0022583,-0.04937744
1602703478748,1112,0.050048828,-1.0742798,0.1696167
1602703478749,1113,-0.0126953125,-0.8152466,-0.1296997
1602703478749,1114,0.11425781,-1.3526001,0.16131592
1602703478750,1115,-0.08203125,-1.0022583,-0.04937744
1602703478754,1116,-0.052734375,-1.1514282,0.07611084
1602703478754,1117,-0.08203125,-1.0022583,-0.04937744
1602703478755,1118,-0.0126953125,-0.8152466,-0.1296997
1602703478756,1119,-0.0107421875,-0.86383057,0.055847168
1602703478761,1120,-0.052734375,-1.1514282,0.07611084
1602703478761,1121,-0.0126953125,-0.8152466,-0.1296997
1602703478762,1122,-0.04736328,-0.9483032,0.086364746
1602703478764,1123,-0.0107421875,-0.86383057,0.055847168
1602703478765,1124,-0.052734375,-1.1514282,0.07611084
1602703478766,1125,0.0034179688,-1.0874634,0.12420654
1602703478771,1126,-0.0107421875,-0.86383057,0.055847168
1602703478771,1127,-0.04736328,-0.9483032,0.086364746
1602703478771,1128,-0.05419922,-1.3359985,0.07684326
1602703478772,1129,-0.04736328,-0.9483032,0.086364746
1602703478775,1130,-0.31640625,-0.99224854,-0.051818848
1602703478775,1131,0.0034179688,-1.0874634,0.12420654
1602703478776,1132,0.0034179688,-1.0874634,0.12420654
1602703478779,1133,-0.1652832,-0.8274536,-0.050842285
1602703478781,1134,-0.05419922,-1.3359985,0.07684326
1602703478782,1135,-0.05419922,-1.3359985,0.07684326
1602703478782,1136,-0.20678711,-1.03302,0.041931152
1602703478788,1137,-0.31640625,-0.99224854,-0.051818848
1602703478788,1138,-0.31640625,-0.99224854,-0.051818848
1602703478789,1139,-0.14868164,-0.87750244,0.081726074
1602703478789,1140,-0.1652832,-0.8274536,-0.050842285
1602703478790,1141,-0.1652832,-0.8274536,-0.050842285
1602703478791,1142,-0.17163086,-0.913147,0.1395874
1602703478793,1143,-0.20678711,-1.03302,0.041931152
1602703478796,1144,-0.04711914,-1.1931763,0.11956787
1602703478798,1145,-0.14868164,-0.87750244,0.081726074
1602703478801,1146,-0.17163086,-0.913147,0.1395874
1602703478804,1147,-0.20678711,-1.03302,0.041931152
1602703478804,1148,-0.04711914,-1.1931763,0.11956787
1602703478805,1149,-0.14868164,-0.87750244,0.081726074
1602703478808,1150,-0.17163086,-0.913147,0.1395874
1602703478809,1151,-0.04711914,-1.1931763,0.11956787
