# Sensor position: Front pocket (trouser)
# Sensor side: Right
# Activity type: Movement
# Activity code: 9
# Subject id: s1758499
timestamp,seq,accel_x,accel_y,accel_z
1602702380746,0,-0.049072266,-1.446106,0.030212402
1602702380761,1,-0.049072266,-1.446106,0.030212402
1602702380761,2,-0.049072266,-1.446106,0.030212402
1602702380761,3,0.075683594,-1.1272583,-0.20709229
1602702380762,4,0.075683594,-1.1272583,-0.20709229
1602702380762,5,0.075683594,-1.1272583,-0.20709229
1602702380763,6,0.23852539,-0.97857666,-0.038879395
1602702380763,7,0.23852539,-0.97857666,-0.038879395
1602702380763,8,-0.08203125,-0.46099854,-0.10430908
1602702380764,9,0.23852539,-0.97857666,-0.038879395
1602702380765,10,-0.08203125,-0.46099854,-0.10430908
1602702380766,11,-0.08203125,-0.46099854,-0.10430908
1602702380766,12,-0.16113281,-0.58966064,0.1774292
1602702380767,13,-0.16113281,-0.58966064,0.1774292
1602702380774,14,-0.16113281,-0.58966064,0.1774292
1602702380777,15,0.0546875,-1.7236938,1.166687
1602702380777,16,0.0546875,-1.7236938,1.166687
1602702380778,17,0.30322266,-1.0911255,-0.5339966
1602702380778,18,0.0546875,-1.7236938,1.166687
1602702380780,19,0.30322266,-1.0911255,-0.5339966
1602702380783,20,-0.33081055,-0.8218384,-0.13092041
1602702380784,21,0.30322266,-1.0911255,-0.5339966
1602702380795,22,-0.33081055,-0.8218384,-0.13092041
1602702380796,23,0.45581055,-0.9915161,-0.24005127
1602702380796,24,-0.33081055,-0.8218384,-0.13092041
1602702380797,25,-0.008056641,-0.96588135,-0.03253174
1602702380797,26,0.45581055,-0.9915161,-0.24005127
1602702380797,27,0.22070312,-1.0369263,0.0048217773
1602702380798,28,0.45581055,-0.9915161,-0.24005127
1602702380798,29,0.46972656,-1.0298462,0.05340576
1602702380798,30,-0.008056641,-0.96588135,-0.03253174
1602702380799,31,0.26416016,-1.3855591,0.09881592
1602702380799,32,0.22070312,-1.0369263,0.0048217773
1602702380800,33,-0.009033203,-1.4067993,-0.26470947
1602702380801,34,0.46972656,-1.0298462,0.05340576
1602702380802,35,-0.008056641,-0.96588135,-0.03253174
1602702380804,36,0.14794922,-1.0569458,0.0014038086
1602702380805,37,0.22070312,-1.0369263,0.0048217773
1602702380808,38,0.008300781,-0.49884033,-0.17047119
1602702380809,39,0.26416016,-1.3855591,0.09881592
1602702380809,40,0.46972656,-1.0298462,0.05340576
1602702380809,41,-0.18701172,-0.36212158,-0.049865723
1602702380817,42,-0.009033203,-1.4067993,-0.26470947
1602702380817,43,0.26416016,-1.3855591,0.09881592
1602702380818,44,0.14794922,-1.0569458,0.0014038086
1602702380818,45,-0.009033203,-1.4067993,-0.26470947
1602702380819,46,0.28222656,-1.7810669,1.1981812
1602702380819,47,0.14794922,-1.0569458,0.0014038086
1602702380820,48,0.008300781,-0.49884033,-0.17047119
1602702380820,49,0.25439453,-1.2764282,-0.4175415
1602702380822,50,0.008300781,-0.49884033,-0.17047119
1602702380822,51,-0.18701172,-0.36212158,-0.049865723
1602702380822,52,-0.5095215,-0.5149536,-0.09307861
1602702380826,53,-0.18701172,-0.36212158,-0.049865723
1602702380826,54,0.28222656,-1.7810669,1.1981812
1602702380826,55,0.65112305,-1.1228638,-0.22418213
1602702380827,56,0.28222656,-1.7810669,1.1981812
1602702380827,57,0.25439453,-1.2764282,-0.4175415
1602702380829,58,-0.052978516,-0.8765259,-0.10064697
1602702380829,59,0.25439453,-1.2764282,-0.4175415
1602702380832,60,0.2109375,-1.0020142,-0.09112549
1602702380833,61,-0.5095215,-0.5149536,-0.09307861
1602702380833,62,-0.5095215,-0.5149536,-0.09307861
1602702380834,63,0.65112305,-1.1228638,-0.22418213
1602702380834,64,0.5095215,-1.0481567,0.012390137
1602702380836,65,0.65112305,-1.1228638,-0.22418213
1602702380839,66,0.50756836,-1.2756958,0.11956787
1602702380840,67,-0.052978516,-0.8765259,-0.10064697
1602702380844,68,0.01928711,-1.3550415,-0.23809814
1602702380844,69,-0.052978516,-0.8765259,-0.10064697
1602702380845,70,0.2109375,-1.0020142,-0.09112549
1602702380845,71,0.2109375,-1.0020142,-0.09112549
1602702380845,72,0.22583008,-1.1721802,0.070251465
1602702380846,73,0.5095215,-1.0481567,0.012390137
1602702380848,74,0.5095215,-1.0481567,0.012390137
1602702380849,75,0.50756836,-1.2756958,0.11956787
1602702380851,76,0.50756836,-1.2756958,0.11956787
1602702380852,77,0.01928711,-1.3550415,-0.23809814
1602702380855,78,0.01928711,-1.3550415,-0.23809814
1602702380855,79,0.12841797,-0.6760864,-0.17803955
1602702380856,80,0.22583008,-1.1721802,0.070251465
1602702380857,81,0.22583008,-1.1721802,0.070251465
1602702380859,82,0.12841797,-0.6760864,-0.17803955
1602702380860,83,-0.1496582,-0.30010986,-0.11553955
1602702380860,84,0.12841797,-0.6760864,-0.17803955
1602702380861,85,-0.1496582,-0.30010986,-0.11553955
1602702380862,86,0.32104492,-1.6526489,0.8510132
1602702380863,87,-0.1496582,-0.30010986,-0.11553955
1602702380865,88,-0.037109375,-1.1074829,0.1083374
1602702380865,89,0.32104492,-1.6526489,0.8510132
1602702380866,90,0.32104492,-1.6526489,0.8510132
1602702380867,91,-0.041015625,-0.78375244,-0.17755127
1602702380869,92,-0.037109375,-1.1074829,0.1083374
1602702380869,93,-0.037109375,-1.1074829,0.1083374
1602702380870,94,-0.041015625,-0.78375244,-0.17755127
1602702380872,95,-0.041015625,-0.78375244,-0.17755127
1602702383244,96,0.27978516,-1.1050415,-0.15631104
1602702383245,97,0.27978516,-1.1050415,-0.15631104
1602702383245,98,-0.07421875,-0.8882446,-0.21588135
1602702383263,99,-0.07421875,-0.8882446,-0.21588135
1602702383263,100,0.27978516,-1.1050415,-0.15631104
1602702383263,101,0.13720703,-0.9924927,-0.07110596
1602702383263,102,-0.07421875,-0.8882446,-0.21588135
1602702383264,103,0.13720703,-0.9924927,-0.07110596
1602702383264,104,0.13720703,-0.9924927,-0.07110596
1602702383264,105,0.31225586,-1.0193481,0.029968262
1602702383264,106,0.31225586,-1.0193481,0.029968262
1602702383265,107,0.5163574,-1.1467896,0.05682373
1602702383265,108,0.5163574,-1.1467896,0.05682373
1602702383265,109,0.31225586,-1.0193481,0.029968262
1602702383265,110,0.0068359375,-1.3547974,0.010681152
1602702383266,111,0.0068359375,-1.3547974,0.010681152
1602702383266,112,0.029296875,-1.3372192,-0.050109863
1602702383266,113,0.5163574,-1.1467896,0.05682373
1602702383266,114,0.23999023,-0.86383057,-0.06573486
1602702383268,115,0.0068359375,-1.3547974,0.010681152
1602702383268,116,-0.05834961,-0.4421997,-0.13531494
1602702383268,117,-0.07299805,-0.69317627,0.18377686
1602702383268,118,0.029296875,-1.3372192,-0.050109863
1602702383268,119,0.040771484,-1.4893188,1.0748901
1602702383268,120,0.34643555,-1.2461548,-0.3423462
1602702383268,121,0.029296875,-1.3372192,-0.050109863
1602702383268,122,0.23999023,-0.86383057,-0.06573486
1602702383272,123,0.23999023,-0.86383057,-0.06573486
1602702383272,124,-0.05834961,-0.4421997,-0.13531494
1602702383272,125,-0.32080078,-0.79400635,-0.26934814
1602702383275,126,-0.05834961,-0.4421997,-0.13531494
1602702383277,127,-0.07299805,-0.69317627,0.18377686
1602702383278,128,0.37524414,-1.0874634,-0.14581299
1602702383280,129,0.040771484,-1.4893188,1.0748901
1602702383280,130,-0.07299805,-0.69317627,0.18377686
1602702383280,131,0.060302734,-0.9619751,-0.057434082
1602702383283,132,0.34643555,-1.2461548,-0.3423462
1602702383284,133,0.040771484,-1.4893188,1.0748901
1602702383284,134,0.22729492,-0.9224243,-0.0022583008
1602702383285,135,-0.32080078,-0.79400635,-0.26934814
1602702383285,136,0.34643555,-1.2461548,-0.3423462
1602702383286,137,0.37524414,-1.0874634,-0.14581299
1602702383290,138,-0.32080078,-0.79400635,-0.26934814
1602702383290,139,0.41333008,-0.9522095,0.030700684
1602702383290,140,0.060302734,-0.9619751,-0.057434082
1602702383290,141,0.29296875,-1.3574829,0.046081543
1602702383291,142,0.37524414,-1.0874634,-0.14581299
1602702383294,143,0.22729492,-0.9224243,-0.0022583008
1602702383294,144,-0.2709961,-1.4185181,-0.22125244
1602702383294,145,0.060302734,-0.9619751,-0.057434082
1602702383296,146,0.41333008,-0.9522095,0.030700684
1602702383297,147,-0.047851562,-1.072815,-0.06719971
1602702383298,148,0.29296875,-1.3574829,0.046081543
1602702383299,149,0.07348633,-0.7463989,-0.120666504
1602702383302,150,-0.2709961,-1.4185181,-0.22125244
1602702383304,151,0.22729492,-0.9224243,-0.0022583008
1602702383304,152,-0.018798828,-0.42510986,0.027282715
1602702383313,153,-0.047851562,-1.072815,-0.06719971
1602702383315,154,0.3486328,-1.4141235,0.8788452
1602702383315,155,0.41333008,-0.9522095,0.030700684
1602702383316,156,0.29296875,-1.3574829,0.046081543
1602702383317,157,0.07348633,-0.7463989,-0.120666504
1602702383322,158,-0.03515625,-1.2444458,-0.19952393
1602702383333,159,-0.04248047,-0.93707275,-0.33062744
1602702383333,160,-0.018798828,-0.42510986,0.027282715
1602702383333,161,0.19042969,-1.1358032,-0.014221191
1602702383333,162,0.099365234,-0.927063,-0.11090088
1602702383333,163,-0.2709961,-1.4185181,-0.22125244
1602702383334,164,0.3486328,-1.4141235,0.8788452
1602702383334,165,-0.03515625,-1.2444458,-0.19952393
1602702383334,166,0.4033203,-0.83551025,0.1083374
1602702383334,167,-0.047851562,-1.072815,-0.06719971
1602702383334,168,-0.04248047,-0.93707275,-0.33062744
1602702383335,169,0.3371582,-0.9961548,0.1515503
1602702383342,170,0.19042969,-1.1358032,-0.014221191
1602702383342,171,0.15332031,-1.2371216,0.2189331
1602702383343,172,0.099365234,-0.927063,-0.11090088
1602702383343,173,0.016601562,-1.5308228,-0.02520752
1602702383343,174,0.4033203,-0.83551025,0.1083374
1602702383344,175,0.07348633,-0.7463989,-0.120666504
1602702383344,176,0.23120117,-0.954895,0.14251709
1602702383344,177,0.3371582,-0.9961548,0.1515503
1602702383345,178,-0.018798828,-0.42510986,0.027282715
1602702383347,179,0.15332031,-1.2371216,0.2189331
1602702383347,180,0.3486328,-1.4141235,0.8788452
1602702383348,181,0.016601562,-1.5308228,-0.02520752
1602702383350,182,-0.03515625,-1.2444458,-0.19952393
1602702383351,183,0.23120117,-0.954895,0.14251709
1602702383353,184,-0.04248047,-0.93707275,-0.33062744
1602702383359,185,0.19042969,-1.1358032,-0.014221191
1602702383360,186,0.099365234,-0.927063,-0.11090088
1602702383362,187,0.4033203,-0.83551025,0.1083374
1602702383364,188,0.3371582,-0.9961548,0.1515503
1602702383366,189,0.15332031,-1.2371216,0.2189331
1602702383368,190,0.016601562,-1.5308228,-0.02520752
1602702383371,191,0.23120117,-0.954895,0.14251709
1602702385848,192,0.13500977,-0.47442627,0.18255615
1602702385851,193,0.13500977,-0.47442627,0.18255615
1602702385855,194,0.1237793,-0.68927,0.3756714
1602702385855,195,0.13500977,-0.47442627,0.18255615
1602702385856,196,-0.021728516,-0.944397,0.15570068
1602702385857,197,0.1237793,-0.68927,0.3756714
1602702385859,198,0.1237793,-0.68927,0.3756714
1602702385866,199,-0.059814453,-1.0999146,0.5512085
1602702385866,200,-0.021728516,-0.944397,0.15570068
1602702385866,201,0.2199707,-0.84039307,0.28948975
1602702385867,202,-0.059814453,-1.0999146,0.5512085
1602702385867,203,-0.107177734,-0.8106079,0.43621826
1602702385868,204,0.2199707,-0.84039307,0.28948975
1602702385868,205,0.107421875,-0.6929321,0.60809326
1602702385868,206,-0.021728516,-0.944397,0.15570068
1602702385870,207,0.2055664,-0.70758057,0.71209717
1602702385873,208,-0.107177734,-0.8106079,0.43621826
1602702385874,209,-0.059814453,-1.0999146,0.5512085
1602702385875,210,0.1928711,-0.5588989,0.77752686
1602702385878,211,0.2199707,-0.84039307,0.28948975
1602702385878,212,0.107421875,-0.6929321,0.60809326
1602702385878,213,0.31689453,-0.40264893,0.8768921
1602702385881,214,-0.107177734,-0.8106079,0.43621826
1602702385881,215,0.2055664,-0.70758057,0.71209717
1602702385881,216,0.3137207,-0.34649658,1.0634155
1602702385884,217,0.107421875,-0.6929321,0.60809326
1602702385884,218,0.1928711,-0.5588989,0.77752686
1602702385884,219,0.34887695,-0.3977661,1.0026245
1602702385885,220,0.2055664,-0.70758057,0.71209717
1602702385888,221,0.12475586,-0.22247314,0.8751831
1602702385888,222,0.31689453,-0.40264893,0.8768921
1602702385889,223,0.1928711,-0.5588989,0.77752686
1602702385889,224,0.14624023,-0.17315674,0.91864014
1602702385890,225,0.3137207,-0.34649658,1.0634155
1602702385891,226,0.31689453,-0.40264893,0.8768921
1602702385892,227,0.34887695,-0.3977661,1.0026245
1602702385894,228,0.3137207,-0.34649658,1.0634155
1602702385894,229,0.15844727,-0.22564697,0.98724365
1602702385894,230,0.12475586,-0.22247314,0.8751831
1602702385896,231,0.34887695,-0.3977661,1.0026245
1602702385897,232,0.14624023,-0.17315674,0.91864014
1602702385898,233,0.17602539,-0.16070557,0.8900757
1602702385901,234,0.12475586,-0.22247314,0.8751831
1602702385901,235,0.15844727,-0.22564697,0.98724365
1602702385901,236,0.18652344,-0.14898682,0.9411011
1602702385904,237,0.14624023,-0.17315674,0.91864014
1602702385904,238,0.17602539,-0.16070557,0.8900757
1602702385904,239,0.17871094,-0.19244385,0.95477295
1602702385905,240,0.15844727,-0.22564697,0.98724365
1602702385906,241,0.26904297,-0.18878174,0.90496826
1602702385907,242,0.17602539,-0.16070557,0.8900757
1602702385908,243,0.2368164,-0.1194458,0.89276123
1602702385909,244,0.18652344,-0.14898682,0.9411011
1602702385911,245,0.123291016,-0.097961426,0.90130615
1602702385912,246,0.18652344,-0.14898682,0.9411011
1602702385912,247,0.17871094,-0.19244385,0.95477295
1602702385914,248,0.103027344,-0.08721924,0.89715576
1602702385915,249,0.17871094,-0.19244385,0.95477295
1602702385915,250,0.26904297,-0.18878174,0.90496826
1602702385917,251,0.17504883,-0.12799072,0.8981323
1602702385917,252,0.26904297,-0.18878174,0.90496826
1602702385918,253,0.2368164,-0.1194458,0.89276123
1602702385919,254,0.21386719,-0.1741333,0.9647827
1602702385920,255,0.123291016,-0.097961426,0.90130615
1602702385921,256,0.15063477,-0.2119751,1.1622925
1602702385922,257,0.103027344,-0.08721924,0.89715576
1602702385923,258,0.21850586,-0.27178955,1.0302124
1602702385925,259,0.17504883,-0.12799072,0.8981323
1602702385926,260,0.12084961,-0.4031372,1.0165405
1602702385927,261,0.21386719,-0.1741333,0.9647827
1602702385929,262,0.10180664,-0.58477783,0.901062
1602702385929,263,0.2368164,-0.1194458,0.89276123
1602702385930,264,0.15063477,-0.2119751,1.1622925
1602702385932,265,0.12158203,-0.7041626,0.74871826
1602702385933,266,0.123291016,-0.097961426,0.90130615
1602702385933,267,0.21850586,-0.27178955,1.0302124
1602702385934,268,0.103027344,-0.08721924,0.89715576
1602702385935,269,0.17504883,-0.12799072,0.8981323
1602702385936,270,0.12084961,-0.4031372,1.0165405
1602702385938,271,0.21386719,-0.1741333,0.9647827
1602702385941,272,0.10180664,-0.58477783,0.901062
1602702385941,273,0.068115234,-0.68218994,0.5722046
1602702385941,274,0.15063477,-0.2119751,1.1622925
1602702385941,275,0.12158203,-0.7041626,0.74871826
1602702385942,276,0.14501953,-0.506897,0.47406006
1602702385944,277,0.21850586,-0.27178955,1.0302124
1602702385944,278,0.068115234,-0.68218994,0.5722046
1602702385944,279,0.1862793,-1.0105591,0.45062256
1602702385945,280,0.12084961,-0.4031372,1.0165405
1602702385947,281,0.10180664,-0.58477783,0.901062
1602702385948,282,0.14501953,-0.506897,0.47406006
1602702385949,283,0.12158203,-0.7041626,0.74871826
1602702385951,284,0.1862793,-1.0105591,0.45062256
1602702385952,285,0.068115234,-0.68218994,0.5722046
1602702385954,286,0.14501953,-0.506897,0.47406006
1602702385955,287,0.1862793,-1.0105591,0.45062256
1602702388249,288,-0.1574707,-1.0432739,0.16571045
1602702388250,289,-0.1574707,-1.0432739,0.16571045
1602702388250,290,0.107421875,-0.8543091,0.12176514
1602702388251,291,-0.1574707,-1.0432739,0.16571045
1602702388258,292,-0.03466797,-0.63531494,0.19232178
1602702388258,293,0.037353516,-0.77838135,0.14813232
1602702388258,294,0.107421875,-0.8543091,0.12176514
1602702388259,295,0.107421875,-0.8543091,0.12176514
1602702388262,296,0.30151367,-1.3013306,0.5790405
1602702388263,297,-0.03466797,-0.63531494,0.19232178
1602702388263,298,-0.03466797,-0.63531494,0.19232178
1602702388263,299,0.20898438,-1.3828735,-0.06427002
1602702388267,300,0.037353516,-0.77838135,0.14813232
1602702388268,301,0.037353516,-0.77838135,0.14813232
1602702388268,302,-0.34594727,-0.7329712,0.043395996
1602702388268,303,0.08227539,-1.1502075,-0.32891846
1602702388268,304,0.30151367,-1.3013306,0.5790405
1602702388269,305,0.08300781,-0.93585205,0.035827637
1602702388271,306,0.30151367,-1.3013306,0.5790405
1602702388272,307,0.20898438,-1.3828735,-0.06427002
1602702388272,308,0.20629883,-0.9456177,-0.1272583
1602702388272,309,-0.34594727,-0.7329712,0.043395996
1602702388274,310,0.20898438,-1.3828735,-0.06427002
1602702388275,311,0.08227539,-1.1502075,-0.32891846
1602702388276,312,0.08300781,-0.93585205,0.035827637
1602702388280,313,-0.34594727,-0.7329712,0.043395996
1602702388280,314,0.20629883,-0.9456177,-0.1272583
1602702388280,315,0.08227539,-1.1502075,-0.32891846
1602702388280,316,0.13085938,-0.96466064,0.03704834
1602702388280,317,0.13085938,-0.96466064,0.03704834
1602702388284,318,0.08300781,-0.93585205,0.035827637
1602702388284,319,0.32373047,-0.97442627,-0.11968994
1602702388285,320,0.32373047,-0.97442627,-0.11968994
1602702388285,321,0.20629883,-0.9456177,-0.1272583
1602702388286,322,0.22753906,-1.4495239,-0.09259033
1602702388286,323,0.13085938,-0.96466064,0.03704834
1602702388287,324,0.22753906,-1.4495239,-0.09259033
1602702388289,325,0.32373047,-0.97442627,-0.11968994
1602702388289,326,-0.2524414,-1.206604,0.13348389
1602702388290,327,-0.2524414,-1.206604,0.13348389
1602702388292,328,0.08886719,-1.1890259,-0.11529541
1602702388292,329,0.22753906,-1.4495239,-0.09259033
1602702388293,330,0.07470703,-0.83599854,0.07366943
1602702388295,331,-0.2524414,-1.206604,0.13348389
1602702388296,332,0.08886719,-1.1890259,-0.11529541
1602702388296,333,-0.021240234,-0.45318604,0.05633545
1602702388296,334,0.07470703,-0.83599854,0.07366943
1602702388299,335,-0.11230469,-0.6499634,0.3163452
1602702388299,336,0.08886719,-1.1890259,-0.11529541
1602702388299,337,-0.021240234,-0.45318604,0.05633545
1602702388301,338,0.23828125,-1.7280884,1.0770874
1602702388302,339,-0.11230469,-0.6499634,0.3163452
1602702388302,340,0.07470703,-0.83599854,0.07366943
1602702388304,341,-0.15673828,-1.0701294,-0.4126587
1602702388305,342,0.23828125,-1.7280884,1.0770874
1602702388305,343,-0.021240234,-0.45318604,0.05633545
1602702388306,344,-0.16235352,-0.8657837,-0.27496338
1602702388308,345,-0.11230469,-0.6499634,0.3163452
1602702388309,346,0.27270508,-1.03302,-0.023254395
1602702388310,347,-0.15673828,-1.0701294,-0.4126587
1602702388311,348,0.21240234,-0.9194946,-0.09893799
1602702388312,349,-0.16235352,-0.8657837,-0.27496338
1602702388316,350,0.17480469,-0.9541626,-0.039367676
1602702388316,351,0.23828125,-1.7280884,1.0770874
1602702388316,352,0.28881836,-1.0281372,-0.04888916
1602702388316,353,0.27270508,-1.03302,-0.023254395
1602702388317,354,-0.15673828,-1.0701294,-0.4126587
1602702388319,355,0.31347656,-1.2752075,0.006286621
1602702388319,356,0.21240234,-0.9194946,-0.09893799
1602702388319,357,-0.16235352,-0.8657837,-0.27496338
1602702388322,358,-0.2644043,-1.3987427,0.034362793
1602702388322,359,0.17480469,-0.9541626,-0.039367676
1602702388322,360,0.27270508,-1.03302,-0.023254395
1602702388324,361,0.19116211,-1.3345337,-0.17633057
1602702388324,362,0.21240234,-0.9194946,-0.09893799
1602702388326,363,0.24389648,-0.69073486,0.0060424805
1602702388327,364,0.17480469,-0.9541626,-0.039367676
1602702388331,365,-0.078125,-0.36480713,0.019714355
1602702388331,366,0.28881836,-1.0281372,-0.04888916
1602702388332,367,0.28881836,-1.0281372,-0.04888916
1602702388332,368,0.31347656,-1.2752075,0.006286621
1602702388332,369,-0.096191406,-0.6616821,0.26507568
1602702388333,370,0.31347656,-1.2752075,0.006286621
1602702388335,371,-0.2644043,-1.3987427,0.034362793
1602702388335,372,0.43969727,-1.581604,1.0661011
1602702388336,373,0.19116211,-1.3345337,-0.17633057
1602702388339,374,-0.2644043,-1.3987427,0.034362793
1602702388339,375,0.24389648,-0.69073486,0.0060424805
1602702388340,376,0.19116211,-1.3345337,-0.17633057
1602702388342,377,-0.078125,-0.36480713,0.019714355
1602702388342,378,0.24389648,-0.69073486,0.0060424805
1602702388344,379,-0.078125,-0.36480713,0.019714355
1602702388345,380,-0.096191406,-0.6616821,0.26507568
1602702388346,381,0.43969727,-1.581604,1.0661011
1602702388349,382,-0.096191406,-0.6616821,0.26507568
1602702388350,383,0.43969727,-1.581604,1.0661011
1602702390648,384,-0.05883789,-1.3213501,-0.2876587
1602702390648,385,-0.05883789,-1.3213501,-0.2876587
1602702390654,386,-0.48876953,-0.8250122,-0.159729
1602702390654,387,-0.48876953,-0.8250122,-0.159729
1602702390655,388,0.51782227,-1.1060181,-0.13946533
1602702390655,389,0.51782227,-1.1060181,-0.13946533
1602702390656,390,-0.02758789,-0.99664307,0.016296387
1602702390656,391,0.26831055,-1.0095825,0.07659912
1602702390659,392,-0.02758789,-0.99664307,0.016296387
1602702390659,393,-0.05883789,-1.3213501,-0.2876587
1602702390660,394,0.23413086,-0.8735962,-0.00592041
1602702390662,395,0.26831055,-1.0095825,0.07659912
1602702390663,396,-0.48876953,-0.8250122,-0.159729
1602702390663,397,0.09399414,-1.0593872,-0.081848145
1602702390663,398,0.23413086,-0.8735962,-0.00592041
1602702390666,399,-0.15844727,-1.1585083,0.22259521
1602702390666,400,0.51782227,-1.1060181,-0.13946533
1602702390667,401,0.20288086,-0.7942505,0.051452637
1602702390672,402,-0.02758789,-0.99664307,0.016296387
1602702390673,403,0.09399414,-1.0593872,-0.081848145
1602702390673,404,0.16455078,-0.46466064,0.2633667
1602702390674,405,0.26831055,-1.0095825,0.07659912
1602702390674,406,0.067871094,-1.2947388,0.85369873
1602702390675,407,-0.15844727,-1.1585083,0.22259521
1602702390675,408,0.23413086,-0.8735962,-0.00592041
1602702390678,409,0.16699219,-0.20318604,0.42840576
1602702390679,410,0.09399414,-1.0593872,-0.081848145
1602702390679,411,0.20288086,-0.7942505,0.051452637
1602702390679,412,0.1928711,-0.7710571,0.83880615
1602702390681,413,-0.15844727,-1.1585083,0.22259521
1602702390690,414,0.09033203,-0.3267212,0.80462646
1602702390691,415,0.16455078,-0.46466064,0.2633667
1602702390691,416,0.12988281,-0.03326416,0.95648193
1602702390692,417,0.067871094,-1.2947388,0.85369873
1602702390692,418,0.20288086,-0.7942505,0.051452637
1602702390692,419,0.16455078,-0.46466064,0.2633667
1602702390692,420,-0.18457031,0.3217163,1.1349487
1602702390693,421,0.16699219,-0.20318604,0.42840576
1602702390696,422,0.067871094,-1.2947388,0.85369873
1602702390709,423,0.1928711,-0.7710571,0.83880615
1602702390710,424,-0.1850586,0.3859253,1.0661011
1602702390713,425,0.16699219,-0.20318604,0.42840576
1602702390713,426,0.1928711,-0.7710571,0.83880615
1602702390718,427,0.09033203,-0.3267212,0.80462646
1602702390718,428,-0.028320312,0.2531128,1.0914917
1602702390718,429,0.09033203,-0.3267212,0.80462646
1602702390719,430,0.12988281,-0.03326416,0.95648193
1602702390721,431,0.0068359375,0.24066162,0.9220581
1602702390721,432,0.12988281,-0.03326416,0.95648193
1602702390721,433,-0.18457031,0.3217163,1.1349487
1602702390723,434,0.064453125,0.56951904,0.81121826
1602702390724,435,-0.18457031,0.3217163,1.1349487
1602702390724,436,-0.1850586,0.3859253,1.0661011
1602702390727,437,0.16186523,0.6515503,0.79608154
1602702390727,438,-0.1850586,0.3859253,1.0661011
1602702390728,439,-0.028320312,0.2531128,1.0914917
1602702390728,440,-0.028320312,0.2531128,1.0914917
1602702390728,441,0.12670898,0.6264038,0.72039795
1602702390730,442,0.0068359375,0.24066162,0.9220581
1602702390731,443,0.0068359375,0.24066162,0.9220581
1602702390731,444,0.13134766,0.5512085,0.652771
1602702390734,445,0.064453125,0.56951904,0.81121826
1602702390734,446,0.064453125,0.56951904,0.81121826
1602702390734,447,0.060791016,0.54559326,0.6141968
1602702390735,448,0.16186523,0.6515503,0.79608154
1602702390738,449,0.07763672,0.56365967,0.6161499
1602702390738,450,0.16186523,0.6515503,0.79608154
1602702390738,451,0.12670898,0.6264038,0.72039795
1602702390739,452,0.21508789,0.58148193,0.7509155
1602702390742,453,0.13134766,0.5512085,0.652771
1602702390743,454,0.12670898,0.6264038,0.72039795
1602702390743,455,0.16894531,0.5153198,0.8551636
1602702390744,456,0.13134766,0.5512085,0.652771
1602702390745,457,0.15161133,0.43182373,0.8727417
1602702390747,458,0.060791016,0.54559326,0.6141968
1602702390747,459,-0.02758789,0.32806396,0.96502686
1602702390748,460,0.060791016,0.54559326,0.6141968
1602702390749,461,0.07763672,0.56365967,0.6161499
1602702390751,462,0.07763672,0.56365967,0.6161499
1602702390752,463,0.21508789,0.58148193,0.7509155
1602702390755,464,0.21508789,0.58148193,0.7509155
1602702390755,465,-0.114990234,0.3690796,1.0443726
1602702390755,466,0.16894531,0.5153198,0.8551636
1602702390756,467,0.16894531,0.5153198,0.8551636
1602702390759,468,0.15161133,0.43182373,0.8727417
1602702390759,469,0.21044922,0.06536865,1.3407593
1602702390759,470,0.15161133,0.43182373,0.8727417
1602702390760,471,-0.02758789,0.32806396,0.96502686
1602702390763,472,-0.02758789,0.32806396,0.96502686
1602702390763,473,-0.06958008,-0.10211182,1.074646
1602702390763,474,-0.114990234,0.3690796,1.0443726
1602702390765,475,-0.114990234,0.3690796,1.0443726
1602702390765,476,0.21044922,0.06536865,1.3407593
1602702390767,477,0.21044922,0.06536865,1.3407593
1602702390767,478,-0.06958008,-0.10211182,1.074646
1602702390769,479,-0.06958008,-0.10211182,1.074646
1602702393057,480,-0.12768555,-0.26617432,0.95428467
1602702393066,481,-0.12768555,-0.26617432,0.95428467
1602702393067,482,-0.018310547,-0.49273682,0.80926514
1602702393068,483,-0.018310547,-0.49273682,0.80926514
1602702393068,484,-0.110839844,-0.5767212,0.67230225
1602702393068,485,-0.12768555,-0.26617432,0.95428467
1602702393076,486,-0.110839844,-0.5767212,0.67230225
1602702393078,487,0.03955078,-0.55841064,0.5739136
1602702393079,488,-0.018310547,-0.49273682,0.80926514
1602702393080,489,0.03955078,-0.55841064,0.5739136
1602702393080,490,-0.110839844,-0.5767212,0.67230225
1602702393093,491,0.041015625,-0.6231079,0.58758545
1602702393094,492,0.03955078,-0.55841064,0.5739136
1602702393094,493,0.041015625,-0.6231079,0.58758545
1602702393095,494,-0.24243164,-1.078186,0.4862671
1602702393095,495,-0.20166016,-0.55548096,0.14324951
1602702393096,496,0.041015625,-0.6231079,0.58758545
1602702393096,497,-0.24243164,-1.078186,0.4862671
1602702393096,498,-0.24243164,-1.078186,0.4862671
1602702393096,499,-0.05029297,-0.8765259,0.30023193
1602702393097,500,-0.20166016,-0.55548096,0.14324951
1602702393099,501,-0.20166016,-0.55548096,0.14324951
1602702393102,502,-0.05029297,-0.8765259,0.30023193
1602702393103,503,0.13012695,-0.71954346,0.21356201
1602702393103,504,-0.05029297,-0.8765259,0.30023193
1602702393104,505,0.13012695,-0.71954346,0.21356201
1602702393106,506,0.13012695,-0.71954346,0.21356201
1602702393109,507,0.26904297,-1.0442505,0.51678467
1602702393109,508,0.26904297,-1.0442505,0.51678467
1602702393110,509,0.26904297,-1.0442505,0.51678467
1602702393111,510,0.0107421875,-1.6221313,-0.08380127
1602702393113,511,0.0107421875,-1.6221313,-0.08380127
1602702393116,512,-0.84277344,-0.3123169,0.27069092
1602702393116,513,0.0107421875,-1.6221313,-0.08380127
1602702393117,514,0.5390625,-1.359436,-0.6321411
1602702393118,515,-0.84277344,-0.3123169,0.27069092
1602702393121,516,0.65844727,-0.6362915,0.12371826
1602702393121,517,-0.84277344,-0.3123169,0.27069092
1602702393122,518,0.38745117,-0.8286743,0.011169434
1602702393122,519,0.5390625,-1.359436,-0.6321411
1602702393123,520,0.5390625,-1.359436,-0.6321411
1602702393126,521,0.65844727,-0.6362915,0.12371826
1602702393126,522,0.56591797,-0.70928955,0.08831787
1602702393126,523,0.65844727,-0.6362915,0.12371826
1602702393126,524,0.38745117,-0.8286743,0.011169434
1602702393128,525,0.38745117,-0.8286743,0.011169434
1602702393129,526,0.56591797,-0.70928955,0.08831787
1602702393130,527,0.74365234,-0.96954346,0.06707764
1602702393132,528,0.74365234,-0.96954346,0.06707764
1602702393132,529,0.56591797,-0.70928955,0.08831787
1602702393136,530,0.32128906,-1.49469,0.10028076
1602702393137,531,0.32128906,-1.49469,0.10028076
1602702393137,532,0.36987305,-1.1453247,0.10003662
1602702393137,533,0.74365234,-0.96954346,0.06707764
1602702393138,534,0.1862793,-0.56427,0.04437256
1602702393139,535,0.32128906,-1.49469,0.10028076
1602702393142,536,0.36987305,-1.1453247,0.10003662
1602702393142,537,0.36987305,-1.1453247,0.10003662
1602702393143,538,-0.05053711,-0.61016846,0.16912842
1602702393145,539,0.1862793,-0.56427,0.04437256
1602702393146,540,0.1862793,-0.56427,0.04437256
1602702393146,541,0.103027344,-0.9834595,0.6227417
1602702393147,542,-0.05053711,-0.61016846,0.16912842
1602702393150,543,0.088134766,-1.1934204,0.74920654
1602702393150,544,-0.05053711,-0.61016846,0.16912842
1602702393150,545,0.103027344,-0.9834595,0.6227417
1602702393153,546,0.48535156,-1.1184692,-0.26348877
1602702393153,547,0.103027344,-0.9834595,0.6227417
1602702393154,548,0.088134766,-1.1934204,0.74920654
1602702393157,549,0.42773438,-0.8779907,-0.2144165
1602702393157,550,0.088134766,-1.1934204,0.74920654
1602702393157,551,0.48535156,-1.1184692,-0.26348877
1602702393158,552,0.48535156,-1.1184692,-0.26348877
1602702393158,553,0.375,-0.84088135,-0.12677002
1602702393161,554,0.42773438,-0.8779907,-0.2144165
1602702393161,555,0.42773438,-0.8779907,-0.2144165
1602702393161,556,0.36279297,-0.9024048,-0.10040283
1602702393162,557,0.375,-0.84088135,-0.12677002
1602702393163,558,0.33496094,-0.958313,-0.0713501
1602702393164,559,0.36279297,-0.9024048,-0.10040283
1602702393165,560,0.46313477,-0.9038696,-0.051818848
1602702393166,561,0.33496094,-0.958313,-0.0713501
1602702393167,562,0.38867188,-0.8740845,-0.043273926
1602702393169,563,0.46313477,-0.9038696,-0.051818848
1602702393170,564,0.375,-0.84088135,-0.12677002
1602702393170,565,0.3149414,-0.75909424,-0.06109619
1602702393171,566,0.38867188,-0.8740845,-0.043273926
1602702393172,567,0.0126953125,-1.4446411,-0.04107666
1602702393174,568,0.3149414,-0.75909424,-0.06109619
1602702393174,569,0.36279297,-0.9024048,-0.10040283
1602702393175,570,0.0126953125,-1.4446411,-0.04107666
1602702393177,571,0.33496094,-0.958313,-0.0713501
1602702393178,572,0.46313477,-0.9038696,-0.051818848
1602702393180,573,0.38867188,-0.8740845,-0.043273926
1602702393181,574,0.3149414,-0.75909424,-0.06109619
1602702393182,575,0.0126953125,-1.4446411,-0.04107666
1602702395944,576,-0.07885742,-1.1734009,0.113464355
1602702395946,577,-0.07885742,-1.1734009,0.113464355
1602702395950,578,-0.07885742,-1.1734009,0.113464355
1602702395951,579,0.14746094,-0.54644775,0.11639404
1602702395951,580,0.14746094,-0.54644775,0.11639404
1602702395955,581,0.14746094,-0.54644775,0.11639404
1602702395956,582,0.2626953,-0.6084595,0.26849365
1602702395956,583,0.2626953,-0.6084595,0.26849365
1602702395956,584,0.23730469,-1.404602,0.8673706
1602702395961,585,0.23730469,-1.404602,0.8673706
1602702395961,586,0.2626953,-0.6084595,0.26849365
1602702395962,587,0.011230469,-0.30548096,0.39935303
1602702395962,588,0.23730469,-1.404602,0.8673706
1602702395962,589,0.011230469,-0.30548096,0.39935303
1602702395964,590,0.24902344,-0.8965454,0.5680542
1602702395968,591,0.24902344,-0.8965454,0.5680542
1602702395968,592,0.011230469,-0.30548096,0.39935303
1602702395969,593,0.1274414,-0.6055298,0.696228
1602702395969,594,0.24902344,-0.8965454,0.5680542
1602702395971,595,0.1274414,-0.6055298,0.696228
1602702395975,596,0.1274414,-0.6055298,0.696228
1602702395976,597,0.39941406,-0.42437744,0.83709717
1602702395976,598,0.39941406,-0.42437744,0.83709717
1602702395976,599,0.39941406,-0.42437744,0.83709717
1602702395977,600,0.12890625,-0.31939697,0.883728
1602702395979,601,0.12890625,-0.31939697,0.883728
1602702395981,602,-0.20654297,-0.45147705,1.1903687
1602702395985,603,-0.20654297,-0.45147705,1.1903687
1602702395985,604,0.12890625,-0.31939697,0.883728
1602702395986,605,-0.099853516,-0.5496216,1.1351929
1602702395986,606,-0.20654297,-0.45147705,1.1903687
1602702395987,607,-0.16455078,-0.15802002,0.8012085
1602702395988,608,-0.099853516,-0.5496216,1.1351929
1602702395990,609,0.048095703,-0.19049072,0.9550171
1602702395994,610,-0.16455078,-0.15802002,0.8012085
1602702395994,611,-0.099853516,-0.5496216,1.1351929
1602702395995,612,-0.13452148,-0.222229,0.9989624
1602702395998,613,0.048095703,-0.19049072,0.9550171
1602702395999,614,-0.16455078,-0.15802002,0.8012085
1602702396000,615,-0.14086914,-0.020324707,0.93792725
1602702396000,616,0.048095703,-0.19049072,0.9550171
1602702396004,617,-0.13452148,-0.222229,0.9989624
1602702396004,618,-0.10205078,-0.06695557,0.7992554
1602702396005,619,-0.13452148,-0.222229,0.9989624
1602702396010,620,-0.14086914,-0.020324707,0.93792725
1602702396010,621,-0.0637207,0.07928467,0.94744873
1602702396010,622,-0.14086914,-0.020324707,0.93792725
1602702396010,623,-0.042236328,-0.28814697,1.1644897
1602702396011,624,-0.10205078,-0.06695557,0.7992554
1602702396012,625,-0.10205078,-0.06695557,0.7992554
1602702396014,626,-0.0637207,0.07928467,0.94744873
1602702396018,627,-0.0637207,0.07928467,0.94744873
1602702396019,628,-0.25683594,-0.1428833,0.82147217
1602702396019,629,-0.042236328,-0.28814697,1.1644897
1602702396019,630,-0.042236328,-0.28814697,1.1644897
1602702396023,631,-0.040771484,-0.2744751,0.9672241
1602702396024,632,-0.25683594,-0.1428833,0.82147217
1602702396024,633,-0.25683594,-0.1428833,0.82147217
1602702396025,634,-0.053466797,-0.14215088,0.9467163
1602702396030,635,-0.040771484,-0.2744751,0.9672241
1602702396031,636,-0.040771484,-0.2744751,0.9672241
1602702396031,637,-0.110839844,-0.2546997,0.8908081
1602702396032,638,-0.053466797,-0.14215088,0.9467163
1602702396034,639,0.031982422,-0.09185791,0.951355
1602702396039,640,-0.053466797,-0.14215088,0.9467163
1602702396039,641,-0.110839844,-0.2546997,0.8908081
1602702396039,642,-0.099609375,-0.16973877,1.0143433
1602702396040,643,0.031982422,-0.09185791,0.951355
1602702396041,644,-0.110839844,-0.2546997,0.8908081
1602702396042,645,-0.06225586,-0.20025635,0.9550171
1602702396045,646,0.031982422,-0.09185791,0.951355
1602702396046,647,-0.099609375,-0.16973877,1.0143433
1602702396047,648,-0.049316406,-0.08355713,0.914978
1602702396048,649,-0.099609375,-0.16973877,1.0143433
1602702396050,650,-0.09790039,-0.09088135,0.977478
1602702396054,651,-0.06225586,-0.20025635,0.9550171
1602702396054,652,-0.06225586,-0.20025635,0.9550171
1602702396054,653,-0.052490234,-0.030334473,0.9454956
1602702396055,654,-0.049316406,-0.08355713,0.914978
1602702396057,655,-0.049316406,-0.08355713,0.914978
1602702396060,656,-0.09790039,-0.09088135,0.977478
1602702396060,657,-0.01928711,0.002380371,0.8834839
1602702396061,658,-0.09790039,-0.09088135,0.977478
1602702396064,659,-0.052490234,-0.030334473,0.9454956
1602702396065,660,-0.025146484,-0.0960083,0.9537964
1602702396065,661,-0.052490234,-0.030334473,0.9454956
1602702396065,662,-0.01928711,0.002380371,0.8834839
1602702396067,663,-0.12524414,-0.13458252,0.89959717
1602702396070,664,-0.025146484,-0.0960083,0.9537964
1602702396070,665,-0.01928711,0.002380371,0.8834839
1602702396070,666,-0.12524414,-0.13458252,0.89959717
1602702396072,667,-0.025146484,-0.0960083,0.9537964
1602702396075,668,-0.20825195,-0.14971924,0.994812
1602702396075,669,-0.20825195,-0.14971924,0.994812
1602702396077,670,-0.12524414,-0.13458252,0.89959717
1602702396080,671,-0.20825195,-0.14971924,0.994812
1602702398543,672,-0.12841797,-0.28009033,1.1015015
1602702398549,673,-0.12841797,-0.28009033,1.1015015
1602702398549,674,-0.12841797,-0.28009033,1.1015015
1602702398550,675,0.0068359375,-0.2954712,0.91156006
1602702398550,676,0.0068359375,-0.2954712,0.91156006
1602702398551,677,-0.02319336,-0.12335205,0.8978882
1602702398551,678,0.0068359375,-0.2954712,0.91156006
1602702398552,679,-0.02319336,-0.12335205,0.8978882
1602702398553,680,-0.05883789,-0.043273926,0.9122925
1602702398557,681,-0.05883789,-0.043273926,0.9122925
1602702398557,682,-0.07885742,-0.04840088,0.9953003
1602702398558,683,-0.02319336,-0.12335205,0.8978882
1602702398563,684,-0.088378906,-0.11456299,0.93670654
1602702398563,685,-0.07885742,-0.04840088,0.9953003
1602702398564,686,-0.05883789,-0.043273926,0.9122925
1602702398564,687,-0.14648438,-0.09869385,0.9413452
1602702398566,688,-0.088378906,-0.11456299,0.93670654
1602702398568,689,-0.076416016,-0.09527588,0.8932495
1602702398573,690,-0.14648438,-0.09869385,0.9413452
1602702398574,691,-0.07885742,-0.04840088,0.9953003
1602702398575,692,-0.076416016,-0.09527588,0.8932495
1602702398575,693,-0.088378906,-0.11456299,0.93670654
1602702398576,694,-0.055419922,-0.18536377,1.0009155
1602702398576,695,-0.14648438,-0.09869385,0.9413452
1602702398576,696,-0.055419922,-0.18536377,1.0009155
1602702398583,697,-0.013671875,-0.1428833,0.8065796
1602702398583,698,-0.013671875,-0.1428833,0.8065796
1602702398584,699,-0.076416016,-0.09527588,0.8932495
1602702398584,700,-0.053466797,-0.016906738,0.9730835
1602702398585,701,-0.055419922,-0.18536377,1.0009155
1602702398585,702,-0.053466797,-0.016906738,0.9730835
1602702398585,703,-0.013671875,-0.1428833,0.8065796
1602702398586,704,-0.13500977,0.038024902,0.93914795
1602702398587,705,-0.13500977,0.038024902,0.93914795
1602702398590,706,0.046875,-0.21026611,1.296814
1602702398590,707,-0.053466797,-0.016906738,0.9730835
1602702398591,708,0.046875,-0.21026611,1.296814
1602702398592,709,0.16577148,-0.13677979,0.6112671
1602702398598,710,0.16577148,-0.13677979,0.6112671
1602702398598,711,-0.13500977,0.038024902,0.93914795
1602702398599,712,-0.042236328,-0.31695557,0.71990967
1602702398599,713,0.046875,-0.21026611,1.296814
1602702398599,714,-0.24731445,0.2453003,0.91278076
1602702398600,715,-0.042236328,-0.31695557,0.71990967
1602702398603,716,0.16577148,-0.13677979,0.6112671
1602702398603,717,0.13842773,-0.26983643,1.4801636
1602702398604,718,-0.24731445,0.2453003,0.91278076
1602702398604,719,-0.042236328,-0.31695557,0.71990967
1602702398607,720,0.3359375,-0.34259033,0.6400757
1602702398607,721,0.13842773,-0.26983643,1.4801636
1602702398608,722,-0.24731445,0.2453003,0.91278076
1602702398609,723,-0.015625,-0.26617432,0.7572632
1602702398611,724,0.3359375,-0.34259033,0.6400757
1602702398612,725,-0.11303711,0.13079834,1.1002808
1602702398616,726,-0.015625,-0.26617432,0.7572632
1602702398617,727,0.13842773,-0.26983643,1.4801636
1602702398617,728,0.044189453,-0.18756104,1.2318726
1602702398618,729,-0.11303711,0.13079834,1.1002808
1602702398619,730,0.3359375,-0.34259033,0.6400757
1602702398621,731,0.044189453,-0.18756104,1.2318726
1602702398622,732,-0.015625,-0.26617432,0.7572632
1602702398624,733,0.008544922,-0.14093018,0.6679077
1602702398625,734,-0.11303711,0.13079834,1.1002808
1602702398628,735,-0.067871094,-0.26104736,1.0245972
1602702398628,736,0.008544922,-0.14093018,0.6679077
1602702398629,737,0.044189453,-0.18756104,1.2318726
1602702398630,738,-0.08496094,-0.11236572,0.99676514
1602702398634,739,0.008544922,-0.14093018,0.6679077
1602702398634,740,-0.067871094,-0.26104736,1.0245972
1602702398635,741,-0.1027832,0.005065918,0.8703003
1602702398638,742,-0.067871094,-0.26104736,1.0245972
1602702398639,743,-0.08496094,-0.11236572,0.99676514
1602702398639,744,-0.067871094,-0.17047119,0.93499756
1602702398639,745,-0.08496094,-0.11236572,0.99676514
1602702398642,746,-0.1027832,0.005065918,0.8703003
1602702398643,747,0.040283203,-0.16314697,1.0424194
1602702398643,748,-0.1027832,0.005065918,0.8703003
1602702398647,749,-0.067871094,-0.17047119,0.93499756
1602702398648,750,-0.067871094,-0.17047119,0.93499756
1602702398648,751,-0.12426758,-0.18878174,1.1305542
1602702398652,752,0.040283203,-0.16314697,1.0424194
1602702398653,753,-0.025878906,-0.24542236,1.1613159
1602702398653,754,0.040283203,-0.16314697,1.0424194
1602702398656,755,-0.12426758,-0.18878174,1.1305542
1602702398657,756,-0.12426758,-0.18878174,1.1305542
1602702398659,757,-0.025878906,-0.24542236,1.1613159
1602702398660,758,-0.025878906,-0.24542236,1.1613159
1602702398662,759,0.0690918,-0.38433838,1.0160522
1602702398665,760,0.0690918,-0.38433838,1.0160522
1602702398665,761,0.0690918,-0.38433838,1.0160522
1602702398668,762,0.18432617,-0.5479126,0.7765503
1602702398668,763,0.18432617,-0.5479126,0.7765503
1602702398670,764,0.18432617,-0.5479126,0.7765503
1602702398672,765,0.091552734,-0.68341064,0.6090698
1602702398673,766,0.091552734,-0.68341064,0.6090698
1602702398677,767,0.091552734,-0.68341064,0.6090698
1602702400950,768,-0.016601562,-1.0081177,0.5375366
1602702400957,769,-0.016601562,-1.0081177,0.5375366
1602702400957,770,-0.016601562,-1.0081177,0.5375366
1602702400958,771,-0.1899414,-0.8845825,0.31341553
1602702400961,772,-0.1899414,-0.8845825,0.31341553
1602702400970,773,-0.1899414,-0.8845825,0.31341553
1602702400971,774,0.052734375,-0.6436157,0.2987671
1602702400971,775,0.052734375,-0.6436157,0.2987671
1602702400972,776,0.052734375,-0.6436157,0.2987671
1602702400972,777,0.140625,-0.8377075,0.37445068
1602702400973,778,0.140625,-0.8377075,0.37445068
1602702400974,779,0.140625,-0.8377075,0.37445068
1602702400976,780,0.029296875,-0.8364868,0.44696045
1602702400976,781,0.029296875,-0.8364868,0.44696045
1602702400976,782,-0.15185547,-0.90093994,0.5114136
1602702400980,783,0.029296875,-0.8364868,0.44696045
1602702400981,784,-0.15185547,-0.90093994,0.5114136
1602702400982,785,-0.15185547,-0.90093994,0.5114136
1602702400982,786,0.036132812,-0.7241821,0.30316162
1602702400982,787,0.036132812,-0.7241821,0.30316162
1602702400993,788,0.036132812,-0.7241821,0.30316162
1602702400995,789,-0.13623047,-1.3811646,0.4459839
1602702400995,790,-0.13623047,-1.3811646,0.4459839
1602702400996,791,-0.13623047,-1.3811646,0.4459839
1602702400997,792,0.19067383,-0.7385864,-0.2666626
1602702400997,793,0.19067383,-0.7385864,-0.2666626
1602702400998,794,0.19067383,-0.7385864,-0.2666626
1602702400998,795,0.38256836,-1.0374146,-0.23638916
1602702400998,796,0.38256836,-1.0374146,-0.23638916
1602702400999,797,0.38256836,-1.0374146,-0.23638916
1602702401009,798,0.092041016,-0.9981079,-0.082336426
1602702401009,799,0.092041016,-0.9981079,-0.082336426
1602702401010,800,0.092041016,-0.9981079,-0.082336426
1602702401010,801,0.3227539,-0.97076416,-0.05596924
1602702401010,802,0.3227539,-0.97076416,-0.05596924
1602702401010,803,0.3227539,-0.97076416,-0.05596924
1602702401011,804,0.16381836,-0.9746704,-0.035217285
1602702401011,805,0.16381836,-0.9746704,-0.035217285
1602702401011,806,0.16381836,-0.9746704,-0.035217285
1602702401011,807,0.15063477,-1.0056763,-0.15533447
1602702401012,808,0.15063477,-1.0056763,-0.15533447
1602702401012,809,0.15063477,-1.0056763,-0.15533447
1602702401012,810,0.22265625,-1.1065063,-0.04864502
1602702401013,811,0.22265625,-1.1065063,-0.04864502
1602702401013,812,0.22265625,-1.1065063,-0.04864502
1602702401013,813,0.46899414,-1.2124634,-0.004699707
1602702401013,814,0.46899414,-1.2124634,-0.004699707
1602702401016,815,0.46899414,-1.2124634,-0.004699707
1602702401016,816,0.03540039,-1.350647,0.001159668
1602702401016,817,0.03540039,-1.350647,0.001159668
1602702401019,818,0.03540039,-1.350647,0.001159668
1602702401019,819,-0.009765625,-1.0574341,-0.20098877
1602702401019,820,-0.009765625,-1.0574341,-0.20098877
1602702401020,821,-0.009765625,-1.0574341,-0.20098877
1602702401023,822,0.2529297,-0.975647,-0.00982666
1602702401024,823,0.2529297,-0.975647,-0.00982666
1602702401024,824,-0.005126953,-0.5327759,-0.010803223
1602702401024,825,-0.005126953,-0.5327759,-0.010803223
1602702401027,826,0.2529297,-0.975647,-0.00982666
1602702401028,827,-0.103515625,-0.49005127,0.14886475
1602702401028,828,-0.103515625,-0.49005127,0.14886475
1602702401028,829,0.51708984,-1.5759888,0.9772339
1602702401028,830,-0.005126953,-0.5327759,-0.010803223
1602702401031,831,0.51708984,-1.5759888,0.9772339
1602702401031,832,-0.026367188,-1.4290161,-0.56817627
1602702401031,833,-0.103515625,-0.49005127,0.14886475
1602702401034,834,-0.026367188,-1.4290161,-0.56817627
1602702401035,835,-0.34570312,-0.6177368,-0.17144775
1602702401035,836,0.51708984,-1.5759888,0.9772339
1602702401035,837,0.5930176,-1.0488892,-0.09112549
1602702401035,838,-0.34570312,-0.6177368,-0.17144775
1602702401038,839,-0.026367188,-1.4290161,-0.56817627
1602702401038,840,0.30493164,-0.91119385,-0.035705566
1602702401038,841,0.5930176,-1.0488892,-0.09112549
1602702401039,842,-0.34570312,-0.6177368,-0.17144775
1602702401041,843,0.25463867,-0.9468384,-0.04815674
1602702401041,844,0.30493164,-0.91119385,-0.035705566
1602702401041,845,0.5930176,-1.0488892,-0.09112549
1602702401043,846,0.25463867,-0.9468384,-0.04815674
1602702401044,847,0.30493164,-0.91119385,-0.035705566
1602702401044,848,0.37280273,-0.97198486,-0.06964111
1602702401046,849,0.37280273,-0.97198486,-0.06964111
1602702401046,850,0.25463867,-0.9468384,-0.04815674
1602702401046,851,0.4489746,-1.156311,-0.010803223
1602702401048,852,0.4489746,-1.156311,-0.010803223
1602702401049,853,0.37280273,-0.97198486,-0.06964111
1602702401049,854,-0.021240234,-1.4138794,0.028747559
1602702401050,855,-0.021240234,-1.4138794,0.028747559
1602702401051,856,0.10498047,-1.1480103,-0.16461182
1602702401052,857,0.10498047,-1.1480103,-0.16461182
1602702401055,858,0.3322754,-0.7756958,-0.011291504
1602702401055,859,0.4489746,-1.156311,-0.010803223
1602702401057,860,0.3322754,-0.7756958,-0.011291504
1602702401058,861,-0.021240234,-1.4138794,0.028747559
1602702401060,862,0.10498047,-1.1480103,-0.16461182
1602702401060,863,0.3322754,-0.7756958,-0.011291504
1602702403550,864,-0.033203125,-0.46246338,0.082458496
1602702403567,865,-0.03881836,-0.7805786,0.20233154
1602702403568,866,0.5270996,-1.6629028,0.9371948
1602702403568,867,-0.033203125,-0.46246338,0.082458496
1602702403569,868,-0.12670898,-0.975647,-0.3340454
1602702403569,869,-0.03881836,-0.7805786,0.20233154
1602702403570,870,-0.033203125,-0.46246338,0.082458496
1602702403570,871,0.5270996,-1.6629028,0.9371948
1602702403571,872,0.08496094,-1.0325317,-0.42755127
1602702403571,873,-0.12670898,-0.975647,-0.3340454
1602702403572,874,-0.03881836,-0.7805786,0.20233154
1602702403572,875,0.5270996,-1.6629028,0.9371948
1602702403572,876,0.43701172,-0.9338989,-0.1638794
1602702403573,877,-0.12670898,-0.975647,-0.3340454
1602702403574,878,0.28344727,-0.89971924,-0.17266846
1602702403593,879,0.08496094,-1.0325317,-0.42755127
1602702403593,880,0.08496094,-1.0325317,-0.42755127
1602702403594,881,0.24438477,-0.96295166,-0.0725708
1602702403595,882,0.43701172,-0.9338989,-0.1638794
1602702403595,883,0.43701172,-0.9338989,-0.1638794
1602702403596,884,0.28344727,-0.89971924,-0.17266846
1602702403596,885,0.28344727,-0.89971924,-0.17266846
1602702403596,886,0.24438477,-0.96295166,-0.0725708
1602702403597,887,0.24438477,-0.96295166,-0.0725708
1602702403597,888,0.40698242,-0.9871216,-0.047912598
1602702403598,889,0.40698242,-0.9871216,-0.047912598
1602702403598,890,0.32861328,-1.2090454,-0.06060791
1602702403599,891,0.40698242,-0.9871216,-0.047912598
1602702403599,892,-0.11791992,-1.3052368,0.04510498
1602702403599,893,0.32861328,-1.2090454,-0.06060791
1602702403600,894,0.32861328,-1.2090454,-0.06060791
1602702403601,895,-0.11791992,-1.3052368,0.04510498
1602702403601,896,0.21508789,-1.222229,-0.24615479
1602702403602,897,0.21508789,-1.222229,-0.24615479
1602702403602,898,-0.11791992,-1.3052368,0.04510498
1602702403611,899,0.36376953,-0.7095337,0.11419678
1602702403611,900,0.21508789,-1.222229,-0.24615479
1602702403611,901,0.36376953,-0.7095337,0.11419678
1602702403612,902,0.111328125,-0.48492432,0.15228271
1602702403612,903,0.36376953,-0.7095337,0.11419678
1602702403613,904,-0.104003906,-0.77716064,0.43060303
1602702403613,905,0.111328125,-0.48492432,0.15228271
1602702403614,906,0.111328125,-0.48492432,0.15228271
1602702403614,907,-0.104003906,-0.77716064,0.43060303
1602702403614,908,-0.028808594,-1.2356567,0.8851929
1602702403615,909,-0.028808594,-1.2356567,0.8851929
1602702403615,910,-0.104003906,-0.77716064,0.43060303
1602702403618,911,0.38208008,-1.0811157,0.30877686
1602702403619,912,0.38208008,-1.0811157,0.30877686
1602702403619,913,-0.028808594,-1.2356567,0.8851929
1602702403623,914,-0.43554688,-0.9085083,0.109558105
1602702403624,915,-0.43554688,-0.9085083,0.109558105
1602702403624,916,0.38208008,-1.0811157,0.30877686
1602702403624,917,0.39208984,-1.003479,-0.0491333
1602702403626,918,0.39208984,-1.003479,-0.0491333
1602702403636,919,0.17333984,-0.77349854,0.42181396
1602702403637,920,-0.43554688,-0.9085083,0.109558105
1602702403638,921,0.17333984,-0.77349854,0.42181396
1602702403638,922,0.092041016,-0.82818604,0.15350342
1602702403638,923,0.092041016,-0.82818604,0.15350342
1602702403638,924,0.080566406,-1.069397,0.1605835
1602702403639,925,0.080566406,-1.069397,0.1605835
1602702403639,926,0.08129883,-0.9209595,0.21258545
1602702403639,927,0.39208984,-1.003479,-0.0491333
1602702403643,928,0.08129883,-0.9209595,0.21258545
1602702403643,929,-0.0546875,-1.1038208,0.32684326
1602702403644,930,0.17333984,-0.77349854,0.42181396
1602702403644,931,-0.0546875,-1.1038208,0.32684326
1602702403646,932,-0.21044922,-1.0110474,0.37054443
1602702403647,933,-0.21044922,-1.0110474,0.37054443
1602702403651,934,-0.119628906,-1.1182251,0.37127686
1602702403652,935,0.092041016,-0.82818604,0.15350342
1602702403652,936,-0.119628906,-1.1182251,0.37127686
1602702403653,937,-0.27246094,-1.1860962,0.58221436
1602702403653,938,0.080566406,-1.069397,0.1605835
1602702403657,939,-0.27246094,-1.1860962,0.58221436
1602702403658,940,-0.041992188,-0.63775635,0.40545654
1602702403658,941,0.08129883,-0.9209595,0.21258545
1602702403658,942,-0.041992188,-0.63775635,0.40545654
1602702403660,943,-0.49853516,-0.41729736,-0.23175049
1602702403661,944,-0.0546875,-1.1038208,0.32684326
1602702403661,945,-0.49853516,-0.41729736,-0.23175049
1602702403666,946,-1.2492676,-0.5046997,-0.36212158
1602702403667,947,-0.21044922,-1.0110474,0.37054443
1602702403668,948,-1.2492676,-0.5046997,-0.36212158
1602702403668,949,-0.119628906,-1.1182251,0.37127686
1602702403668,950,-0.5114746,-0.59332275,-0.01739502
1602702403669,951,-0.5114746,-0.59332275,-0.01739502
1602702403669,952,-0.27246094,-1.1860962,0.58221436
1602702403669,953,-0.6328125,-0.008117676,-0.12921143
1602702403671,954,-0.6328125,-0.008117676,-0.12921143
1602702403674,955,-0.041992188,-0.63775635,0.40545654
1602702403675,956,-0.49853516,-0.41729736,-0.23175049
1602702403676,957,-1.2492676,-0.5046997,-0.36212158
1602702403678,958,-0.5114746,-0.59332275,-0.01739502
1602702403679,959,-0.6328125,-0.008117676,-0.12921143
1602702406048,960,-0.74902344,-0.39337158,-0.83013916
1602702406072,961,-0.74902344,-0.39337158,-0.83013916
1602702406073,962,-1.0612793,-0.120910645,-1.6699829
1602702406073,963,-1.0612793,-0.120910645,-1.6699829
1602702406073,964,-0.74902344,-0.39337158,-0.83013916
1602702406074,965,-1.0612793,-0.120910645,-1.6699829
1602702406074,966,-0.21044922,-0.26080322,-1.272522
1602702406075,967,-0.21044922,-0.26080322,-1.272522
1602702406075,968,-0.21044922,-0.26080322,-1.272522
1602702406075,969,0.2697754,-0.26934814,-1.3120728
1602702406075,970,0.2697754,-0.26934814,-1.3120728
1602702406075,971,0.12475586,-0.19317627,-1.1575317
1602702406076,972,0.2697754,-0.26934814,-1.3120728
1602702406076,973,0.13208008,-0.1663208,-0.8225708
1602702406080,974,0.12475586,-0.19317627,-1.1575317
1602702406081,975,0.12475586,-0.19317627,-1.1575317
1602702406081,976,0.17944336,0.049987793,-0.75909424
1602702406081,977,0.13208008,-0.1663208,-0.8225708
1602702406084,978,0.107910156,-0.11846924,-1.0928345
1602702406084,979,0.13208008,-0.1663208,-0.8225708
1602702406085,980,0.17944336,0.049987793,-0.75909424
1602702406085,981,0.083496094,-0.19122314,-1.5022583
1602702406086,982,0.17944336,0.049987793,-0.75909424
1602702406090,983,0.107910156,-0.11846924,-1.0928345
1602702406092,984,0.13061523,-0.39019775,-1.3213501
1602702406092,985,0.107910156,-0.11846924,-1.0928345
1602702406093,986,0.083496094,-0.19122314,-1.5022583
1602702406102,987,0.0087890625,-0.39093018,-1.1411743
1602702406102,988,0.083496094,-0.19122314,-1.5022583
1602702406102,989,0.13061523,-0.39019775,-1.3213501
1602702406102,990,0.13061523,-0.39019775,-1.3213501
1602702406103,991,-0.2434082,-0.7427368,-0.93878174
1602702406103,992,0.0087890625,-0.39093018,-1.1411743
1602702406103,993,0.0087890625,-0.39093018,-1.1411743
1602702406103,994,-0.2434082,-0.7427368,-0.93878174
1602702406104,995,-0.45898438,-0.87677,-0.92803955
1602702406104,996,-0.45898438,-0.87677,-0.92803955
1602702406104,997,-0.58325195,-0.77178955,-0.37506104
1602702406105,998,-0.2434082,-0.7427368,-0.93878174
1602702406108,999,-0.6413574,-0.51446533,-0.44610596
1602702406108,1000,-0.58325195,-0.77178955,-0.37506104
1602702406108,1001,-0.32055664,-0.48614502,-0.32647705
1602702406110,1002,-0.45898438,-0.87677,-0.92803955
1602702406112,1003,-0.66748047,-0.30523682,-0.16607666
1602702406113,1004,-0.6413574,-0.51446533,-0.44610596
1602702406113,1005,-0.58325195,-0.77178955,-0.37506104
1602702406113,1006,-0.7680664,-0.49786377,-0.13653564
1602702406115,1007,-0.32055664,-0.48614502,-0.32647705
1602702406116,1008,-1.154541,-0.6694946,0.22088623
1602702406117,1009,-0.66748047,-0.30523682,-0.16607666
1602702406123,1010,-0.75512695,-0.79107666,0.33953857
1602702406123,1011,-0.6413574,-0.51446533,-0.44610596
1602702406123,1012,-0.7680664,-0.49786377,-0.13653564
1602702406124,1013,-0.32055664,-0.48614502,-0.32647705
1602702406124,1014,-0.5776367,0.08392334,0.0692749
1602702406124,1015,-1.154541,-0.6694946,0.22088623
1602702406125,1016,-0.66748047,-0.30523682,-0.16607666
1602702406125,1017,-0.75512695,-0.79107666,0.33953857
1602702406126,1018,-0.7680664,-0.49786377,-0.13653564
1602702406127,1019,-0.5776367,0.08392334,0.0692749
1602702406130,1020,-1.154541,-0.6694946,0.22088623
1602702406130,1021,-0.61743164,-0.09307861,0.47235107
1602702406130,1022,-0.61743164,-0.09307861,0.47235107
1602702406131,1023,-0.75512695,-0.79107666,0.33953857
1602702406133,1024,-0.6960449,-0.74957275,1.083435
1602702406134,1025,-0.6960449,-0.74957275,1.083435
1602702406134,1026,-0.5776367,0.08392334,0.0692749
1602702406135,1027,-0.2668457,-0.8843384,0.9689331
1602702406136,1028,-0.61743164,-0.09307861,0.47235107
1602702406137,1029,-0.20239258,-1.0215454,0.5465698
1602702406138,1030,-0.6960449,-0.74957275,1.083435
1602702406140,1031,-0.2668457,-0.8843384,0.9689331
1602702406141,1032,-0.2668457,-0.8843384,0.9689331
1602702406141,1033,-0.25976562,-0.9338989,0.46697998
1602702406142,1034,-0.20239258,-1.0215454,0.5465698
1602702406144,1035,-0.26220703,-0.7300415,0.4533081
1602702406144,1036,-0.20239258,-1.0215454,0.5465698
1602702406144,1037,-0.25976562,-0.9338989,0.46697998
1602702406146,1038,-0.07519531,-0.6387329,0.43475342
1602702406146,1039,-0.25976562,-0.9338989,0.46697998
1602702406147,1040,-0.26220703,-0.7300415,0.4533081
1602702406154,1041,0.37817383,-0.8616333,-0.11968994
1602702406154,1042,-0.26220703,-0.7300415,0.4533081
1602702406154,1043,-0.07519531,-0.6387329,0.43475342
1602702406154,1044,-0.039794922,-0.8826294,-0.043273926
1602702406155,1045,0.37817383,-0.8616333,-0.11968994
1602702406155,1046,-0.07519531,-0.6387329,0.43475342
1602702406155,1047,0.45043945,-0.96588135,0.11004639
1602702406155,1048,0.37817383,-0.8616333,-0.11968994
1602702406156,1049,-0.039794922,-0.8826294,-0.043273926
1602702406156,1050,-0.039794922,-0.8826294,-0.043273926
1602702406158,1051,0.33911133,-1.4727173,0.06585693
1602702406158,1052,0.45043945,-0.96588135,0.11004639
1602702406160,1053,0.45043945,-0.96588135,0.11004639
1602702406161,1054,0.33911133,-1.4727173,0.06585693
1602702406162,1055,0.33911133,-1.4727173,0.06585693
1602702408544,1056,0.25463867,-1.296936,-0.2210083
1602702408548,1057,0.25463867,-1.296936,-0.2210083
1602702408548,1058,-0.106933594,-1.2505493,0.078308105
1602702408550,1059,0.25463867,-1.296936,-0.2210083
1602702408551,1060,0.17773438,-0.6116333,0.05316162
1602702408553,1061,-0.106933594,-1.2505493,0.078308105
1602702408556,1062,0.1315918,-0.25323486,-0.012756348
1602702408556,1063,0.17773438,-0.6116333,0.05316162
1602702408557,1064,-0.106933594,-1.2505493,0.078308105
1602702408560,1065,0.26391602,-1.536438,1.1754761
1602702408560,1066,0.1315918,-0.25323486,-0.012756348
1602702408561,1067,0.17773438,-0.6116333,0.05316162
1602702408565,1068,-0.35375977,-0.97198486,-0.7073364
1602702408565,1069,0.5012207,-1.7642212,-0.38043213
1602702408565,1070,0.1315918,-0.25323486,-0.012756348
1602702408571,1071,0.26391602,-1.536438,1.1754761
1602702408571,1072,0.08959961,-0.954895,0.17938232
1602702408572,1073,0.26391602,-1.536438,1.1754761
1602702408572,1074,0.10058594,-0.83258057,0.28240967
1602702408573,1075,-0.35375977,-0.97198486,-0.7073364
1602702408573,1076,-0.35375977,-0.97198486,-0.7073364
1602702408575,1077,0.25390625,-0.769104,0.13543701
1602702408579,1078,0.5012207,-1.7642212,-0.38043213
1602702408580,1079,0.5012207,-1.7642212,-0.38043213
1602702408580,1080,0.3046875,-0.86602783,0.062194824
1602702408580,1081,0.08959961,-0.954895,0.17938232
1602702408582,1082,0.08959961,-0.954895,0.17938232
1602702408585,1083,0.10058594,-0.83258057,0.28240967
1602702408586,1084,0.23095703,-1.4404907,0.17474365
1602702408586,1085,0.10058594,-0.83258057,0.28240967
1602702408586,1086,0.25390625,-0.769104,0.13543701
1602702408590,1087,0.14550781,-0.9727173,0.12615967
1602702408590,1088,0.3046875,-0.86602783,0.062194824
1602702408590,1089,0.25390625,-0.769104,0.13543701
1602702408593,1090,0.12890625,-0.88653564,0.050231934
1602702408594,1091,0.3046875,-0.86602783,0.062194824
1602702408594,1092,0.23095703,-1.4404907,0.17474365
1602702408599,1093,-0.049316406,-0.86676025,0.21942139
1602702408599,1094,0.23095703,-1.4404907,0.17474365
1602702408599,1095,0.14550781,-0.9727173,0.12615967
1602702408600,1096,0.14550781,-0.9727173,0.12615967
1602702408600,1097,-0.034179688,-0.9668579,0.16619873
1602702408607,1098,0.12890625,-0.88653564,0.050231934
1602702408608,1099,0.12890625,-0.88653564,0.050231934
1602702408608,1100,0.12939453,-0.9697876,0.26312256
1602702408609,1101,-0.049316406,-0.86676025,0.21942139
1602702408609,1102,0.1586914,-1.0899048,0.049743652
1602702408610,1103,-0.034179688,-0.9668579,0.16619873
1602702408615,1104,-0.049316406,-0.86676025,0.21942139
1602702408615,1105,0.12939453,-0.9697876,0.26312256
1602702408615,1106,0.011962891,-1.060852,-0.009338379
1602702408615,1107,-0.034179688,-0.9668579,0.16619873
1602702408619,1108,0.1586914,-1.0899048,0.049743652
1602702408619,1109,0.01586914,-1.0300903,0.11151123
1602702408619,1110,0.12939453,-0.9697876,0.26312256
1602702408624,1111,0.011962891,-1.060852,-0.009338379
1602702408624,1112,0.21240234,-1.0474243,-0.034484863
1602702408624,1113,0.1586914,-1.0899048,0.049743652
1602702408625,1114,0.01586914,-1.0300903,0.11151123
1602702408625,1115,0.011962891,-1.060852,-0.009338379
1602702408626,1116,0.23608398,-0.99835205,-0.06378174
1602702408631,1117,0.01586914,-1.0300903,0.11151123
1602702408631,1118,0.21240234,-1.0474243,-0.034484863
1602702408631,1119,0.15332031,-1.0117798,0.018981934
1602702408632,1120,0.23608398,-0.99835205,-0.06378174
1602702408635,1121,0.21240234,-1.0474243,-0.034484863
1602702408636,1122,0.17504883,-1.0271606,0.0119018555
1602702408636,1123,0.15332031,-1.0117798,0.018981934
1602702408637,1124,0.23608398,-0.99835205,-0.06378174
1602702408642,1125,0.22436523,-1.0198364,0.014099121
1602702408642,1126,0.17504883,-1.0271606,0.0119018555
1602702408642,1127,0.15332031,-1.0117798,0.018981934
1602702408643,1128,0.22436523,-1.0198364,0.014099121
1602702408643,1129,0.17504883,-1.0271606,0.0119018555
1602702408646,1130,0.10058594,-1.0093384,0.020202637
1602702408647,1131,0.10058594,-1.0093384,0.020202637
1602702408647,1132,0.22436523,-1.0198364,0.014099121
1602702408649,1133,0.076416016,-1.0371704,0.08685303
1602702408652,1134,0.10058594,-1.0093384,0.020202637
1602702408652,1135,0.076416016,-1.0371704,0.08685303
1602702408652,1136,0.036621094,-1.0081177,0.08148193
1602702408657,1137,0.076416016,-1.0371704,0.08685303
1602702408657,1138,0.036621094,-1.0081177,0.08148193
1602702408658,1139,0.039794922,-1.0042114,0.13641357
1602702408658,1140,0.039794922,-1.0042114,0.13641357
1602702408658,1141,0.036621094,-1.0081177,0.08148193
1602702408662,1142,0.06591797,-1.0090942,0.1864624
1602702408662,1143,0.06591797,-1.0090942,0.1864624
1602702408663,1144,0.039794922,-1.0042114,0.13641357
1602702408667,1145,0.037109375,-1.0098267,0.1774292
1602702408667,1146,0.037109375,-1.0098267,0.1774292
1602702408667,1147,0.06591797,-1.0090942,0.1864624
1602702408670,1148,0.011962891,-1.0161743,0.16937256
1602702408670,1149,0.011962891,-1.0161743,0.16937256
1602702408674,1150,0.037109375,-1.0098267,0.1774292
1602702408676,1151,0.011962891,-1.0161743,0.16937256
