# Sensor position: Wrist
# Sensor side: Right
# Activity type: Movement
# Activity code: 9
# Subject id: s1764751
timestamp,seq,accel_x,accel_y,accel_z
1603032714022,0,-0.38916016,0.883728,0.17010498
1603032714100,1,-0.39526367,0.8825073,0.16546631
1603032714179,2,-0.38964844,0.8834839,0.16668701
1603032714258,3,-0.38012695,0.8822632,0.16082764
1603032714337,4,-0.38354492,0.8883667,0.15911865
1603032714415,5,-0.3864746,0.8842163,0.16278076
1603032714494,6,-0.38378906,0.8876343,0.16033936
1603032714573,7,-0.3828125,0.8876343,0.14593506
1603032714652,8,-0.38061523,0.8930054,0.15252686
1603032714730,9,-0.37768555,0.88934326,0.15985107
1603032714809,10,-0.38867188,0.89837646,0.16351318
1603032714888,11,-0.3864746,0.89178467,0.15423584
1603032714967,12,-0.3864746,0.88983154,0.1486206
1603032715045,13,-0.39208984,0.8876343,0.14813232
1603032715124,14,-0.3876953,0.8810425,0.1515503
1603032715203,15,-0.39379883,0.887146,0.15716553
1603032715282,16,-0.39648438,0.8793335,0.15789795
1603032715360,17,-0.4013672,0.8810425,0.15814209
1603032715439,18,-0.39501953,0.88323975,0.15496826
1603032715518,19,-0.39038086,0.88079834,0.15570068
1603032715597,20,-0.39331055,0.8878784,0.15985107
1603032715675,21,-0.39794922,0.8800659,0.16033936
1603032715754,22,-0.40356445,0.8866577,0.1642456
1603032715833,23,-0.39575195,0.88616943,0.16497803
1603032715912,24,-0.38793945,0.8944702,0.16693115
1603032715990,25,-0.39160156,0.89886475,0.17059326
1603032716069,26,-0.40698242,0.88446045,0.1786499
1603032716148,27,-0.41064453,0.8744507,0.1798706
1603032716227,28,-0.3984375,0.8644409,0.18035889
1603032716305,29,-0.3876953,0.85369873,0.1918335
1603032716384,30,-0.38671875,0.8883667,0.22357178
1603032716463,31,-0.39013672,0.8776245,0.24822998
1603032716542,32,-0.39404297,0.84051514,0.24920654
1603032716620,33,-0.4140625,0.822937,0.22845459
1603032716699,34,-0.43041992,0.8082886,0.22894287
1603032716778,35,-0.43823242,0.8007202,0.22039795
1603032716857,36,-0.47485352,0.8043823,0.21917725
1603032716935,37,-0.52441406,0.83758545,0.22210693
1603032717014,38,-0.56689453,0.89837646,0.17181396
1603032717093,39,-0.5500488,0.8722534,0.09075928
1603032717172,40,-0.50927734,0.7963257,0.022399902
1603032717250,41,-0.57543945,0.7548218,-0.006164551
1603032717329,42,-0.7175293,0.7592163,0.0028686523
1603032717408,43,-0.73657227,0.7682495,0.023620605
1603032717487,44,-0.7626953,0.7164917,0.03265381
1603032717565,45,-0.8305664,0.6781616,0.026550293
1603032717644,46,-0.8894043,0.607605,0.078308105
1603032717723,47,-0.8815918,0.55804443,0.09881592
1603032717802,48,-0.8925781,0.5372925,0.12615967
1603032717880,49,-0.8664551,0.543396,0.17279053
1603032717959,50,-0.8076172,0.61468506,0.16888428
1603032718038,51,-0.7717285,0.5355835,0.20379639
1603032718117,52,-0.72143555,0.5956421,0.2819214
1603032718195,53,-0.6813965,0.61053467,0.33587646
1603032718274,54,-0.5957031,0.5817261,0.39935303
1603032718353,55,-0.421875,0.51190186,0.40740967
1603032718432,56,-0.6311035,0.6088257,0.4003296
1603032718510,57,-0.67285156,0.6137085,0.50408936
1603032718589,58,-0.70996094,0.5619507,0.61395264
1603032718668,59,-0.6621094,0.46014404,0.64398193
1603032718747,60,-0.64868164,0.4574585,0.6852417
1603032718825,61,-0.6916504,0.47650146,0.6588745
1603032718904,62,-0.64453125,0.3366089,0.56658936
1603032718983,63,-0.6594238,0.31829834,0.5343628
1603032719062,64,-0.7578125,0.40740967,0.6342163
1603032719140,65,-0.7026367,0.5228882,0.7081909
1603032719219,66,-0.60595703,0.5114136,0.65667725
1603032719298,67,-0.5656738,0.5272827,0.5907593
1603032719377,68,-0.52490234,0.49871826,0.55511475
1603032719455,69,-0.5390625,0.42938232,0.6039429
1603032719534,70,-0.6582031,0.4413452,0.66204834
1603032719613,71,-0.5957031,0.45159912,0.65911865
1603032719692,72,-0.6020508,0.51605225,0.590271
1603032719770,73,-0.560791,0.5199585,0.57318115
1603032719849,74,-0.6044922,0.5211792,0.51556396
1603032719928,75,-0.7446289,0.418396,0.46453857
1603032720007,76,-0.81689453,0.27459717,0.4772339
1603032720085,77,-0.75,0.22845459,0.46575928
1603032720164,78,-0.6503906,0.32000732,0.45819092
1603032720243,79,-0.7546387,0.3944702,0.44207764
1603032720322,80,-0.70288086,0.48529053,0.42547607
1603032720400,81,-0.6635742,0.61834717,0.39569092
1603032720479,82,-0.6352539,0.7086792,0.36883545
1603032720558,83,-0.5654297,0.7658081,0.33148193
1603032720637,84,-0.5678711,0.79241943,0.3168335
1603032720715,85,-0.56225586,0.8356323,0.31829834
1603032720794,86,-0.5605469,0.83221436,0.2592163
1603032720873,87,-0.51049805,0.80096436,0.17474365
1603032720952,88,-0.5031738,0.8085327,0.15008545
1603032721030,89,-0.5576172,0.9303589,0.12176514
1603032721109,90,-0.5695801,0.9203491,0.105407715
1603032721188,91,-0.5463867,0.7536011,0.109558105
1603032721267,92,-0.5202637,0.7230835,0.16790771
1603032721345,93,-0.50927734,0.8427124,0.17718506
1603032721424,94,-0.5197754,0.9491577,0.1774292
1603032721503,95,-0.54296875,0.8973999,0.14544678
1603032721582,96,-0.5539551,0.87371826,0.10321045
1603032721685,97,-0.53149414,0.95062256,0.06829834
1603032721788,98,-0.52612305,0.82440186,0.05999756
1603032721891,99,-0.45874023,0.8480835,0.11126709
1603032721994,100,-0.40307617,0.9052124,0.14813232
1603032722097,101,-0.4284668,0.83709717,0.22088623
1603032722200,102,-0.39819336,0.7872925,0.2892456
1603032722303,103,-0.4116211,0.78411865,0.31121826
1603032722406,104,-0.38476562,0.8173218,0.35272217
1603032722509,105,-0.38549805,0.8451538,0.36151123
1603032722612,106,-0.40307617,0.81903076,0.32611084
1603032722715,107,-0.44262695,0.8461304,0.28851318
1603032722818,108,-0.47387695,0.83758545,0.26385498
1603032722921,109,-0.46411133,0.7616577,0.24945068
1603032723024,110,-0.47314453,0.8163452,0.23040771
1603032723127,111,-0.5263672,0.9003296,0.17279053
1603032723231,112,-0.607666,0.8822632,0.0758667
1603032723334,113,-0.6230469,0.7770386,0.07196045
1603032723437,114,-0.6230469,0.7501831,0.12542725
1603032723540,115,-0.5800781,0.79559326,0.19940186
1603032723643,116,-0.52856445,0.8031616,0.28460693
1603032723746,117,-0.4580078,0.81243896,0.29241943
1603032723849,118,-0.49194336,0.8773804,0.24432373
1603032723952,119,-0.5217285,1.0177612,0.13006592
1603032724055,120,-0.6166992,0.8595581,0.07611084
1603032724158,121,-0.57055664,0.8085327,0.101257324
1603032724261,122,-0.5571289,0.836853,0.11590576
1603032724364,123,-0.5996094,0.809021,0.20135498
1603032724467,124,-0.52612305,0.7897339,0.3234253
1603032724570,125,-0.44189453,0.7665405,0.37371826
1603032724673,126,-0.39257812,0.74627686,0.35736084
1603032724776,127,-0.37036133,0.7387085,0.34075928
1603032724880,128,-0.42749023,0.7340698,0.35198975
1603032724958,129,-0.59472656,0.77752686,0.37371826
1603032725037,130,-0.6201172,0.743103,0.3949585
1603032725116,131,-0.57055664,0.684021,0.355896
1603032725195,132,-0.5488281,0.6654663,0.32366943
1603032725273,133,-0.59521484,0.66400146,0.34100342
1603032725352,134,-0.6520996,0.5927124,0.35369873
1603032725431,135,-0.7907715,0.5026245,0.39764404
1603032725510,136,-0.8737793,0.4196167,0.4081421
1603032725588,137,-0.9099121,0.33050537,0.44036865
1603032725667,138,-0.935791,0.25115967,0.44573975
1603032725746,139,-0.9909668,0.20941162,0.47625732
1603032725825,140,-0.88623047,0.12835693,0.47698975
1603032725903,141,-0.7998047,0.10736084,0.4545288
1603032725982,142,-0.7597656,0.097351074,0.4743042
1603032726061,143,-0.79345703,0.12445068,0.5338745
1603032726140,144,-0.7739258,0.16766357,0.5680542
1603032726218,145,-0.6936035,0.23675537,0.5790405
1603032726297,146,-0.6298828,0.3866577,0.53289795
1603032726376,147,-0.7104492,0.4274292,0.50408936
1603032726455,148,-0.69628906,0.5216675,0.5038452
1603032726533,149,-0.6970215,0.55145264,0.4923706
1603032726612,150,-0.6845703,0.54119873,0.54193115
1603032726691,151,-0.6489258,0.50042725,0.6256714
1603032726770,152,-0.6333008,0.4718628,0.7025757
1603032726848,153,-0.548584,0.47991943,0.8109741
1603032726927,154,-0.4309082,0.4389038,0.83221436
1603032727006,155,-0.40649414,0.41082764,0.7562866
1603032727085,156,-0.390625,0.43572998,0.680603
1603032727163,157,-0.35107422,0.49725342,0.59906006
1603032727242,158,-0.33935547,0.61102295,0.5348511
1603032727321,159,-0.29345703,0.67303467,0.5038452
1603032727400,160,-0.26611328,0.74554443,0.5204468
1603032727478,161,-0.22338867,0.8197632,0.55511475
1603032727557,162,-0.15527344,0.869812,0.55340576
1603032727636,163,-0.19433594,0.9220581,0.5765991
1603032727715,164,-0.100097656,0.8539429,0.43963623
1603032727793,165,-0.1303711,0.8915405,0.62542725
1603032727872,166,-0.15136719,0.88397217,0.633728
1603032727951,167,-0.0048828125,0.918396,0.64520264
1603032728030,168,-0.25708008,0.85369873,0.6605835
1603032728108,169,-0.41748047,0.70721436,0.5951538
1603032728187,170,-0.47583008,0.6039429,0.6522827
1603032728266,171,-0.5358887,0.53656006,0.6503296
1603032728345,172,-0.7453613,0.33392334,0.60028076
1603032728423,173,-0.76342773,0.16473389,0.5560913
1603032728502,174,-0.69384766,0.09490967,0.58465576
1603032728581,175,-0.7199707,0.005554199,0.5734253
1603032728660,176,-0.60253906,-0.059387207,0.5465698
1603032728738,177,-0.4855957,-0.093566895,0.449646
1603032728817,178,-0.6376953,-0.070129395,0.48162842
1603032728896,179,-0.6665039,-0.026916504,0.57611084
1603032728975,180,-0.7397461,0.05731201,0.65545654
1603032729053,181,-0.7866211,0.12615967,0.72406006
1603032729132,182,-0.74316406,0.19891357,0.6178589
1603032729211,183,-0.6796875,0.30755615,0.61932373
1603032729290,184,-0.57128906,0.44769287,0.6515503
1603032729368,185,-0.5751953,0.5680542,0.64398193
1603032729447,186,-0.5690918,0.67596436,0.7196655
1603032729526,187,-0.48876953,0.7050171,0.6246948
1603032729605,188,-0.32226562,0.7484741,0.5878296
1603032729683,189,-0.26464844,0.7367554,0.58343506
1603032729762,190,-0.26367188,0.7345581,0.68914795
1603032729841,191,-0.37109375,0.6925659,0.61883545
1603032729920,192,-0.3359375,0.649353,0.56170654
1603032729998,193,-0.38134766,0.59954834,0.539978
1603032730077,194,-0.39648438,0.6054077,0.5663452
1603032730156,195,-0.43188477,0.62713623,0.53118896
1603032730235,196,-0.45996094,0.638855,0.51605225
1603032730313,197,-0.46704102,0.6449585,0.5050659
1603032730392,198,-0.48632812,0.652771,0.5006714
1603032730471,199,-0.49853516,0.69573975,0.45794678
1603032730550,200,-0.5041504,0.79119873,0.4159546
1603032730628,201,-0.48706055,0.8644409,0.36175537
1603032730707,202,-0.49951172,0.8119507,0.29925537
1603032730786,203,-0.55371094,0.73431396,0.24261475
1603032730865,204,-0.62719727,0.7279663,0.22137451
1603032730943,205,-0.6887207,0.7406616,0.20550537
1603032731022,206,-0.7089844,0.7025757,0.20697021
1603032731101,207,-0.7104492,0.65057373,0.22161865
1603032731180,208,-0.7236328,0.64520264,0.22869873
1603032731258,209,-0.7451172,0.68499756,0.24725342
1603032731337,210,-0.7270508,0.7223511,0.28240967
1603032731416,211,-0.6611328,0.74871826,0.31048584
1603032731495,212,-0.5942383,0.7633667,0.3192749
1603032731573,213,-0.55688477,0.7597046,0.30194092
1603032731652,214,-0.58618164,0.8493042,0.26312256
1603032731731,215,-0.64038086,0.82562256,0.22357178
1603032731810,216,-0.5974121,0.8283081,0.23724365
1603032731888,217,-0.5371094,0.82073975,0.21966553
1603032731967,218,-0.5559082,0.7379761,0.2658081
1603032732046,219,-0.4802246,0.69085693,0.35321045
1603032732125,220,-0.45776367,0.6522827,0.43084717
1603032732203,221,-0.4580078,0.61273193,0.49066162
1603032732282,222,-0.4777832,0.6383667,0.4953003
1603032732361,223,-0.5148926,0.6300659,0.49676514
1603032732440,224,-0.5175781,0.61468506,0.51971436
1603032732518,225,-0.5251465,0.5812378,0.5038452
1603032732597,226,-0.54833984,0.5993042,0.47821045
1603032732676,227,-0.60668945,0.7133179,0.4706421
1603032732755,228,-0.60546875,0.68743896,0.39666748
1603032732833,229,-0.5979004,0.6598511,0.30145264
1603032732912,230,-0.65649414,0.6664429,0.26361084
1603032732991,231,-0.73876953,0.78460693,0.22943115
1603032733070,232,-0.7766113,0.7838745,0.19281006
1603032733148,233,-0.7336426,0.6918335,0.16912842
1603032733227,234,-0.70043945,0.68963623,0.21453857
1603032733306,235,-0.704834,0.70184326,0.21966553
1603032733385,236,-0.7216797,0.6713257,0.23382568
1603032733463,237,-0.7453613,0.70184326,0.24163818
1603032733542,238,-0.75512695,0.7321167,0.24725342
1603032733621,239,-0.73046875,0.6989136,0.2477417
1603032733700,240,-0.6887207,0.66204834,0.28240967
1603032733778,241,-0.66845703,0.6046753,0.30755615
1603032733857,242,-0.6765137,0.5841675,0.3480835
1603032733936,243,-0.6669922,0.66522217,0.38153076
1603032734015,244,-0.69750977,0.64227295,0.3673706
1603032734093,245,-0.6911621,0.5175171,0.3847046
1603032734172,246,-0.62646484,0.5385132,0.48797607
1603032734251,247,-0.6003418,0.6503296,0.54193115
1603032734330,248,-0.6447754,0.69866943,0.5409546
1603032734408,249,-0.6765137,0.66400146,0.5282593
1603032734487,250,-0.6345215,0.6246948,0.5231323
1603032734566,251,-0.65185547,0.5101929,0.51483154
1603032734645,252,-0.6281738,0.38909912,0.5180054
1603032734723,253,-0.53564453,0.34368896,0.50531006
1603032734802,254,-0.53759766,0.34735107,0.5067749
1603032734881,255,-0.65283203,0.43206787,0.5075073
1603032734960,256,-0.6352539,0.4022827,0.5092163
1603032735038,257,-0.7331543,0.39764404,0.42962646
1603032735117,258,-0.814209,0.5133667,0.41864014
1603032735196,259,-0.8613281,0.5946655,0.41986084
1603032735275,260,-0.82714844,0.6124878,0.38519287
1603032735353,261,-0.7783203,0.57977295,0.38031006
1603032735432,262,-0.7194824,0.574646,0.41156006
1603032735511,263,-0.69750977,0.5722046,0.43548584
1603032735590,264,-0.66552734,0.56243896,0.4393921
1603032735668,265,-0.6557617,0.6442261,0.44866943
1603032735747,266,-0.65478516,0.6325073,0.4376831
1603032735826,267,-0.6022949,0.6251831,0.42962646
1603032735905,268,-0.5498047,0.6942749,0.432312
1603032735983,269,-0.55078125,0.6889038,0.43450928
1603032736062,270,-0.560791,0.68499756,0.43743896
1603032736141,271,-0.58691406,0.64520264,0.45599365
1603032736220,272,-0.5644531,0.6156616,0.46087646
1603032736298,273,-0.5541992,0.6168823,0.4640503
1603032736377,274,-0.53808594,0.61273193,0.4647827
1603032736456,275,-0.545166,0.6149292,0.463562
1603032736535,276,-0.57470703,0.69085693,0.45037842
1603032736613,277,-0.625,0.7731323,0.42889404
1603032736692,278,-0.60253906,0.6972046,0.35321045
1603032736771,279,-0.592041,0.6635132,0.28826904
1603032736850,280,-0.6503906,0.6832886,0.27093506
1603032736928,281,-0.70458984,0.75457764,0.26556396
1603032737007,282,-0.72216797,0.7067261,0.23358154
1603032737086,283,-0.6467285,0.60150146,0.24334717
1603032737165,284,-0.6291504,0.5946655,0.26776123
1603032737243,285,-0.62524414,0.6703491,0.28778076
1603032737322,286,-0.6826172,0.7785034,0.2929077
1603032737401,287,-0.7109375,0.8637085,0.26800537
1603032737480,288,-0.7219238,0.7418823,0.24578857
1603032737558,289,-0.72387695,0.6737671,0.26605225
1603032737637,290,-0.7866211,0.6022339,0.2753296
1603032737716,291,-0.74780273,0.49261475,0.28118896
1603032737795,292,-0.73095703,0.48406982,0.29803467
1603032737873,293,-0.7468262,0.572937,0.29266357
1603032737952,294,-0.7114258,0.70843506,0.25164795
1603032738031,295,-0.6464844,0.7838745,0.2584839
1603032738110,296,-0.5673828,0.73773193,0.215271
1603032738188,297,-0.65600586,0.69329834,0.27703857
1603032738267,298,-0.55029297,0.7340698,0.34613037
1603032738346,299,-0.5275879,0.7289429,0.41082764
1603032738425,300,-0.5678711,0.701355,0.39178467
1603032738503,301,-0.546875,0.7272339,0.33343506
1603032738582,302,-0.56030273,0.76116943,0.31951904
1603032738661,303,-0.44702148,0.7518921,0.3312378
1603032738740,304,-0.3720703,0.76776123,0.3768921
1603032738818,305,-0.22680664,0.80267334,0.46600342
1603032738897,306,-0.2487793,0.82244873,0.51556396
1603032738976,307,-0.30029297,0.8200073,0.543396
1603032739055,308,-0.30151367,0.7926636,0.5585327
1603032739133,309,-0.25585938,0.7838745,0.6137085
1603032739212,310,-0.24267578,0.6664429,0.6679077
1603032739291,311,-0.24121094,0.6168823,0.64056396
1603032739370,312,-0.2709961,0.57806396,0.5778198
1603032739448,313,-0.29174805,0.6132202,0.56073
1603032739527,314,-0.35009766,0.6466675,0.5194702
1603032739606,315,-0.4206543,0.70965576,0.47650146
1603032739685,316,-0.46875,0.78533936,0.47161865
1603032739763,317,-0.48339844,0.79193115,0.480896
1603032739842,318,-0.5024414,0.7758179,0.5060425
1603032739921,319,-0.51049805,0.75946045,0.48895264
1603032740000,320,-0.51953125,0.72088623,0.5145874
1603032740092,321,-0.48095703,0.66741943,0.53240967
1603032740185,322,-0.5266113,0.6137085,0.5162964
1603032740278,323,-0.58154297,0.5856323,0.5392456
1603032740371,324,-0.6279297,0.53338623,0.4850464
1603032740463,325,-0.7348633,0.46844482,0.40008545
1603032740556,326,-0.78759766,0.48382568,0.35760498
1603032740649,327,-0.79345703,0.53704834,0.35516357
1603032740742,328,-0.7734375,0.55804443,0.3078003
1603032740834,329,-0.79467773,0.5685425,0.24798584
1603032740927,330,-0.89160156,0.5709839,0.1708374
1603032741020,331,-0.9108887,0.590271,0.13104248
1603032741113,332,-0.86499023,0.6083374,0.10858154
1603032741205,333,-0.7919922,0.6022339,0.13494873
1603032741298,334,-0.79003906,0.5939331,0.15570068
1603032741391,335,-0.7993164,0.59783936,0.15203857
1603032741484,336,-0.8198242,0.6005249,0.13861084
1603032741576,337,-0.814209,0.5722046,0.14031982
1603032741669,338,-0.8117676,0.57855225,0.19207764
1603032741762,339,-0.79711914,0.5848999,0.22479248
1603032741855,340,-0.7883301,0.59906006,0.2008667
1603032741947,341,-0.763916,0.61273193,0.19134521
1603032742040,342,-0.7175293,0.6112671,0.24822998
1603032742133,343,-0.7128906,0.62371826,0.2645874
1603032742226,344,-0.69921875,0.65374756,0.27093506
1603032742318,345,-0.638916,0.66156006,0.30316162
1603032742411,346,-0.6166992,0.67523193,0.3480835
1603032742504,347,-0.6254883,0.7196655,0.3475952
1603032742597,348,-0.56518555,0.7416382,0.3378296
1603032742689,349,-0.56640625,0.7650757,0.33538818
1603032742782,350,-0.5686035,0.7640991,0.34320068
1603032742875,351,-0.57250977,0.7555542,0.34100342
1603032742968,352,-0.57470703,0.7225952,0.34002686
1603032743046,353,-0.5871582,0.6984253,0.3475952
1603032743125,354,-0.56762695,0.6749878,0.3522339
1603032743204,355,-0.6152344,0.6605835,0.2850952
1603032743283,356,-0.6369629,0.66741943,0.3300171
1603032743361,357,-0.6723633,0.6520386,0.33709717
1603032743440,358,-0.65527344,0.63812256,0.36175537
1603032743519,359,-0.6804199,0.6486206,0.33343506
1603032743598,360,-0.6911621,0.6791382,0.31951904
1603032743676,361,-0.7084961,0.72210693,0.29144287
1603032743755,362,-0.6833496,0.73236084,0.2819214
1603032743834,363,-0.6660156,0.7182007,0.27630615
1603032743913,364,-0.69555664,0.6847534,0.24456787
1603032743991,365,-0.7158203,0.6481323,0.22991943
1603032744070,366,-0.7150879,0.6132202,0.20697021
1603032744149,367,-0.7109375,0.61468506,0.18719482
1603032744228,368,-0.7138672,0.6107788,0.18719482
1603032744306,369,-0.69433594,0.6220093,0.20281982
1603032744385,370,-0.65112305,0.62664795,0.22894287
1603032744464,371,-0.6738281,0.6791382,0.25750732
1603032744543,372,-0.69750977,0.7091675,0.29534912
1603032744621,373,-0.70947266,0.72406006,0.34051514
1603032744700,374,-0.7392578,0.68963623,0.30462646
1603032744779,375,-0.76831055,0.66326904,0.27215576
1603032744858,376,-0.7861328,0.65545654,0.23797607
1603032744936,377,-0.77490234,0.6535034,0.21380615
1603032745015,378,-0.76000977,0.66522217,0.20404053
1603032745094,379,-0.7307129,0.6942749,0.2296753
1603032745173,380,-0.67944336,0.7008667,0.27972412
1603032745251,381,-0.64746094,0.68011475,0.2987671
1603032745330,382,-0.63061523,0.6329956,0.3168335
1603032745409,383,-0.6022949,0.59661865,0.3397827
