# Sensor position: Front pocket (trouser)
# Sensor side: Left
# Activity type: Movement
# Activity code: 9
# Subject id: s1764751
timestamp,seq,accel_x,accel_y,accel_z
1603033170499,0,-0.27270508,-1.0249634,-0.02545166
1603033170577,1,-0.27441406,-1.0249634,-0.020324707
1603033170656,2,-0.26782227,-1.0264282,-0.026672363
1603033170735,3,-0.2775879,-1.0247192,-0.024719238
1603033170814,4,-0.27001953,-1.0283813,-0.018371582
1603033170892,5,-0.27685547,-1.0249634,-0.024719238
1603033170971,6,-0.26757812,-1.0283813,-0.02520752
1603033171050,7,-0.2770996,-1.0234985,-0.018615723
1603033171129,8,-0.27490234,-1.0239868,-0.023254395
1603033171207,9,-0.27490234,-1.0256958,-0.023986816
1603033171286,10,-0.27514648,-1.0269165,-0.027648926
1603033171365,11,-0.2775879,-1.0261841,-0.030578613
1603033171444,12,-0.27661133,-1.0276489,-0.025939941
1603033171522,13,-0.2800293,-1.0234985,-0.031799316
1603033171601,14,-0.28027344,-1.0237427,-0.031799316
1603033171680,15,-0.28271484,-1.0256958,-0.023986816
1603033171759,16,-0.28100586,-1.0249634,-0.038391113
1603033171837,17,-0.29296875,-1.0166626,-0.03302002
1603033171916,18,-0.2746582,-1.0283813,-0.023986816
1603033171995,19,-0.3022461,-1.019104,-0.012268066
1603033172074,20,-0.29638672,-1.0203247,-0.007385254
1603033172152,21,-0.3149414,-1.0169067,0.0053100586
1603033172231,22,-0.31811523,-1.015686,0.007751465
1603033172310,23,-0.34106445,-1.0186157,0.015563965
1603033172389,24,-0.39233398,-1.0127563,0.018981934
1603033172467,25,-0.41479492,-1.0042114,0.00970459
1603033172546,26,-0.3786621,-1.0005493,-0.022277832
1603033172625,27,-0.35327148,-0.99005127,-0.04156494
1603033172704,28,-0.38598633,-0.9849243,-0.06304932
1603033172782,29,-0.3942871,-0.9807739,-0.043762207
1603033172861,30,-0.41455078,-0.95758057,-0.06890869
1603033172940,31,-0.43554688,-0.9729614,-0.057922363
1603033173019,32,-0.4255371,-0.9590454,-0.037902832
1603033173097,33,-0.41357422,-0.9602661,0.009460449
1603033173176,34,-0.39526367,-0.9505005,-0.01763916
1603033173255,35,-0.37036133,-0.97198486,0.003112793
1603033173334,36,-0.4091797,-1.017395,-0.017150879
1603033173412,37,-0.4255371,-1.0105591,-0.031066895
1603033173491,38,-0.3552246,-1.0261841,0.015808105
1603033173570,39,-0.2788086,-1.0598755,0.02532959
1603033173649,40,-0.21582031,-1.0117798,0.031433105
1603033173727,41,-0.16259766,-1.0298462,0.06756592
1603033173806,42,-0.12719727,-1.0630493,0.01727295
1603033173885,43,-0.12890625,-1.0425415,-0.030090332
1603033173964,44,-0.0859375,-1.0610962,-0.002746582
1603033174042,45,-0.12231445,-1.0523071,-0.008850098
1603033174121,46,-0.11230469,-1.0430298,-0.024963379
1603033174200,47,-0.03100586,-1.06427,-0.02130127
1603033174279,48,-0.1484375,-1.0527954,-0.024963379
1603033174357,49,-0.18139648,-1.0293579,0.014831543
1603033174436,50,-0.1184082,-1.0413208,9.1552734E-4
1603033174515,51,-0.123535156,-1.0437622,-0.012023926
1603033174594,52,-0.111328125,-1.0425415,-0.004211426
1603033174672,53,-0.091552734,-1.0457153,0.0021362305
1603033174751,54,-0.100097656,-1.0601196,-0.022033691
1603033174830,55,-0.14257812,-1.0916138,0.039489746
1603033174909,56,-0.20239258,-1.0803833,0.12786865
1603033174987,57,-0.34423828,-1.0083618,-0.051574707
1603033175066,58,-0.38134766,-1.0545044,-0.046691895
1603033175145,59,-0.3701172,-1.0852661,-0.07183838
1603033175224,60,-0.2487793,-1.071106,-6.1035156E-5
1603033175302,61,-0.41357422,-0.91729736,-0.109436035
1603033175381,62,-0.35864258,-0.8989868,-0.08917236
1603033175460,63,-0.40771484,-0.8953247,-0.15362549
1603033175539,64,-0.41381836,-0.90338135,-0.16778564
1603033175635,65,-0.41015625,-0.9727173,-0.23760986
1603033175732,66,-0.4567871,-0.94366455,-0.25982666
1603033175828,67,-0.4663086,-0.9920044,-0.14776611
1603033175925,68,-0.3725586,-1.0960083,-0.113098145
1603033176021,69,-0.22973633,-0.94000244,-0.10284424
1603033176118,70,-0.1928711,-1.0271606,-0.09503174
1603033176214,71,-0.20874023,-1.0891724,-0.18267822
1603033176311,72,-0.27929688,-0.9949341,-0.05206299
1603033176407,73,-0.21508789,-1.0549927,-0.11407471
1603033176504,74,-0.15844727,-1.0576782,-0.109191895
1603033176600,75,-0.21069336,-1.0457153,-0.11773682
1603033176697,76,-0.18652344,-1.0479126,-0.09185791
1603033176793,77,-0.15917969,-1.0484009,-0.04449463
1603033176890,78,-0.17822266,-1.0430298,-0.081604004
1603033176986,79,-0.17993164,-1.0432739,-0.054504395
1603033177083,80,-0.18383789,-1.0513306,-0.06524658
1603033177180,81,-0.19238281,-1.0505981,-0.058410645
1603033177276,82,-0.20629883,-1.0278931,-0.0064086914
1603033177373,83,-0.16479492,-1.0525513,-0.05303955
1603033177469,84,-0.2265625,-1.0337524,-0.03326416
1603033177566,85,-0.20605469,-1.0413208,-0.043518066
1603033177662,86,-0.19311523,-1.041565,-0.04498291
1603033177759,87,-0.19360352,-1.0359497,-0.043762207
1603033177855,88,-0.17529297,-1.052063,-0.058166504
1603033177952,89,-0.21411133,-1.029602,-0.051086426
1603033178048,90,-0.18725586,-1.0442505,-0.0635376
1603033178145,91,-0.20483398,-1.0437622,-0.07281494
1603033178241,92,-0.20532227,-1.036438,-0.07940674
1603033178338,93,-0.16894531,-1.0508423,-0.08111572
1603033178434,94,-0.21899414,-1.0220337,-0.078430176
1603033178531,95,-0.18945312,-1.0462036,-0.09967041
1603033178628,96,-0.17871094,-1.046936,-0.10870361
1603033178706,97,-0.19848633,-1.0449829,-0.10845947
1603033178785,98,-0.19091797,-1.0437622,-0.06915283
1603033178864,99,-0.18896484,-1.0493774,-0.15142822
1603033178943,100,-0.23706055,-1.036438,-0.11090088
1603033179021,101,-0.19458008,-1.0357056,-0.094055176
1603033179100,102,-0.23291016,-1.0234985,-0.12554932
1603033179179,103,-0.21923828,-1.0286255,-0.10675049
1603033179258,104,-0.2006836,-1.0510864,-0.12310791
1603033179336,105,-0.22338867,-1.0293579,-0.08721924
1603033179415,106,-0.22192383,-1.0149536,-0.093811035
1603033179494,107,-0.2854004,-0.99591064,-0.03643799
1603033179573,108,-0.30371094,-1.0117798,-0.061340332
1603033179651,109,-0.34033203,-1.000061,-0.036193848
1603033179730,110,-0.52075195,-0.98516846,-0.012023926
1603033179809,111,-0.48754883,-1.0003052,-0.054992676
1603033179888,112,-0.42626953,-0.9915161,0.020690918
1603033179966,113,-0.46875,-0.9807739,-0.054504395
1603033180045,114,-0.42895508,-0.9873657,-0.11895752
1603033180124,115,-0.43823242,-0.9741821,-0.014465332
1603033180203,116,-0.34277344,-1.034729,-0.17242432
1603033180281,117,-0.44848633,-0.9607544,-0.08795166
1603033180360,118,-0.42578125,-0.89556885,-0.014709473
1603033180439,119,-0.4494629,-0.98321533,-0.10040283
1603033180518,120,-0.44580078,-0.98394775,-0.20391846
1603033180596,121,-0.36987305,-0.98272705,-0.18023682
1603033180675,122,-0.39892578,-0.9246216,-0.1716919
1603033180754,123,-0.43041992,-0.9092407,-0.17681885
1603033180833,124,-0.41455078,-0.9463501,-0.13873291
1603033180911,125,-0.42382812,-0.960022,-0.13531494
1603033180990,126,-0.47875977,-0.9463501,-0.13238525
1603033181069,127,-0.4597168,-0.94903564,-0.11602783
1603033181148,128,-0.38842773,-1.0025024,-0.11212158
1603033181226,129,-0.37768555,-0.9985962,-0.13043213
1603033181305,130,-0.46044922,-0.9961548,-0.11529541
1603033181384,131,-0.4338379,-1.020813,-0.12921143
1603033181463,132,-0.46118164,-0.99713135,-0.11871338
1603033181541,133,-0.48901367,-0.98687744,-0.14703369
1603033181620,134,-0.4699707,-0.8977661,-0.03643799
1603033181699,135,-0.34423828,-0.8960571,-0.0115356445
1603033181778,136,-0.34448242,-0.9085083,-0.0115356445
1603033181856,137,-0.43847656,-1.0696411,-0.11260986
1603033181935,138,-0.42236328,-1.1143188,-0.18048096
1603033182014,139,-0.28979492,-1.0249634,-0.06549072
1603033182093,140,-0.19995117,-1.0230103,-0.03302002
1603033182171,141,-0.27661133,-1.0120239,0.007507324
1603033182250,142,-0.18847656,-1.0422974,0.043640137
1603033182329,143,-0.1965332,-1.0256958,0.023864746
1603033182408,144,-0.1340332,-1.0579224,1.8310547E-4
1603033182486,145,-0.14331055,-1.0471802,-0.0071411133
1603033182565,146,-0.12988281,-1.0547485,-0.019348145
1603033182644,147,-0.12695312,-1.0515747,-0.033996582
1603033182723,148,-0.16064453,-1.0408325,-0.031311035
1603033182801,149,-0.17138672,-1.0425415,-0.003479004
1603033182880,150,-0.09301758,-1.0569458,0.042419434
1603033182959,151,-0.12670898,-1.0440063,0.03265381
1603033183038,152,-0.13061523,-1.0435181,0.01776123
1603033183116,153,-0.14160156,-1.0459595,-0.012756348
1603033183195,154,-0.12841797,-1.0535278,-0.03326416
1603033183274,155,-0.14575195,-1.0466919,-0.016906738
1603033183353,156,-0.15332031,-1.0418091,-0.03375244
1603033183431,157,-0.15209961,-1.0515747,-0.023254395
1603033183510,158,-0.15527344,-1.0515747,-0.0051879883
1603033183589,159,-0.1616211,-1.0530396,0.03289795
1603033183668,160,-0.22802734,-1.0300903,-0.01373291
1603033183746,161,-0.24194336,-1.0454712,-0.0029907227
1603033183825,162,-0.30078125,-1.0254517,-0.015686035
1603033183904,163,-0.31567383,-1.0320435,-0.011779785
1603033183983,164,-0.32910156,-1.0203247,-0.031799316
1603033184061,165,-0.42211914,-1.0083618,-0.043273926
1603033184140,166,-0.3786621,-1.0025024,-0.042053223
1603033184219,167,-0.35986328,-1.0005493,0.0099487305
1603033184298,168,-0.3515625,-0.95806885,-0.038879395
1603033184376,169,-0.36816406,-0.954895,-0.12896729
1603033184455,170,-0.42895508,-0.97003174,-0.17633057
1603033184534,171,-0.3852539,-0.986145,-0.11846924
1603033184613,172,-0.38964844,-0.9981079,-0.13189697
1603033184691,173,-0.3569336,-0.99298096,-0.12017822
1603033184770,174,-0.39160156,-0.98687744,-0.14263916
1603033184849,175,-0.3552246,-0.99176025,-0.14117432
1603033184928,176,-0.34838867,-0.9846802,-0.14385986
1603033185006,177,-0.35351562,-0.9885864,-0.15289307
1603033185085,178,-0.35766602,-0.986145,-0.13043213
1603033185164,179,-0.35351562,-1.0095825,-0.13677979
1603033185243,180,-0.35888672,-1.0027466,-0.1326294
1603033185321,181,-0.34448242,-1.0093384,-0.13800049
1603033185400,182,-0.32763672,-1.0037231,-0.13018799
1603033185479,183,-0.35107422,-0.9968872,-0.13165283
1603033185558,184,-0.35009766,-0.9924927,-0.14361572
1603033185636,185,-0.32910156,-0.9937134,-0.14996338
1603033185715,186,-0.33911133,-0.99664307,-0.14971924
1603033185794,187,-0.3479004,-0.9985962,-0.15118408
1603033185873,188,-0.35498047,-0.9961548,-0.13214111
1603033185951,189,-0.35742188,-0.989563,-0.13140869
1603033186030,190,-0.3618164,-0.9927368,-0.13092041
1603033186109,191,-0.35913086,-0.9949341,-0.14068604
1603033186188,192,-0.35498047,-0.99298096,-0.14483643
1603033186266,193,-0.35620117,-1.0012817,-0.15753174
1603033186345,194,-0.3635254,-0.9981079,-0.14752197
1603033186424,195,-0.37451172,-0.99005127,-0.14019775
1603033186503,196,-0.38891602,-0.9763794,-0.12872314
1603033186581,197,-0.3720703,-0.97076416,-0.10601807
1603033186660,198,-0.36938477,-0.9956665,-0.08477783
1603033186739,199,-0.3684082,-1.0254517,-0.1038208
1603033186818,200,-0.3659668,-1.0264282,-0.117004395
1603033186896,201,-0.39135742,-1.0369263,-0.12286377
1603033186975,202,-0.3996582,-0.97662354,-0.07305908
1603033187054,203,-0.31054688,-1.00177,-0.14434814
1603033187133,204,-0.3876953,-0.9492798,-0.117492676
1603033187211,205,-0.41992188,-0.9524536,-0.07745361
1603033187290,206,-0.3630371,-0.9807739,-0.054260254
1603033187369,207,-0.40283203,-0.9495239,-0.023498535
1603033187448,208,-0.26391602,-1.0308228,-0.12237549
1603033187526,209,-0.40551758,-1.0083618,-0.012512207
1603033187605,210,-0.43774414,-1.0513306,-0.1531372
1603033187684,211,-0.32470703,-1.0071411,-0.09503174
1603033187763,212,-0.29882812,-0.9998169,0.06414795
1603033187841,213,-0.21582031,-1.0449829,-0.024963379
1603033187920,214,-0.25439453,-1.015686,-0.09820557
1603033187999,215,-0.20996094,-1.0130005,-0.08477783
1603033188078,216,-0.091796875,-1.0444946,-0.0256958
1603033188156,217,-0.087890625,-1.060852,-0.13531494
1603033188235,218,-0.04638672,-1.079895,-0.0015258789
1603033188314,219,-0.23657227,-1.0396118,-0.050598145
1603033188393,220,-0.17163086,-1.0527954,-0.034973145
1603033188471,221,-0.092285156,-1.053772,-0.010559082
1603033188550,222,-0.06518555,-1.0530396,0.004333496
1603033188629,223,-0.118896484,-1.0335083,-0.024230957
1603033188708,224,-0.038085938,-1.0547485,-0.02154541
1603033188786,225,-0.110839844,-1.1243286,0.015075684
1603033188865,226,-0.22070312,-1.0315552,0.032409668
1603033188944,227,-0.31860352,-1.0200806,-0.03643799
1603033189023,228,-0.42919922,-1.0669556,-0.020812988
1603033189101,229,-0.3618164,-1.1047974,0.082458496
1603033189180,230,-0.3605957,-0.9866333,-0.017150879
1603033189259,231,-0.33618164,-0.9043579,-0.07086182
1603033189338,232,-0.35009766,-0.86505127,-0.13946533
1603033189416,233,-0.37695312,-0.93536377,-0.29473877
1603033189495,234,-0.35546875,-0.9546509,-0.35040283
1603033189574,235,-0.40185547,-0.94537354,-0.3225708
1603033189653,236,-0.5031738,-0.9990845,-0.1482544
1603033189731,237,-0.48901367,-1.0420532,-0.21612549
1603033189810,238,-0.1484375,-1.0176392,-0.030334473
1603033189889,239,-0.27612305,-1.0044556,-0.09234619
1603033189968,240,-0.21875,-1.0357056,-0.14630127
1603033190046,241,-0.08935547,-1.0701294,-0.13848877
1603033190125,242,-0.2524414,-1.0281372,-0.05206299
1603033190204,243,-0.15283203,-1.0501099,-0.050109863
1603033190283,244,-0.1887207,-1.045227,-0.0803833
1603033190361,245,-0.16723633,-1.048645,-0.035461426
1603033190440,246,-0.15527344,-1.0418091,-0.008850098
1603033190519,247,-0.17285156,-1.0369263,-0.013000488
1603033190598,248,-0.12670898,-1.0581665,-0.034973145
1603033190676,249,-0.12060547,-1.060852,-0.04034424
1603033190755,250,-0.17700195,-1.034729,-0.0881958
1603033190834,251,-0.16015625,-1.0652466,-0.1272583
1603033190913,252,-0.10229492,-1.0654907,-0.09503174
1603033190991,253,-0.19042969,-1.0405884,-0.05279541
1603033191070,254,-0.23071289,-1.0432739,-0.105285645
1603033191149,255,-0.19824219,-1.0393677,-0.13018799
1603033191228,256,-0.2019043,-1.0298462,-0.0064086914
1603033191306,257,-0.28198242,-1.0215454,-0.06744385
1603033191385,258,-0.2944336,-1.0100708,-0.1482544
1603033191464,259,-0.4194336,-0.9741821,-0.17071533
1603033191543,260,-0.43920898,-0.99224854,-0.14019775
1603033191621,261,-0.41381836,-0.9985962,-0.22418213
1603033191700,262,-0.23901367,-1.0401001,-0.2859497
1603033191779,263,-0.36132812,-0.93829346,-0.10455322
1603033191858,264,-0.3137207,-0.9854126,-0.04888916
1603033191936,265,-0.38989258,-0.96173096,0.018249512
1603033192015,266,-0.35961914,-1.0584106,-0.031311035
1603033192094,267,-0.3022461,-1.015686,0.10003662
1603033192173,268,-0.4152832,-1.0142212,0.010437012
1603033192251,269,-0.19311523,-1.0391235,0.036071777
1603033192330,270,-0.059570312,-1.0593872,0.06439209
1603033192409,271,-0.23510742,-1.0374146,0.0368042
1603033192488,272,-0.1184082,-1.0757446,0.003112793
1603033192566,273,-0.083740234,-1.060852,0.009460449
1603033192645,274,-0.12158203,-1.0684204,-5.493164E-4
1603033192724,275,-0.111328125,-1.0432739,-0.050354004
1603033192803,276,-0.08691406,-1.0335083,-0.047424316
1603033192881,277,-0.15991211,-1.0264282,-0.040100098
1603033192960,278,-0.05078125,-1.0574341,-0.11212158
1603033193039,279,-0.13256836,-1.06427,-0.07965088
1603033193118,280,-0.2097168,-1.0337524,-0.07183838
1603033193196,281,-0.10131836,-1.0501099,-0.07720947
1603033193275,282,-0.13208008,-1.0569458,-0.04425049
1603033193354,283,-0.15209961,-1.0388794,-0.0725708
1603033193433,284,-0.13623047,-1.053772,-0.06011963
1603033193511,285,-0.16259766,-1.0479126,-0.027160645
1603033193590,286,-0.17382812,-1.0464478,-0.038146973
1603033193669,287,-0.19750977,-1.0308228,-0.035705566
1603033193748,288,-0.21777344,-1.0305786,-0.032043457
1603033193826,289,-0.29833984,-1.0142212,-0.022033691
1603033193905,290,-0.34033203,-1.0132446,-0.1428833
1603033193984,291,-0.42700195,-1.0342407,-0.066223145
1603033194063,292,-0.41992188,-1.0144653,-0.070129395
1603033194141,293,-0.41308594,-0.9932251,-0.09307861
1603033194220,294,-0.41088867,-1.0027466,-0.12164307
1603033194299,295,-0.37670898,-1.0061646,-0.1116333
1603033194378,296,-0.3725586,-0.9846802,-0.018371582
1603033194456,297,-0.34521484,-1.003479,-0.10650635
1603033194535,298,-0.40795898,-0.9678345,-0.17608643
1603033194614,299,-0.38598633,-0.9487915,-0.19488525
1603033194693,300,-0.38134766,-0.9404907,-0.2276001
1603033194771,301,-0.3491211,-0.93927,-0.21099854
1603033194850,302,-0.34179688,-0.9522095,-0.20953369
1603033194929,303,-0.31835938,-0.97662354,-0.2197876
1603033195008,304,-0.33764648,-0.9483032,-0.17462158
1603033195086,305,-0.34375,-1.0178833,-0.11529541
1603033195165,306,-0.33569336,-1.116272,-0.1831665
1603033195244,307,-0.24487305,-0.9697876,-0.15216064
1603033195323,308,-0.16821289,-1.0808716,-0.11236572
1603033195401,309,-0.31298828,-1.0125122,-0.10797119
1603033195480,310,-0.19116211,-1.0459595,-0.04498291
1603033195559,311,-0.234375,-1.0327759,-0.043518066
1603033195638,312,-0.21142578,-1.0308228,-0.04156494
1603033195716,313,-0.15722656,-1.0657349,-0.038146973
1603033195795,314,-0.14257812,-1.0637817,-0.05230713
1603033195874,315,-0.16357422,-1.0564575,-0.066711426
1603033195953,316,-0.18774414,-1.0401001,-0.051086426
1603033196031,317,-0.111572266,-1.0523071,-0.018859863
1603033196110,318,-0.17114258,-1.052063,-0.053771973
1603033196189,319,-0.14086914,-1.0442505,-0.041809082
1603033196268,320,-0.12426758,-1.0532837,-0.043518066
1603033196346,321,-0.13061523,-1.0466919,-0.03302002
1603033196425,322,-0.1237793,-1.0498657,-0.049621582
1603033196504,323,-0.12402344,-1.0496216,-0.04498291
1603033196583,324,-0.140625,-1.0444946,-0.045959473
1603033196661,325,-0.14624023,-1.0501099,-0.04083252
1603033196740,326,-0.11621094,-1.0618286,-0.0115356445
1603033196819,327,-0.16381836,-1.0332642,0.022888184
1603033196898,328,-0.18847656,-1.036438,0.013122559
1603033196976,329,-0.22143555,-1.0374146,0.023132324
1603033197055,330,-0.24780273,-1.0239868,-0.016418457
1603033197134,331,-0.26391602,-1.0310669,-0.034484863
1603033197213,332,-0.3232422,-1.0195923,-0.06060791
1603033197291,333,-0.31054688,-1.0066528,-0.08746338
1603033197370,334,-0.35180664,-1.017395,-0.06768799
1603033197449,335,-0.37280273,-1.0200806,-0.09259033
1603033197528,336,-0.38745117,-0.9837036,-0.07208252
1603033197606,337,-0.34692383,-0.9866333,-0.09844971
1603033197685,338,-0.3581543,-0.98809814,-0.0725708
1603033197764,339,-0.39331055,-0.98883057,-0.093322754
1603033197843,340,-0.38256836,-0.98809814,-0.09161377
1603033197921,341,-0.42211914,-0.9866333,-0.11529541
1603033198000,342,-0.375,-1.0042114,-0.12310791
1603033198079,343,-0.3840332,-1.0081177,-0.11016846
1603033198158,344,-0.4177246,-0.98516846,-0.14459229
1603033198236,345,-0.39990234,-0.97662354,-0.12799072
1603033198315,346,-0.4099121,-0.975647,-0.13287354
1603033198394,347,-0.3942871,-0.9414673,-0.13653564
1603033198473,348,-0.3696289,-0.9602661,-0.11578369
1603033198551,349,-0.33862305,-0.9837036,-0.16217041
1603033198630,350,-0.3876953,-1.0003052,-0.11578369
1603033198709,351,-0.48339844,-1.0025024,-0.19708252
1603033198788,352,-0.3725586,-0.9854126,-0.1897583
1603033198890,353,-0.32666016,-0.9949341,-0.094055176
1603033198993,354,-0.39453125,-0.9873657,-0.13482666
1603033199096,355,-0.41870117,-0.9788208,-0.13433838
1603033199199,356,-0.37036133,-0.9924927,-0.13360596
1603033199302,357,-0.36914062,-0.9834595,-0.14239502
1603033199405,358,-0.39135742,-0.98321533,-0.15875244
1603033199507,359,-0.37939453,-0.9824829,-0.15655518
1603033199610,360,-0.37573242,-0.98565674,-0.15362549
1603033199713,361,-0.38427734,-0.9837036,-0.15582275
1603033199816,362,-0.38476562,-0.98223877,-0.14215088
1603033199919,363,-0.3803711,-0.987854,-0.14141846
1603033200022,364,-0.3786621,-0.98760986,-0.1404419
1603033200124,365,-0.38305664,-0.98760986,-0.13360596
1603033200227,366,-0.37182617,-0.9885864,-0.13433838
1603033200330,367,-0.37841797,-0.9885864,-0.13970947
1603033200433,368,-0.38208008,-0.9866333,-0.144104
1603033200536,369,-0.37597656,-0.9890747,-0.14117432
1603033200639,370,-0.37353516,-0.9902954,-0.14093018
1603033200742,371,-0.38110352,-0.98760986,-0.14019775
1603033200844,372,-0.37646484,-0.98931885,-0.12652588
1603033200947,373,-0.3701172,-0.989563,-0.12701416
1603033201050,374,-0.37158203,-0.9902954,-0.1272583
1603033201153,375,-0.37182617,-0.989563,-0.1326294
1603033201256,376,-0.3708496,-0.99102783,-0.12945557
1603033201359,377,-0.37402344,-0.9890747,-0.1326294
1603033201461,378,-0.37060547,-0.9883423,-0.13531494
1603033201564,379,-0.37060547,-0.9883423,-0.13238525
1603033201667,380,-0.36865234,-0.99005127,-0.13531494
1603033201770,381,-0.3720703,-0.9993286,-0.13653564
1603033201873,382,-0.35595703,-0.9961548,-0.1416626
1603033201976,383,-0.37353516,-0.9805298,-0.12310791
1603033202079,384,-0.36328125,-0.99298096,-0.12579346
1603033202157,385,-0.36376953,-0.9939575,-0.14141846
1603033202236,386,-0.36010742,-0.99053955,-0.13800049
1603033202315,387,-0.36499023,-0.99053955,-0.13409424
1603033202394,388,-0.3701172,-0.99005127,-0.13336182
1603033202472,389,-0.3618164,-0.9907837,-0.1362915
1603033202551,390,-0.36694336,-0.99102783,-0.13800049
1603033202630,391,-0.37158203,-0.99053955,-0.13677979
1603033202709,392,-0.36694336,-0.9902954,-0.14337158
1603033202787,393,-0.36645508,-0.9898071,-0.13946533
1603033202866,394,-0.37426758,-0.9883423,-0.13995361
1603033202945,395,-0.3701172,-0.9898071,-0.13604736
1603033203024,396,-0.37182617,-0.98931885,-0.13897705
1603033203102,397,-0.37524414,-0.98931885,-0.13482666
1603033203181,398,-0.37548828,-0.9902954,-0.13555908
1603033203260,399,-0.37158203,-0.9902954,-0.13458252
1603033203339,400,-0.37426758,-0.98809814,-0.13043213
1603033203417,401,-0.37280273,-0.9898071,-0.13409424
1603033203496,402,-0.36865234,-0.9924927,-0.12799072
1603033203575,403,-0.3659668,-0.99005127,-0.12579346
1603033203654,404,-0.37426758,-0.99053955,-0.13336182
1603033203732,405,-0.36547852,-0.99176025,-0.12921143
1603033203811,406,-0.36816406,-0.99102783,-0.13165283
1603033203890,407,-0.3708496,-0.989563,-0.13336182
1603033203969,408,-0.36865234,-0.99176025,-0.13238525
1603033204047,409,-0.36914062,-0.991272,-0.1326294
1603033204126,410,-0.37060547,-0.987854,-0.12823486
1603033204205,411,-0.36987305,-0.9902954,-0.13092041
1603033204284,412,-0.36401367,-0.991272,-0.1404419
1603033204362,413,-0.3708496,-0.98883057,-0.14752197
1603033204441,414,-0.36914062,-0.99176025,-0.14141846
1603033204520,415,-0.36767578,-0.9890747,-0.13873291
