# Sensor position: Wrist
# Sensor side: Right
# Activity type: Movement
# Activity code: 9
# Subject id: s2124639
timestamp,seq,accel_x,accel_y,accel_z
1603813155202,0,1.4975586,0.387146,0.17669678
1603813155280,1,1.9362793,-1.0342407,0.2687378
1603813155359,2,1.0822754,-0.1104126,-0.09307861
1603813155438,3,1.0681152,0.6676636,-0.49517822
1603813155517,4,1.2382812,1.999939,-1.9998169
1603813155595,5,-0.6142578,1.999939,-1.9248657
1603813155674,6,-1.0463867,1.999939,-1.1941528
1603813155753,7,0.37695312,1.8632202,-1.9998169
1603813155832,8,0.4958496,1.3810425,-1.9998169
1603813155910,9,1.0234375,0.38128662,-1.2971802
1603813155989,10,0.657959,-0.44439697,-0.0178833
1603813156068,11,0.4777832,-0.68170166,0.46746826
1603813156147,12,0.40771484,0.005554199,0.23138428
1603813156225,13,0.8901367,0.32733154,0.22821045
1603813156304,14,1.5629883,1.6723022,0.43475342
1603813156383,15,1.2219238,0.9862671,0.52508545
1603813156462,16,1.7373047,0.54901123,0.3751831
1603813156540,17,1.9997559,0.57611084,0.55096436
1603813156619,18,1.3608398,0.6845093,0.69158936
1603813156698,19,0.69140625,0.8600464,0.7982788
1603813156777,20,0.9519043,0.37200928,0.61834717
1603813156855,21,1.2246094,-0.022521973,0.3764038
1603813156934,22,1.1730957,0.2682495,0.2633667
1603813157013,23,1.4516602,0.494812,0.15252686
1603813157092,24,1.0947266,0.06414795,-0.026428223
1603813157170,25,1.5891113,0.50531006,-0.02130127
1603813157249,26,0.9875488,0.30023193,-0.17022705
1603813157328,27,0.73657227,0.3571167,-0.109436035
1603813157407,28,0.70947266,0.25238037,-0.10357666
1603813157485,29,0.65185547,0.21600342,-0.08013916
1603813157564,30,0.8859863,0.62420654,-0.03692627
1603813157643,31,1.2783203,1.260437,0.05657959
1603813157722,32,1.3481445,0.6569214,0.16986084
1603813157800,33,1.2385254,0.35076904,0.24945068
1603813157879,34,0.9291992,0.12347412,0.39105225
1603813157958,35,0.91796875,0.3637085,0.44891357
1603813158037,36,0.68310547,0.41741943,0.479187
1603813158115,37,0.31567383,0.50286865,0.2230835
1603813158194,38,0.044921875,0.9657593,-0.11138916
1603813158273,39,-0.1081543,0.81170654,-0.34869385
1603813158352,40,-0.026123047,0.8764038,-0.6087036
1603813158430,41,0.075683594,0.6803589,-0.84869385
1603813158509,42,-0.068115234,0.5856323,-1.086731
1603813158588,43,-0.39086914,0.9874878,-1.4280396
1603813158667,44,-0.35083008,1.0946655,-1.6465454
1603813158745,45,-0.28100586,0.80267334,-1.21344
1603813158824,46,-0.08959961,0.402771,-0.99298096
1603813158903,47,0.06225586,0.06488037,-0.49273682
1603813158982,48,0.075683594,-0.28741455,-0.32476807
1603813159060,49,0.25268555,0.06121826,-0.25372314
1603813159139,50,0.72924805,0.29632568,-0.14215088
1603813159218,51,1.815918,0.39007568,-0.22442627
1603813159297,52,1.9997559,0.37982178,-0.42315674
1603813159375,53,1.9997559,0.6744995,-0.19024658
1603813159454,54,1.9997559,0.46990967,0.057800293
1603813159533,55,1.2758789,0.821228,0.22625732
1603813159612,56,0.57666016,1.277771,0.29144287
1603813159690,57,0.7314453,1.4393921,0.6112671
1603813159769,58,1.9733887,0.79681396,0.70062256
1603813159848,59,1.9997559,0.33465576,0.50115967
1603813159927,60,1.9997559,1.1569214,0.11639404
1603813160005,61,1.9997559,0.73846436,0.19573975
1603813160084,62,1.9997559,0.34002686,-0.0076293945
1603813160163,63,1.6708984,0.07684326,-0.20220947
1603813160242,64,0.92089844,-0.35699463,-0.31256104
1603813160320,65,-0.05810547,-1.5213013,-0.42877197
1603813160399,66,-0.16577148,-1.2815552,-0.4043579
1603813160478,67,0.08569336,-0.678772,-0.38531494
1603813160557,68,0.52490234,-0.21270752,-0.41314697
1603813160635,69,1.909668,0.3114624,-0.6897583
1603813160714,70,1.9997559,1.8671265,-0.6917114
1603813160793,71,1.9997559,1.9950562,-0.6174927
1603813160872,72,1.9997559,1.1825562,-0.27960205
1603813160950,73,1.9997559,0.9821167,-0.16168213
1603813161029,74,1.9997559,0.5258179,-0.21490479
1603813161108,75,1.0112305,0.14984131,-0.085754395
1603813161187,76,0.6904297,-0.34747314,-0.15631104
1603813161265,77,0.25341797,-0.73638916,-0.22613525
1603813161344,78,0.037109375,-0.7127075,-0.04522705
1603813161423,79,-0.19335938,-0.82281494,-0.47808838
1603813161502,80,0.46264648,0.9796753,-1.9998169
1603813161580,81,0.107177734,1.999939,-1.9998169
1603813161659,82,0.65600586,1.999939,-0.43121338
1603813161738,83,0.704834,0.9293823,0.016540527
1603813161817,84,0.37573242,0.36029053,0.21673584
1603813161895,85,0.25952148,-0.20709229,0.15594482
1603813161974,86,0.35107422,0.08685303,0.12445068
1603813162053,87,0.82836914,0.33026123,-0.038146973
1603813162132,88,1.9997559,0.33050537,-0.16192627
1603813162210,89,1.9997559,0.7802124,-0.18780518
1603813162289,90,1.5737305,0.31488037,-0.23858643
1603813162368,91,1.1054688,0.2802124,-0.28375244
1603813162447,92,0.6484375,0.33099365,-0.3303833
1603813162525,93,0.69189453,0.5036011,-0.4595337
1603813162604,94,0.7685547,1.1220093,-0.2732544
1603813162683,95,1.1586914,1.3002319,0.13519287
1603813162762,96,1.715332,1.0971069,0.31463623
1603813162840,97,1.9997559,0.7970581,0.031433105
1603813162919,98,1.9997559,1.3707886,-0.24884033
1603813162998,99,1.9997559,1.2931519,-0.06427002
1603813163077,100,1.4645996,0.26019287,-0.12774658
1603813163155,101,0.56469727,0.06439209,-0.0095825195
1603813163234,102,0.18188477,-0.10845947,-0.11138916
1603813163313,103,-0.09448242,-0.19317627,-0.13458252
1603813163392,104,-0.17163086,-0.30548096,-0.18634033
1603813163470,105,0.057128906,-0.33355713,-0.15997314
1603813163549,106,1.4287109,0.09564209,0.19598389
1603813163628,107,1.9997559,0.22406006,0.32000732
1603813163707,108,1.9997559,-0.43145752,0.05291748
1603813163785,109,1.4492188,1.7653198,0.14691162
1603813163864,110,0.65893555,0.97576904,0.66448975
1603813163943,111,0.88378906,0.19696045,0.84002686
1603813164022,112,1.2749023,0.5426636,0.5997925
1603813164100,113,1.9997559,0.43865967,0.22235107
1603813164179,114,1.9997559,0.13616943,-0.085510254
1603813164258,115,1.9997559,0.3756714,-0.10845947
1603813164337,116,1.588623,0.27337646,-0.2769165
1603813164415,117,0.91674805,0.19232178,-0.23565674
1603813164494,118,0.49682617,-0.06573486,-0.20953369
1603813164573,119,0.21191406,-0.12701416,-0.042053223
1603813164652,120,0.3647461,-0.06402588,0.06854248
1603813164730,121,1.2185059,0.07196045,0.15472412
1603813164809,122,1.9997559,0.31048584,0.3102417
1603813164888,123,1.9997559,0.22576904,0.24310303
1603813164967,124,1.3879395,0.62786865,0.03289795
1603813165045,125,0.8937988,0.52752686,0.061462402
1603813165124,126,0.70410156,0.60321045,-0.02911377
1603813165203,127,0.6555176,0.63323975,0.13739014
1603813165282,128,0.9675293,0.25726318,0.32440186
1603813165374,129,1.1884766,-0.11065674,0.41400146
1603813165467,130,1.2062988,-0.21588135,0.2814331
1603813165559,131,0.923584,-0.12213135,0.11859131
1603813165652,132,0.7121582,0.1239624,0.046081543
1603813165744,133,0.88720703,0.2584839,0.050231934
1603813165837,134,1.1813965,0.31097412,0.12054443
1603813165929,135,0.96240234,0.015319824,9.1552734E-4
1603813166022,136,0.8918457,0.2098999,0.07489014
1603813166114,137,0.69628906,0.28045654,0.070495605
1603813166207,138,0.8117676,0.2645874,0.070007324
1603813166299,139,1.1096191,0.21966553,0.077819824
1603813166392,140,1.2758789,0.061950684,-0.1519165
1603813166484,141,1.1447754,0.14569092,-0.23150635
1603813166577,142,0.9699707,0.1696167,-0.1519165
1603813166669,143,0.9067383,0.022644043,9.1552734E-4
1603813166762,144,0.88500977,-0.34136963,0.024353027
1603813166855,145,0.9160156,-0.01763916,0.15423584
1603813166947,146,0.94677734,0.1786499,0.29388428
1603813167040,147,0.93530273,0.051208496,0.3065796
1603813167132,148,1.020752,0.37493896,0.22259521
1603813167225,149,1.0031738,0.5114136,-0.020080566
1603813167317,150,0.89819336,0.8356323,0.06781006
1603813167410,151,1.3991699,1.0014038,0.09857178
1603813167502,152,1.7888184,1.2733765,-0.055236816
1603813167595,153,1.9492188,0.6622925,0.2579956
1603813167687,154,1.0588379,0.3690796,0.49676514
1603813167780,155,0.33544922,0.3048706,0.37860107
1603813167872,156,0.20581055,0.29315186,0.5194702
1603813167965,157,0.2434082,-0.070129395,0.6010132
1603813168057,158,0.013427734,-0.6314087,0.40057373
1603813168150,159,-0.2277832,-0.57354736,0.37835693
1603813168243,160,-0.23120117,-0.6878052,0.38519287
1603813168321,161,-0.17578125,-0.6819458,0.40570068
1603813168400,162,-0.06738281,-0.4397583,0.4401245
1603813168479,163,0.21264648,-0.16021729,0.38616943
1603813168558,164,0.81689453,0.71087646,0.29656982
1603813168636,165,0.8979492,1.2692261,0.03338623
1603813168715,166,1.2038574,1.569519,0.042419434
1603813168794,167,1.7844238,1.2440796,0.25775146
1603813168873,168,1.9997559,0.9472046,0.0692749
1603813168951,169,1.9997559,0.2838745,0.26556396
1603813169030,170,1.1118164,-0.23565674,0.3883667
1603813169109,171,0.5529785,-0.06719971,0.16912842
1603813169188,172,0.5620117,0.0099487305,0.010437012
1603813169266,173,0.7780762,0.10321045,-0.019836426
1603813169345,174,1.262207,0.1461792,-0.13873291
1603813169424,175,1.7167969,0.3295288,-0.28668213
1603813169503,176,1.8383789,0.4081421,-0.21343994
1603813169581,177,1.4299316,0.47210693,0.035095215
1603813169660,178,1.1491699,0.41497803,0.24871826
1603813169739,179,0.8208008,0.7213745,0.43133545
1603813169818,180,0.74609375,0.6376343,0.6293335
1603813169896,181,1.0534668,0.47113037,0.4923706
1603813169975,182,1.8840332,0.55584717,0.36956787
1603813170054,183,1.954834,0.2909546,0.09222412
1603813170133,184,1.9997559,0.8139038,0.08709717
1603813170211,185,1.9997559,0.8163452,0.32684326
1603813170290,186,1.5776367,0.46917725,0.31121826
1603813170369,187,0.7963867,0.3522339,0.2753296
1603813170448,188,0.36279297,0.086120605,0.27215576
1603813170526,189,0.028564453,-0.33795166,0.2843628
1603813170605,190,-0.48461914,-0.6272583,0.28094482
1603813170684,191,-0.67822266,-0.35528564,0.37786865
1603813170763,192,-0.49145508,-0.5413208,0.31976318
1603813170841,193,-0.27978516,-0.6646118,0.13861084
1603813170920,194,-0.18676758,-0.25860596,0.043640137
1603813170999,195,-0.19165039,0.06976318,-0.13848877
1603813171078,196,0.106933594,0.23919678,-0.14898682
1603813171156,197,1.0107422,0.96917725,-0.7217407
1603813171235,198,1.7565918,1.4418335,-0.66363525
1603813171314,199,1.9997559,0.8473511,-0.67193604
1603813171393,200,1.9997559,1.0219116,-0.35357666
1603813171471,201,1.9997559,-0.016662598,-0.15679932
1603813171550,202,1.4587402,-0.6392212,0.10345459
1603813171629,203,0.66381836,0.13812256,0.07489014
1603813171708,204,0.4609375,-0.04522705,-0.10089111
1603813171786,205,0.41479492,-0.07647705,-0.09283447
1603813171865,206,0.6125488,0.0028686523,-0.046203613
1603813171944,207,1.3972168,0.0914917,-0.04156494
1603813172023,208,1.9997559,0.30633545,-0.059631348
1603813172101,209,1.9997559,0.9591675,0.29071045
1603813172180,210,1.3684082,0.6264038,0.47479248
1603813172259,211,0.8588867,0.68914795,0.91448975
1603813172338,212,1.0097656,0.43060303,1.0817261
1603813172416,213,1.4562988,0.4381714,0.70062256
1603813172495,214,1.9040527,0.49456787,0.33319092
1603813172574,215,1.9997559,0.47894287,0.08392334
1603813172653,216,1.9997559,0.40350342,0.06829834
1603813172731,217,1.5029297,0.3866577,0.08001709
1603813172810,218,0.8835449,0.4088745,0.23138428
1603813172889,219,0.4350586,0.25775146,0.37713623
1603813172968,220,0.10131836,-0.34429932,0.37591553
1603813173046,221,-0.3178711,-0.5432739,0.46185303
1603813173125,222,-0.24414062,-0.30523682,0.36712646
1603813173204,223,-0.18554688,-0.06060791,0.22406006
1603813173283,224,-0.122802734,0.3534546,0.14471436
1603813173361,225,0.10180664,0.37200928,-0.22930908
1603813173440,226,0.8833008,1.0304565,-0.6983032
1603813173519,227,1.265625,1.9096069,-0.7197876
1603813173598,228,0.9453125,1.343689,-0.50787354
1603813173676,229,1.2282715,1.2955933,0.086364746
1603813173755,230,1.4145508,0.9713745,0.06365967
1603813173834,231,1.1010742,0.701355,-0.1038208
1603813173913,232,0.7055664,0.55511475,-0.16339111
1603813173991,233,0.6296387,0.7362671,-0.038391113
1603813174070,234,0.5871582,0.7387085,-0.0049438477
1603813174149,235,0.43530273,0.6090698,-0.0095825195
1603813174228,236,0.5698242,0.4352417,0.02532959
1603813174306,237,0.8183594,0.39007568,0.26263428
1603813174385,238,0.9519043,0.097351074,0.3156128
1603813174464,239,0.9733887,0.24945068,0.35614014
1603813174543,240,1.0439453,0.31292725,0.3908081
1603813174621,241,1.2016602,0.31463623,0.5187378
1603813174700,242,1.1191406,0.23016357,0.5890503
1603813174779,243,1.0944824,0.29193115,0.6859741
1603813174858,244,1.0612793,0.3295288,0.63690186
1603813174936,245,0.8479004,0.18939209,0.32391357
1603813175015,246,1.1437988,0.262146,0.12249756
1603813175094,247,1.1352539,0.230896,0.04901123
1603813175173,248,0.9453125,0.18182373,0.024841309
1603813175251,249,0.7770996,0.14276123,0.026062012
1603813175330,250,0.7392578,0.16351318,0.15228271
1603813175409,251,0.8334961,0.090026855,0.32366943
1603813175488,252,0.87231445,0.039978027,0.4586792
1603813175566,253,0.84643555,0.013122559,0.41937256
1603813175645,254,0.7487793,0.2098999,0.30462646
1603813175724,255,0.9797363,0.977478,0.48162842
1603813175803,256,1.0698242,0.87835693,0.6017456
1603813175881,257,1.2104492,0.58880615,0.50994873
1603813175960,258,1.329834,0.45013428,0.72454834
1603813176039,259,1.277832,0.28631592,0.7267456
1603813176118,260,0.95166016,0.14398193,0.53118896
1603813176196,261,0.4453125,-0.17071533,0.31195068
1603813176275,262,0.21899414,-0.25421143,0.19085693
1603813176354,263,0.46142578,-0.050598145,-0.012512207
1603813176433,264,0.7529297,0.19158936,-0.18878174
1603813176511,265,1.3374023,0.31097412,-0.23980713
1603813176590,266,1.9997559,0.6268921,-0.06427002
1603813176669,267,1.9997559,0.36395264,0.3456421
1603813176748,268,1.6450195,0.3378296,1.2160034
1603813176826,269,0.99072266,-0.082092285,1.376648
1603813176905,270,0.9375,0.3546753,0.6893921
1603813176984,271,1.2998047,0.5350952,0.2772827
1603813177063,272,1.6506348,0.36956787,-0.013000488
1603813177141,273,1.9082031,1.2770386,0.14886475
1603813177220,274,1.9997559,1.0609741,0.48968506
1603813177299,275,1.7988281,0.3751831,0.40594482
1603813177378,276,0.782959,-0.55841064,0.046325684
1603813177456,277,0.2836914,-0.30133057,-0.1350708
1603813177535,278,0.37695312,-0.06524658,-0.5496216
1603813177614,279,0.27612305,-0.089416504,-1.0322876
1603813177693,280,0.78271484,0.14251709,-0.8518677
1603813177771,281,1.9997559,1.4865112,-0.8257446
1603813177850,282,1.9997559,0.6762085,-0.33917236
1603813177929,283,1.9997559,0.4953003,1.2321167
1603813178008,284,1.9997559,-1.2041626,0.30023193
1603813178086,285,0.93774414,-0.29449463,0.15203857
1603813178165,286,0.96972656,-0.049621582,-0.051574707
1603813178244,287,0.685791,-0.06890869,-0.097717285
1603813178323,288,0.76831055,0.04827881,-0.055725098
1603813178401,289,1.3059082,0.07489014,-0.065979004
1603813178480,290,1.9997559,0.4550171,0.0014038086
1603813178559,291,1.7167969,1.0516968,0.10467529
1603813178638,292,1.1352539,0.6400757,0.4804077
1603813178716,293,0.9753418,0.168396,0.9081421
1603813178795,294,1.2651367,0.21014404,1.0687866
1603813178874,295,1.4941406,0.24334717,0.6288452
1603813178953,296,1.7751465,0.3859253,0.20672607
1603813179031,297,1.9997559,0.12322998,-0.06768799
1603813179110,298,1.5187988,0.00579834,-0.22320557
1603813179189,299,0.9650879,0.29486084,-0.19927979
1603813179268,300,0.64282227,0.07489014,-0.113098145
1603813179346,301,0.41064453,-0.23199463,-0.0015258789
1603813179425,302,0.4580078,-0.14434814,0.04925537
1603813179504,303,1.28125,-0.012268066,0.02947998
1603813179583,304,1.9997559,0.046081543,0.20306396
1603813179661,305,1.9997559,0.57025146,-0.008605957
1603813179740,306,1.4821777,0.39715576,-0.003967285
1603813179819,307,0.8371582,0.53460693,-0.14776611
1603813179898,308,0.59887695,0.42718506,-0.1416626
1603813179976,309,0.6166992,0.8817749,0.0067749023
1603813180055,310,1.1005859,0.6588745,0.53460693
1603813180134,311,1.7878418,-0.21783447,0.732605
1603813180213,312,1.5979004,-0.10748291,0.4376831
1603813180291,313,1.3041992,-0.006652832,0.19598389
1603813180370,314,1.0952148,0.009216309,0.11639404
1603813180449,315,0.9592285,-0.0051879883,0.055847168
1603813180528,316,0.7001953,0.012878418,0.07122803
1603813180606,317,0.6472168,0.066589355,0.09539795
1603813180685,318,0.7937012,0.07904053,0.11663818
1603813180764,319,0.9680176,0.15765381,0.1696167
1603813180843,320,1.3791504,0.22332764,0.3151245
1603813180921,321,1.0224609,0.15008545,0.2975464
1603813181000,322,1.0263672,0.31414795,0.44696045
1603813181079,323,0.95532227,0.06732178,0.49505615
1603813181158,324,0.8288574,0.051208496,0.51556396
1603813181236,325,0.92089844,0.039245605,0.44403076
1603813181315,326,0.93237305,0.05706787,0.36566162
1603813181394,327,0.9250488,0.06341553,0.2579956
1603813181473,328,1.0358887,0.1083374,0.20111084
1603813181551,329,0.9819336,0.32537842,0.20843506
1603813181630,330,1.1608887,0.11663818,0.1774292
1603813181709,331,1.0957031,0.034362793,0.1149292
1603813181788,332,0.8486328,0.12298584,0.085876465
1603813181866,333,0.8154297,0.09906006,0.036315918
1603813181945,334,0.6867676,0.08319092,0.0018920898
1603813182024,335,0.8310547,0.17034912,0.105407715
1603813182103,336,0.98217773,0.1408081,0.26263428
1603813182181,337,1.0612793,0.010925293,0.26287842
1603813182260,338,1.2202148,0.15228271,0.18670654
1603813182339,339,0.8376465,0.33221436,0.1671753
1603813182418,340,0.9074707,0.24481201,0.21160889
1603813182496,341,1.0048828,-0.17926025,0.13006592
1603813182575,342,0.9152832,-0.082092285,0.18035889
1603813182654,343,0.76904297,0.0067749023,0.28045654
1603813182733,344,0.94140625,-0.00982666,0.30023193
1603813182811,345,0.98413086,0.078063965,0.27703857
1603813182890,346,0.93237305,-0.02935791,0.22406006
1603813182969,347,0.8034668,0.02508545,0.17181396
1603813183048,348,0.9550781,0.09197998,0.20819092
1603813183126,349,1.0930176,-0.07672119,0.09515381
1603813183205,350,0.732666,0.16082764,0.093444824
1603813183284,351,0.80200195,0.1305542,0.054870605
1603813183363,352,1.0561523,0.13397217,-0.12042236
1603813183441,353,0.84472656,0.307312,-0.093322754
1603813183520,354,0.92333984,0.38250732,0.1317749
1603813183599,355,1.0783691,0.1461792,0.19720459
1603813183678,356,1.128418,9.1552734E-4,0.14764404
1603813183756,357,1.0270996,0.09295654,0.22576904
1603813183835,358,0.9074707,0.18035889,0.36932373
1603813183914,359,0.98706055,0.10223389,0.4616089
1603813183993,360,0.98413086,0.00970459,0.3319702
1603813184071,361,0.88427734,0.06512451,0.2423706
1603813184150,362,0.93408203,0.089538574,0.15740967
1603813184229,363,0.88549805,0.062194824,0.07562256
1603813184308,364,0.94018555,-0.0154418945,0.04046631
1603813184386,365,0.923584,-0.07696533,0.023864746
1603813184465,366,0.8967285,-0.062072754,0.09051514
1603813184544,367,1.0700684,0.08001709,0.21014404
1603813184623,368,0.9797363,0.06097412,0.26654053
1603813184701,369,0.90405273,0.09539795,0.17596436
1603813184780,370,0.904541,0.18231201,0.13665771
1603813184859,371,0.87475586,0.20184326,0.06829834
1603813184938,372,0.91552734,0.21160889,0.040222168
1603813185016,373,0.9104004,0.2008667,0.055114746
1603813185095,374,0.90478516,0.15765381,0.13201904
1603813185174,375,0.91967773,0.10296631,0.22503662
1603813185253,376,1.0126953,0.07489014,0.23065186
1603813185331,377,1.0556641,0.11273193,0.24603271
1603813185410,378,0.8029785,0.051208496,0.12054443
1603813185489,379,0.9914551,0.11053467,0.074645996
1603813185568,380,0.76342773,0.15130615,0.09710693
1603813185646,381,0.80029297,0.23651123,0.15838623
1603813185725,382,0.8359375,0.1774292,0.30633545
1603813185804,383,0.8859863,0.2086792,0.42010498
1603813185883,384,1.0717773,0.28582764,0.41986084
1603813185961,385,1.137207,0.23846436,0.3397827
1603813186040,386,0.9890137,0.4225464,0.2296753
1603813186119,387,1.0395508,0.16766357,0.17474365
1603813186198,388,1.152832,0.19525146,0.11932373
1603813186276,389,1.1872559,0.05316162,-0.03326416
1603813186355,390,0.9748535,0.14056396,-0.0569458
1603813186434,391,0.7631836,0.28656006,0.06903076
1603813186513,392,0.6171875,0.06048584,0.18182373
1603813186591,393,0.61450195,-0.08526611,0.34124756
1603813186670,394,1.0339355,-0.050598145,0.30755615
1603813186749,395,1.1672363,0.066345215,0.26019287
1603813186828,396,1.3146973,0.24041748,0.15008545
1603813186906,397,1.0795898,0.2975464,0.06439209
1603813186985,398,0.86743164,0.36639404,0.11102295
1603813187064,399,0.8144531,0.38494873,0.26312256
1603813187143,400,0.80859375,0.35491943,0.42181396
1603813187221,401,0.9680176,0.324646,0.45819092
1603813187300,402,1.3271484,0.215271,0.36175537
1603813187379,403,1.1494141,0.20159912,0.21844482
1603813187458,404,1.2397461,-0.04107666,-0.003479004
1603813187536,405,1.0253906,-0.06304932,-0.026672363
1603813187615,406,0.751709,-0.10797119,-0.09307861
1603813187694,407,0.767334,0.03729248,-0.04547119
1603813187773,408,0.8479004,0.18865967,0.0138549805
1603813187851,409,1.0385742,0.20062256,0.042419434
1603813187930,410,1.0268555,0.23040771,0.16253662
1603813188009,411,1.199707,0.19793701,0.1552124
1603813188088,412,0.75341797,0.19940186,0.20159912
1603813188166,413,1.0488281,0.14056396,0.199646
1603813188245,414,0.8828125,0.03753662,0.20379639
1603813188324,415,0.82958984,0.081970215,0.246521
