# Sensor position: Front pocket (trouser)
# Sensor side: Right
# Activity type: Movement
# Activity code: 9
# Subject id: s2124639
timestamp,seq,accel_x,accel_y,accel_z
1603808261475,0,0.9277344,0.14715576,-0.02520752
1603808261553,1,1.1411133,0.6141968,0.12860107
1603808261632,2,1.2614746,0.21697998,0.18011475
1603808261711,3,1.3583984,0.2921753,-0.16949463
1603808261790,4,1.1989746,0.26141357,0.082458496
1603808261868,5,0.6213379,-0.02935791,-0.12237549
1603808261947,6,0.4567871,-0.36065674,0.22161865
1603808262026,7,1.2900391,-0.5498657,0.9347534
1603808262105,8,0.13671875,-0.18634033,0.30560303
1603808262183,9,0.09277344,-0.30133057,0.081726074
1603808262262,10,0.26831055,-0.29840088,0.15350342
1603808262341,11,1.1970215,-0.1296997,0.3012085
1603808262420,12,1.9997559,0.55755615,0.12420654
1603808262498,13,0.2602539,-0.46392822,-0.22662354
1603808262577,14,1.1442871,0.5700073,-0.20587158
1603808262656,15,0.83251953,0.059020996,0.07244873
1603808262735,16,0.84472656,0.25164795,-0.0791626
1603808262813,17,0.88134766,0.11126709,-0.0044555664
1603808262892,18,0.92578125,0.42523193,0.0065307617
1603808262971,19,1.2277832,0.5079956,0.45794678
1603808263050,20,1.8015137,0.1359253,-0.09674072
1603808263128,21,1.0898438,0.3427124,-0.011291504
1603808263207,22,0.545166,0.20135498,-0.09527588
1603808263286,23,0.15185547,-0.18243408,-0.06549072
1603808263365,24,1.6994629,-0.24517822,0.20159912
1603808263443,25,0.8696289,-0.5610962,0.5988159
1603808263522,26,0.15039062,0.24285889,0.39935303
1603808263601,27,0.5529785,0.21990967,0.03753662
1603808263680,28,1.1896973,-0.0791626,-0.20953369
1603808263758,29,1.8945312,-0.3320923,0.2662964
1603808263837,30,0.38623047,0.6959839,-0.20123291
1603808263916,31,1.2038574,0.31097412,-0.15142822
1603808263995,32,1.0163574,-0.0037231445,0.010437012
1603808264073,33,0.9355469,-0.06964111,0.22113037
1603808264152,34,0.7446289,0.22479248,0.027282715
1603808264231,35,0.92456055,0.0836792,0.34417725
1603808264310,36,0.83984375,0.49871826,0.12908936
1603808264388,37,0.9169922,0.24334717,0.03656006
1603808264467,38,0.9182129,0.08294678,0.051696777
1603808264546,39,0.8762207,0.48553467,0.09564209
1603808264625,40,0.91845703,0.40325928,-0.16851807
1603808264703,41,1.0087891,0.109069824,-0.25616455
1603808264782,42,1.4511719,-0.6531372,0.3295288
1603808264861,43,1.0429688,-0.16998291,0.49847412
1603808264940,44,0.5161133,0.07220459,0.23895264
1603808265018,45,0.8371582,0.18035889,0.6264038
1603808265097,46,1.1696777,-0.24859619,0.54803467
1603808265176,47,0.9667969,-0.4290161,0.27508545
1603808265255,48,0.2800293,-0.75079346,0.036071777
1603808265333,49,0.010253906,-0.395813,0.13128662
1603808265412,50,0.44335938,0.2929077,0.6913452
1603808265491,51,1.0622559,-0.59942627,0.80023193
1603808265570,52,1.1113281,-0.66192627,0.25604248
1603808265648,53,0.58154297,-0.097473145,0.39056396
1603808265727,54,1.9997559,0.29241943,0.2843628
1603808265806,55,0.21850586,-0.46905518,-0.1716919
1603808265885,56,1.2236328,0.7843628,-0.069885254
1603808265963,57,0.7507324,0.15325928,0.24407959
1603808266042,58,0.7597656,0.26654053,0.39691162
1603808266121,59,0.73168945,0.52752686,-0.13775635
1603808266200,60,1.1013184,0.21136475,0.026062012
1603808266278,61,0.8967285,0.16204834,0.019470215
1603808266357,62,0.64746094,0.046813965,0.3390503
1603808266436,63,0.86987305,0.41619873,0.3287964
1603808266515,64,0.8364258,0.3439331,-0.09576416
1603808266593,65,1.1315918,0.7719116,-0.04815674
1603808266672,66,1.9907227,0.20843506,0.25579834
1603808266751,67,1.8623047,0.8175659,-0.031311035
1603808266830,68,1.6442871,0.5050659,0.277771
1603808266908,69,0.22875977,-0.2798462,-0.31402588
1603808266987,70,-0.27392578,0.04510498,-0.5339966
1603808267066,71,-0.703125,-0.83258057,-0.055480957
1603808267145,72,-0.025878906,0.06365967,0.15887451
1603808267223,73,0.64453125,-0.3723755,0.5848999
1603808267302,74,0.5515137,-0.565979,0.51116943
1603808267381,75,1.7416992,-0.42437744,0.50164795
1603808267460,76,1.190918,-0.043029785,0.41644287
1603808267538,77,0.84594727,0.54241943,0.22454834
1603808267617,78,1.0888672,0.0119018555,-0.3303833
1603808267696,79,1.720459,0.6918335,0.0138549805
1603808267775,80,0.79833984,-0.009094238,0.6029663
1603808267853,81,0.40039062,-0.4644165,-0.024230957
1603808267932,82,0.049804688,0.022155762,-0.17877197
1603808268011,83,1.6599121,0.45037842,0.027526855
1603808268090,84,1.6193848,-0.007385254,-0.04498291
1603808268168,85,0.41674805,0.20892334,0.1942749
1603808268247,86,0.31884766,0.42156982,0.25408936
1603808268326,87,1.7419434,0.24090576,-0.042053223
1603808268405,88,1.7956543,-0.8718872,0.074401855
1603808268483,89,1.0888672,0.33636475,-0.16485596
1603808268562,90,0.39648438,0.062438965,-0.023498535
1603808268641,91,0.07373047,-0.1951294,0.089782715
1603808268720,92,0.6726074,-0.19024658,0.33270264
1603808268798,93,1.6369629,-1.22052,0.5404663
1603808268877,94,0.98217773,0.79974365,0.19232178
1603808268956,95,1.2866211,-0.085754395,0.17694092
1603808269035,96,0.8352051,-0.2468872,0.5023804
1603808269113,97,0.7236328,0.20233154,0.51116943
1603808269192,98,0.77319336,-0.23858643,0.4882202
1603808269271,99,0.90234375,-0.004211426,0.16522217
1603808269350,100,0.9968262,0.36468506,-0.0071411133
1603808269428,101,0.9025879,-0.06866455,0.35101318
1603808269507,102,0.82910156,0.08880615,0.3131714
1603808269586,103,0.91967773,0.03656006,0.2296753
1603808269665,104,0.96118164,0.4725952,-0.07623291
1603808269743,105,0.9824219,-0.06011963,0.4303589
1603808269822,106,1.0769043,0.086364746,0.7731323
1603808269901,107,1.034668,0.59198,0.1239624
1603808269980,108,0.77856445,-0.23052979,0.18548584
1603808270058,109,0.44482422,-0.05230713,-0.012023926
1603808270137,110,0.72753906,-0.12164307,0.07513428
1603808270216,111,1.8789062,-0.44024658,0.4442749
1603808270295,112,0.5739746,0.49163818,-0.26812744
1603808270373,113,0.8234863,0.47747803,-0.11895752
1603808270452,114,1.1040039,-0.022033691,0.35906982
1603808270531,115,0.87109375,0.42010498,0.0040893555
1603808270610,116,0.92285156,0.18963623,-0.18121338
1603808270688,117,1.1550293,-0.1638794,-0.4397583
1603808270767,118,0.83569336,-0.5081177,0.20672607
1603808270846,119,0.9904785,0.06341553,0.49383545
1603808270925,120,0.8984375,0.1671753,0.17694092
1603808271003,121,0.875,-0.28399658,0.16693115
1603808271082,122,0.9838867,-0.30059814,0.12786865
1603808271161,123,0.85180664,-0.19781494,0.23480225
1603808271240,124,0.90771484,-0.12774658,0.2772827
1603808271318,125,0.79956055,-0.09820557,0.31536865
1603808271397,126,0.61499023,-0.14703369,0.27703857
1603808271476,127,0.1159668,-0.23590088,0.6859741
1603808271555,128,0.24975586,0.38006592,0.93865967
1603808271633,129,-0.010253906,-0.089904785,1.7609253
1603808271712,130,-0.5998535,-0.5557251,1.7689819
1603808271791,131,-0.61206055,-0.20196533,0.7731323
1603808271870,132,-0.43774414,-0.14117432,0.48260498
1603808271948,133,-0.05053711,-0.14971924,0.3505249
1603808272027,134,-0.4543457,-0.02545166,0.39349365
1603808272106,135,-1.0874023,-0.14508057,0.7123413
1603808272185,136,-1.1757812,-0.21514893,0.7650757
1603808272263,137,-0.8508301,-0.1519165,0.5309448
1603808272342,138,-0.22973633,0.041931152,0.5289917
1603808272421,139,-0.06762695,0.15130615,0.71551514
1603808272500,140,-0.047607422,-0.0115356445,1.2550659
1603808272578,141,0.06958008,-0.21246338,1.3971558
1603808272657,142,-0.19018555,-0.24884033,1.0560913
1603808272736,143,-0.37280273,-0.12872314,0.99261475
1603808272815,144,0.5788574,-0.066467285,1.2907104
1603808272893,145,0.7062988,0.10369873,0.8473511
1603808272972,146,0.4711914,0.031188965,0.5975952
1603808273051,147,0.5498047,0.13031006,0.4743042
1603808273130,148,0.6730957,-0.004211426,0.3295288
1603808273208,149,0.6953125,0.33636475,-0.09185791
1603808273287,150,0.91308594,0.12371826,-0.097473145
1603808273366,151,0.9182129,0.4406128,-0.24591064
1603808273445,152,0.81396484,0.19378662,-0.08721924
1603808273523,153,0.9265137,0.29388428,-0.062805176
1603808273602,154,1.2824707,0.50823975,0.11419678
1603808273681,155,1.170166,-0.2954712,0.11199951
1603808273760,156,1.2399902,0.8251343,-0.13336182
1603808273838,157,0.7180176,0.30804443,-0.09552002
1603808273917,158,0.49975586,0.053649902,-0.027648926
1603808273996,159,0.86035156,-0.09210205,0.0018920898
1603808274075,160,1.2524414,-0.101623535,0.63323975
1603808274153,161,0.579834,0.58465576,0.652771
1603808274232,162,0.8881836,0.25628662,-0.08111572
1603808274311,163,1.0610352,0.006286621,0.11175537
1603808274390,164,0.79711914,0.38226318,-0.56866455
1603808274468,165,1.0332031,0.184021,-0.06866455
1603808274547,166,0.9824219,0.12054443,0.06048584
1603808274626,167,0.7927246,0.2855835,-0.046447754
1603808274705,168,0.81030273,0.08831787,-0.08331299
1603808274783,169,0.8666992,0.23040771,-0.14361572
1603808274862,170,0.9111328,0.36761475,0.08514404
1603808274941,171,1.1694336,0.83807373,0.027282715
1603808275020,172,1.1379395,-0.49273682,-0.10797119
1603808275098,173,1.6779785,0.10736084,-7.9345703E-4
1603808275177,174,1.3547363,0.35980225,0.44329834
1603808275256,175,0.45092773,-0.15997314,0.20233154
1603808275335,176,0.11816406,-0.19610596,-0.0032348633
1603808275413,177,0.2163086,-0.4758911,0.025817871
1603808275492,178,0.3125,-0.46759033,0.31903076
1603808275571,179,0.50390625,-0.3032837,0.23480225
1603808275650,180,1.1555176,0.14349365,0.57196045
1603808275728,181,1.9997559,-0.28399658,0.21746826
1603808275807,182,0.08203125,-0.15167236,0.26654053
1603808275886,183,1.361084,0.8209839,-0.6121216
1603808275965,184,0.77368164,0.06439209,-0.159729
1603808276043,185,1.0234375,0.30169678,-0.070129395
1603808276122,186,0.77856445,0.62298584,0.014343262
1603808276201,187,0.7167969,0.18499756,-0.06719971
1603808276280,188,0.77856445,0.29656982,-0.17926025
1603808276358,189,0.9243164,0.44403076,0.12030029
1603808276437,190,1.2236328,0.961853,-0.12359619
1603808276516,191,1.7531738,-1.0237427,0.043884277
1603808276595,192,1.5900879,0.5133667,0.036071777
1603808276673,193,0.46606445,-0.12310791,0.2296753
1603808276752,194,0.18896484,-0.38531494,0.16937256
1603808276831,195,0.13745117,-0.45465088,0.15716553
1603808276910,196,0.20898438,-0.44976807,0.11785889
1603808276988,197,0.29052734,-0.37213135,0.18548584
1603808277067,198,1.0349121,-0.21881104,0.7196655
1603808277146,199,1.9997559,-0.016906738,-0.15020752
1603808277225,200,0.11743164,-0.5252075,-0.39874268
1603808277303,201,1.2055664,1.2992554,-0.44659424
1603808277382,202,0.8984375,-0.03643799,0.31292725
1603808277461,203,0.8276367,0.49163818,-0.12579346
1603808277540,204,0.6723633,0.63397217,-0.09552002
1603808277618,205,0.7692871,0.07318115,0.055358887
1603808277697,206,0.9094238,0.38861084,0.27801514
1603808277776,207,1.3903809,0.86590576,0.24969482
1603808277855,208,1.7119141,-0.3887329,-0.054016113
1603808277933,209,1.1455078,0.5934448,0.16131592
1603808278012,210,0.12719727,-0.30718994,0.23406982
1603808278091,211,0.123046875,-0.348938,0.17694092
1603808278170,212,0.24511719,-0.4343872,0.29437256
1603808278248,213,0.27807617,-0.2600708,0.40740967
1603808278327,214,0.7927246,-0.37213135,0.53656006
1603808278406,215,1.9997559,-0.08282471,0.34710693
1603808278485,216,0.22021484,-0.1494751,-0.05645752
1603808278563,217,1.2272949,0.6774292,-0.17706299
1603808278642,218,0.7780762,0.18914795,-0.039611816
1603808278721,219,0.9187012,0.3151245,-0.04864502
1603808278800,220,0.670166,0.5018921,-0.023254395
1603808278878,221,0.75878906,0.23675537,-0.097717285
1603808278957,222,0.8977051,0.22283936,-0.08770752
1603808279036,223,1.0046387,0.5031128,0.26678467
1603808279115,224,1.6853027,0.465271,-0.23858643
1603808279193,225,1.4504395,-0.38970947,0.11224365
1603808279272,226,1.0080566,0.43597412,0.23822021
1603808279351,227,0.2524414,-0.2942505,0.24139404
1603808279430,228,0.036376953,-0.3411255,0.13153076
1603808279508,229,0.05102539,-0.40655518,0.13079834
1603808279587,230,0.42382812,-0.19586182,0.32000732
1603808279666,231,1.9997559,-0.14630127,0.41448975
1603808279745,232,0.7758789,-0.24127197,0.15887451
1603808279823,233,1.0275879,0.055358887,-0.32354736
1603808279902,234,0.83618164,0.7523804,-0.20904541
1603808279981,235,0.98828125,-0.024719238,0.18328857
1603808280060,236,0.7890625,0.4713745,-0.047180176
1603808280138,237,0.7392578,0.24310303,-0.058898926
1603808280217,238,0.8737793,0.22210693,-0.029846191
1603808280296,239,1.215332,0.68914795,0.31341553
1603808280375,240,1.5024414,-0.34039307,-0.09429932
1603808280453,241,1.5991211,0.5790405,0.13519287
1603808280532,242,0.7434082,-0.14337158,0.30511475
1603808280611,243,0.15551758,-0.13995361,0.1828003
1603808280690,244,0.036621094,-0.37554932,0.070007324
1603808280768,245,0.08227539,-0.3916626,0.14813232
1603808280847,246,0.32470703,-0.20147705,0.21722412
1603808280926,247,1.9997559,0.18792725,0.45135498
1603808281005,248,-0.40698242,-0.4055786,-0.04034424
1603808281083,249,1.2006836,0.6173706,-0.5408325
1603808281162,250,0.8156738,0.385437,0.30511475
1603808281241,251,0.89038086,0.34857178,-0.14556885
1603808281320,252,0.64746094,0.557312,-0.10284424
1603808281398,253,0.7392578,0.22821045,-0.105041504
1603808281477,254,0.98095703,0.2538452,0.24603271
1603808281556,255,1.1135254,0.99505615,0.12664795
1603808281635,256,1.7260742,-0.43218994,-0.255188
1603808281713,257,1.1960449,0.60980225,0.29144287
1603808281792,258,0.53125,0.08074951,0.16156006
1603808281871,259,0.29907227,-0.19464111,0.04046631
1603808281950,260,0.23413086,-0.34649658,0.15863037
1603808282028,261,0.37597656,-0.2720337,0.22161865
1603808282107,262,1.9997559,0.32318115,0.45135498
1603808282186,263,0.64868164,-0.090148926,0.2994995
1603808282265,264,0.9904785,0.56903076,-0.80181885
1603808282343,265,0.8305664,0.07977295,0.12225342
1603808282422,266,0.89868164,0.33392334,0.012634277
1603808282501,267,0.86376953,0.21600342,0.078552246
1603808282580,268,0.7939453,0.23968506,0.046813965
1603808282658,269,0.8779297,0.4940796,0.109558105
1603808282737,270,1.0864258,0.5477905,0.2958374
1603808282816,271,1.4321289,0.18084717,-0.062805176
1603808282895,272,1.5383301,0.40057373,0.1552124
1603808282973,273,0.8483887,0.41522217,-0.0647583
1603808283052,274,0.40429688,-0.21295166,0.008728027
1603808283131,275,0.3232422,-0.34332275,0.10028076
1603808283210,276,0.26757812,-0.30230713,0.09442139
1603808283288,277,1.0380859,0.21209717,0.46331787
1603808283367,278,1.9997559,0.070495605,0.35443115
1603808283446,279,0.6369629,0.07904053,-0.4829712
1603808283525,280,1.0283203,0.35980225,-0.1897583
1603808283603,281,0.8781738,0.18060303,0.1918335
1603808283682,282,0.77368164,0.2741089,0.13616943
1603808283761,283,0.77441406,0.14666748,-0.030334473
1603808283840,284,0.88623047,0.42010498,0.08441162
1603808283918,285,1.1965332,0.6913452,0.16595459
1603808283997,286,1.3149414,0.13739014,0.026794434
1603808284076,287,1.5117188,0.49676514,0.21990967
1603808284155,288,0.9172363,0.38031006,-0.04522705
1603808284233,289,0.22460938,-0.3657837,0.019470215
1603808284312,290,0.21533203,-0.35186768,0.011413574
1603808284391,291,0.27124023,-0.31866455,0.086364746
1603808284470,292,1.3232422,0.31732178,0.39544678
1603808284548,293,1.9382324,-0.29205322,0.34832764
1603808284627,294,0.47216797,0.4208374,-0.67193604
1603808284706,295,1.1193848,0.35687256,-0.10748291
1603808284785,296,0.93774414,0.11639404,0.23577881
1603808284863,297,0.8051758,0.17279053,0.085876465
1603808284942,298,0.796875,0.23236084,0.014587402
1603808285021,299,0.7546387,0.26971436,0.026306152
1603808285100,300,1.0932617,0.35516357,0.27142334
1603808285178,301,1.4943848,0.55804443,0.25701904
1603808285257,302,1.7109375,0.50042725,0.14129639
1603808285336,303,0.97631836,0.6190796,0.06536865
1603808285415,304,0.6101074,-0.21685791,-7.9345703E-4
1603808285493,305,0.30786133,-0.31988525,0.050231934
1603808285572,306,0.14746094,-0.41778564,0.070251465
1603808285651,307,0.3918457,-0.34429932,0.09075928
1603808285730,308,1.2663574,0.559021,0.28900146
1603808285808,309,1.8266602,0.09051514,0.1774292
1603808285887,310,0.90356445,0.109069824,-0.08721924
1603808285966,311,0.9724121,0.37371826,-0.23297119
1603808286045,312,0.9719238,0.001159668,0.061706543
1603808286123,313,0.8022461,0.29071045,-0.07940674
1603808286202,314,0.7993164,0.17376709,-0.043029785
1603808286281,315,0.83935547,0.12762451,-0.07086182
1603808286360,316,0.8898926,0.17254639,-0.22003174
1603808286438,317,1.1884766,0.6547241,0.19476318
1603808286517,318,1.1286621,0.089782715,0.16888428
1603808286596,319,1.5444336,0.75457764,0.21063232
1603808286675,320,0.81152344,0.50213623,0.24578857
1603808286753,321,0.54174805,-0.3670044,0.0099487305
1603808286832,322,0.31567383,-0.22003174,0.3036499
1603808286911,323,0.3779297,-0.24957275,0.28997803
1603808286990,324,0.32495117,-0.051086426,0.5228882
1603808287068,325,1.3994141,0.50897217,0.3727417
1603808287147,326,1.6403809,-0.17315674,0.24139404
1603808287226,327,0.72436523,0.2140503,-0.5774536
1603808287305,328,1.1179199,0.31365967,0.0053100586
1603808287383,329,0.9448242,-0.2793579,0.07122803
1603808287462,330,0.85839844,0.18865967,0.16351318
1603808287541,331,0.87158203,0.2538452,0.05999756
1603808287620,332,0.91552734,0.14471436,0.16082764
1603808287698,333,0.8811035,0.2814331,-0.13653564
1603808287777,334,1.1379395,0.44573975,0.097839355
1603808287856,335,1.2766113,-0.109191895,0.36346436
1603808287935,336,1.2145996,1.1654663,0.2189331
1603808288013,337,0.9057617,0.4677124,0.15447998
1603808288092,338,0.66674805,-0.25567627,0.16448975
1603808288171,339,0.45874023,-0.16412354,0.29510498
1603808288250,340,0.3474121,-0.26397705,0.24969482
1603808288328,341,0.57421875,0.14105225,0.3612671
1603808288407,342,1.7365723,0.15985107,0.020690918
1603808288486,343,0.7438965,-0.022033691,0.22479248
1603808288565,344,1.1831055,0.6390991,-0.36798096
1603808288643,345,1.0500488,-0.17218018,0.09295654
1603808288722,346,0.8383789,0.20062256,-0.12188721
1603808288801,347,0.8737793,0.1828003,0.035583496
1603808288880,348,0.8588867,0.16864014,-0.055725098
1603808288958,349,0.85839844,0.34539795,-0.04425049
1603808289037,350,0.98339844,0.3817749,0.062927246
1603808289116,351,1.3225098,0.45355225,-0.12261963
1603808289195,352,1.2092285,-0.5286255,0.1227417
1603808289273,353,1.4145508,0.50531006,0.070251465
1603808289352,354,0.83081055,-0.011291504,0.23382568
1603808289431,355,0.36499023,-0.14581299,0.16278076
1603808289510,356,0.26635742,-0.2859497,0.18988037
1603808289588,357,0.3947754,-0.20025635,0.19036865
1603808289667,358,0.9230957,0.008483887,0.27288818
1603808289746,359,1.8815918,0.42352295,0.64349365
1603808289825,360,0.49780273,-0.030822754,-0.30718994
1603808289903,361,1.2138672,0.2880249,-0.16583252
1603808289982,362,0.86743164,0.3168335,-0.06500244
1603808290061,363,0.88061523,0.35076904,0.012878418
1603808290140,364,0.7714844,0.18206787,-0.042297363
1603808290218,365,0.81689453,0.26263428,0.023132324
1603808290297,366,0.8503418,0.37200928,0.08270264
1603808290376,367,1.1242676,0.36932373,0.1383667
1603808290455,368,1.6833496,-0.24737549,-0.038879395
1603808290533,369,1.4858398,0.21820068,0.08514404
1603808290612,370,0.46826172,0.015319824,0.18597412
1603808290691,371,0.34936523,-0.3430786,0.22601318
1603808290770,372,0.16723633,-0.43804932,0.3595581
1603808290848,373,0.22070312,-0.3081665,0.2633667
1603808290927,374,0.4958496,-0.27130127,0.47332764
1603808291006,375,1.9997559,-0.027404785,0.5687866
1603808291085,376,0.22949219,-0.18878174,0.19647217
1603808291163,377,1.1599121,0.48065186,-0.66778564
1603808291242,378,0.83203125,0.37982178,0.019226074
1603808291321,379,1.0195312,0.0138549805,0.22723389
1603808291400,380,0.7937012,0.50994873,0.010925293
1603808291478,381,0.7631836,0.117126465,-0.12872314
1603808291557,382,0.8078613,0.10076904,-0.08111572
1603808291636,383,1.0549316,0.42279053,0.21380615
