"# PDIoT walking data"
"# Start time: 20180921T123824"
"# Group: B"
"# Subject:  Walking for 100 steps"
"# Activity type: Walking (level ground)"
"# Sensor position: Upper Leg"
"# Side of body: Right"
"# Sensor mounting: Body"
"# Number of steps: 100"
"# Notes: "
""
"timestamp","seq","accel_x","accel_y","accel_z","gyro_x","gyro_y","gyro_z"
"1537529904944","0","-0.9501953","0.20214844","-0.265625","0.125","-0.15625","-0.90625"
"1537529904952","1","-0.95214844","0.20019531","-0.26171875","0.125","0.09375","-0.90625"
"1537529904952","2","-0.95214844","0.203125","-0.25976562","-0.3125","-0.28125","-0.28125"
"1537529904952","3","-0.953125","0.20410156","-0.2607422","-0.4375","-0.65625","-0.15625"
"1537529904952","4","-0.94921875","0.19921875","-0.2626953","-0.96875","-0.65625","0.03125"
"1537529905141","5","-0.9511719","0.20996094","-0.26171875","-1.40625","-0.8125","-0.03125"
"1537529905141","6","-0.9501953","0.20800781","-0.26660156","-2.3125","-1.0625","-0.28125"
"1537529905142","7","-0.9501953","0.203125","-0.265625","-1.71875","-0.875","0.1875"
"1537529905142","8","-0.9501953","0.19824219","-0.26757812","-1.09375","-0.6875","-0.28125"
"1537529905143","9","-0.95214844","0.20019531","-0.2607422","-1.53125","-0.6875","-0.46875"
"1537529905340","10","-0.9511719","0.20703125","-0.26757812","-1.03125","-0.40625","-0.53125"
"1537529905341","11","-0.9550781","0.1953125","-0.25976562","-1.71875","-0.75","-0.78125"
"1537529905341","12","-0.95214844","0.19726562","-0.2548828","-2.1875","-0.875","-0.03125"
"1537529905342","13","-0.9550781","0.18945312","-0.25097656","-2.9375","-2.28125","-0.15625"
"1537529905343","14","-0.96972656","0.16699219","-0.2626953","2.875","-4.1875","-1.3125"
"1537529905539","15","-0.9765625","0.14746094","-0.29296875","9.09375","-5.21875","-2.78125"
"1537529905539","16","-0.9501953","0.15136719","-0.3095703","10.875","-3.375","-4.1875"
"1537529905539","17","-0.9355469","0.19140625","-0.30371094","8.625","-5.46875","-3.09375"
"1537529905540","18","-0.94628906","0.16503906","-0.29296875","10.5625","-7.96875","-0.84375"
"1537529905542","19","-0.9375","0.16601562","-0.3076172","15.5625","-4.84375","2.59375"
"1537529905738","20","-0.93066406","0.22363281","-0.2890625","12.875","-2.53125","3.125"
"1537529905740","21","-0.9472656","0.26660156","-0.2421875","-0.0625","-2.46875","4.0"
"1537529905740","22","-0.9873047","0.17773438","-0.22070312","-18.125","-5.21875","-0.65625"
"1537529905740","23","-0.99902344","0.10449219","-0.21386719","-20.4375","-8.875","-3.9375"
"1537529905740","24","-0.953125","0.20410156","-0.24316406","-8.90625","-3.28125","-1.5"
"1537529905937","25","-0.9580078","0.24414062","-0.20214844","-9.5625","-1.9375","-3.65625"
"1537529905937","26","-0.95703125","0.25097656","-0.1640625","-0.96875","-2.40625","-0.71875"
"1537529905937","27","-0.9501953","0.21972656","-0.16503906","-1.09375","-5.84375","0.5"
"1537529905937","28","-0.98828125","0.15527344","-0.20605469","16.1875","-13.28125","-7.1875"
"1537529905938","29","-0.9511719","0.017578125","-0.2685547","26.75","-0.21875","-20.375"
"1537529906136","30","-0.97558594","-0.14257812","-0.36523438","26.125","8.5","-35.1875"
"1537529906136","31","-0.8515625","-0.19628906","-0.34570312","27.65625","19.8125","-52.21875"
"1537529906136","32","-0.91308594","-0.19726562","-0.24316406","35.09375","28.84375","-74.5"
"1537529906136","33","-1.1660156","-0.06542969","-0.3857422","67.625","40.375","-73.65625"
"1537529906137","34","-1.1035156","-0.024414062","-0.30566406","19.84375","41.96875","-72.90625"
"1537529906334","35","-1.0048828","-0.0703125","-0.31347656","13.625","36.59375","-53.21875"
"1537529906335","36","-0.9785156","-0.2861328","-0.34277344","46.34375","25.375","-27.75"
"1537529906336","37","-0.9082031","-0.29296875","-0.2685547","74.15625","14.8125","-17.125"
"1537529906337","38","-0.8720703","-0.3310547","-0.32910156","79.09375","18.21875","-13.34375"
"1537529906337","39","-0.8701172","-0.31152344","-0.30371094","65.0","14.1875","-14.09375"
"1537529906532","40","-0.82128906","-0.3251953","-0.26367188","48.65625","6.875","-15.59375"
"1537529906533","41","-0.7919922","-0.44433594","-0.23144531","37.0625","2.65625","-25.5"
"1537529906533","42","-0.7890625","-0.40820312","-0.22753906","30.65625","-1.0","-34.34375"
"1537529906533","43","-0.7441406","-0.36523438","-0.27148438","11.0625","5.84375","-39.96875"
"1537529906534","44","-0.7783203","-0.4638672","-0.2919922","1.78125","4.84375","-41.78125"
"1537529906733","45","-0.8798828","-0.53515625","-0.32714844","-8.1875","14.0","-30.5625"
"1537529906733","46","-0.9580078","-0.61816406","-0.34960938","-2.875","17.375","-12.8125"
"1537529906734","47","-0.8046875","-0.5546875","-0.47460938","-6.28125","5.78125","4.34375"
"1537529906734","48","-0.5566406","-0.28222656","-0.3095703","-23.3125","22.4375","22.28125"
"1537529906735","49","-1.6328125","-0.14746094","-0.22265625","2.4375","69.3125","75.875"
"1537529906931","50","-1.7236328","-1.2177734","-0.5527344","16.0625","-35.4375","16.25"
"1537529906931","51","-0.44628906","0.60058594","-0.3544922","-21.28125","-13.21875","-8.21875"
"1537529906932","52","-0.4638672","0.73535156","-0.6123047","-71.21875","71.0625","59.84375"
"1537529906932","53","-1.2626953","-0.51171875","-0.7314453","-36.8125","20.90625","86.9375"
"1537529906933","54","-0.8017578","-0.14648438","-0.296875","12.53125","-35.1875","73.75"
"1537529907129","55","-0.6972656","0.23730469","-0.41503906","20.28125","15.59375","69.59375"
"1537529907131","56","-0.8154297","0.07910156","-0.5986328","-47.40625","13.03125","47.125"
"1537529907131","57","-0.86816406","-0.03125","-0.44335938","-110.53125","-12.40625","31.75"
"1537529907131","58","-0.85058594","-0.13378906","-0.46289062","-84.78125","3.21875","33.46875"
"1537529907132","59","-0.89160156","-0.07128906","-0.55566406","-43.875","1.1875","39.25"
"1537529907328","60","-0.8642578","0.0703125","-0.40625","-18.0","-11.8125","58.125"
"1537529907329","61","-0.78222656","0.34570312","-0.3984375","-34.25","1.8125","80.46875"
"1537529907329","62","-0.7675781","0.28808594","-0.38476562","-85.0625","-1.3125","66.1875"
"1537529907330","63","-0.95996094","-0.095703125","-0.42382812","-120.1875","-22.5625","44.6875"
"1537529907527","64","-0.8652344","-0.12011719","-0.5175781","-59.4375","-9.5625","41.28125"
"1537529907528","65","-1.0117188","0.265625","-0.61328125","-51.75","1.25","39.15625"
"1537529907528","66","-1.1054688","0.25195312","-0.5888672","-63.96875","-17.84375","36.53125"
"1537529907529","67","-1.0546875","0.12792969","-0.56933594","-84.34375","-17.90625","36.53125"
"1537529907529","68","-1.1035156","-0.024414062","-0.5419922","-39.84375","-20.40625","33.71875"
"1537529907728","69","-0.89160156","0.09277344","-0.2861328","27.78125","-38.0625","1.59375"
"1537529907728","70","-0.9941406","0.43066406","-0.16308594","35.34375","-59.28125","-58.34375"
"1537529907728","71","-0.9238281","0.71191406","-0.15625","35.59375","-12.96875","-97.15625"
"1537529907728","72","-0.92871094","0.47558594","-0.26171875","-4.75","-13.875","-121.0"
"1537529907926","73","-1.0234375","0.25683594","-0.15917969","-0.25","-4.71875","-138.09375"
"1537529907926","74","-1.0683594","0.2763672","-0.18261719","18.75","36.71875","-134.875"
"1537529907926","75","-1.0185547","0.01171875","-0.21386719","68.0","29.625","-110.28125"
"1537529907927","76","-0.9580078","-0.10449219","-0.4951172","107.25","65.09375","-112.65625"
"1537529907927","77","-0.95410156","0.046875","-0.4326172","99.125","62.65625","-82.375"
"1537529907927","78","-0.7841797","0.14453125","-0.3359375","112.5","17.25","-48.375"
"1537529908123","79","-0.6904297","0.052734375","-0.31933594","112.84375","6.8125","-21.53125"
"1537529908123","80","-0.68359375","-0.07519531","-0.234375","90.21875","7.96875","-6.9375"
"1537529908324","81","-0.63964844","-0.16992188","-0.12890625","53.59375","12.96875","-9.1875"
"1537529908325","82","-0.6699219","-0.25878906","-0.19238281","16.84375","11.8125","-16.21875"
"1537529908326","83","-0.8691406","-0.48339844","-0.296875","16.375","9.75","-20.6875"
"1537529908326","84","-1.125","-0.81347656","-0.453125","22.59375","18.9375","-24.59375"
"1537529908326","85","-1.046875","-0.671875","-0.5878906","20.34375","21.875","-22.375"
"1537529908327","86","-0.81152344","-0.5019531","-0.5","59.03125","21.875","9.40625"
"1537529908327","87","-1.9921875","-0.6513672","-0.5234375","83.0625","43.5","31.28125"
"1537529908328","88","-1.2148438","0.044921875","0.047851562","170.53125","-46.1875","-0.78125"
"1537529908720","89","-0.23632812","1.1660156","-0.61035156","-49.90625","44.84375","19.5625"
"1537529908721","90","-0.92285156","0.42382812","-0.67871094","-76.21875","79.75","86.8125"
"1537529908722","91","-1.1455078","-0.6533203","-0.69140625","-44.84375","-0.65625","70.625"
"1537529908722","92","-0.79296875","-0.016601562","-0.18261719","-6.21875","-3.21875","81.8125"
"1537529908722","93","-0.8144531","0.083984375","-0.4091797","47.84375","19.375","101.03125"
"1537529908722","94","-0.828125","0.00390625","-0.57421875","-29.53125","12.84375","85.78125"
"1537529908724","95","-0.8017578","-0.09082031","-0.38476562","-43.6875","-6.6875","72.71875"
"1537529908724","96","-0.8515625","-0.09277344","-0.37695312","-11.59375","-7.84375","68.75"
"1537529908725","97","-0.8330078","0.059570312","-0.4033203","2.5625","4.1875","81.25"
"1537529908917","98","-0.7421875","0.3330078","-0.4423828","-54.875","28.90625","102.0625"
"1537529908918","99","-1.0419922","-0.034179688","-0.41796875","-88.875","13.65625","64.15625"
"1537529908918","100","-1.015625","-0.056640625","-0.49414062","-105.28125","-25.3125","36.875"
"1537529908919","101","-1.0380859","-0.25585938","-0.6142578","-78.78125","-22.625","9.90625"
"1537529908920","102","-1.1191406","-0.18261719","-0.7060547","-39.4375","-17.5625","-4.75"
"1537529909117","103","-1.3535156","0.09375","-0.6220703","7.34375","-34.21875","10.28125"
"1537529909117","104","-1.1025391","-0.038085938","-0.26367188","-11.65625","-60.75","-9.6875"
"1537529909117","105","-0.7451172","-0.22558594","-0.140625","-19.40625","-110.5","-77.96875"
"1537529909117","106","-0.9111328","0.00390625","0.10839844","94.3125","-24.09375","-115.15625"
"1537529909118","107","-1.171875","0.6982422","-0.8046875","163.8125","7.21875","-80.5"
"1537529909318","108","-1.2207031","0.34570312","-0.4658203","78.375","-19.3125","-120.28125"
"1537529909319","109","-1.0302734","0.46191406","-0.3203125","47.0625","22.5","-111.90625"
"1537529909319","110","-0.9013672","0.25","-0.12011719","97.0625","14.25","-76.34375"
"1537529909319","111","-0.8105469","-0.12402344","-0.43066406","131.59375","29.9375","-61.4375"
"1537529909319","112","-0.8203125","-0.06933594","-0.453125","113.78125","69.25","-48.5"
"1537529909514","113","-0.6738281","0.18847656","-0.36914062","121.84375","25.65625","-4.625"
"1537529909713","114","-0.64746094","0.043945312","-0.34472656","151.0625","8.28125","15.34375"
"1537529909713","115","-0.79589844","-0.111328125","-0.21582031","134.90625","26.21875","-1.1875"
"1537529909714","116","-0.82421875","-0.24414062","-0.23339844","69.28125","34.6875","-23.90625"
"1537529909714","117","-0.75878906","-0.24609375","-0.25","15.3125","36.03125","-34.84375"
"1537529909714","118","-0.8730469","-0.70996094","-0.49316406","13.90625","59.96875","-21.65625"
"1537529909716","119","-1.0107422","-0.7480469","-0.5830078","-21.40625","47.15625","-15.1875"
"1537529909717","120","-0.78125","-0.5390625","-0.68652344","113.21875","41.53125","13.75"
"1537529909717","121","-0.85546875","-0.1015625","-0.22753906","148.75","38.59375","56.96875"
"1537529909718","122","-1.9921875","-1.3564453","-0.15527344","234.3125","5.09375","66.65625"
"1537529909913","123","-0.7910156","0.80078125","-0.53222656","121.59375","-28.03125","-21.71875"
"1537529909914","124","0.041992188","1.6552734","-0.8984375","0.8125","110.3125","80.03125"
"1537529909914","125","-1.1240234","-0.33789062","-0.7441406","-109.5","26.03125","100.65625"
"1537529909914","126","-1.1318359","-0.6777344","-0.18359375","-15.75","-36.46875","67.78125"
"1537529909914","127","-0.87109375","0.123046875","-0.35058594","114.3125","36.28125","121.78125"
"1537529910110","128","-0.70214844","0.17089844","-0.4482422","63.1875","36.59375","122.21875"
"1537529910311","129","-0.94628906","0.0048828125","-0.30566406","-2.0625","-2.65625","96.15625"
"1537529910312","130","-0.8720703","-0.060546875","-0.35351562","8.25","13.6875","86.6875"
"1537529910312","131","-0.8339844","0.095703125","-0.50390625","8.84375","3.8125","82.1875"
"1537529910312","132","-0.8310547","0.2705078","-0.47265625","-10.0","10.09375","85.65625"
"1537529910313","133","-0.80078125","0.20410156","-0.5097656","-58.46875","28.28125","81.3125"
"1537529910314","134","-0.98339844","0.06933594","-0.4453125","-75.3125","0.9375","56.21875"
"1537529910314","135","-1.0654297","9.765625E-4","-0.45117188","-69.15625","-14.6875","36.46875"
"1537529910314","136","-0.91308594","-0.18554688","-0.5527344","-77.03125","-16.4375","17.65625"
"1537529910315","137","-1.0371094","0.01953125","-0.6064453","-41.75","-10.03125","14.96875"
"1537529910507","138","-1.1728516","-0.09375","-0.6816406","-26.59375","-26.09375","30.0"
"1537529910508","139","-1.0195312","-0.20703125","-0.3828125","-7.1875","-45.5625","10.53125"
"1537529910509","140","-0.7783203","0.08886719","-0.22363281","0.5","-84.5","-48.4375"
"1537529910706","141","-0.8857422","0.54785156","-0.203125","88.25","-6.3125","-88.0625"
"1537529910707","142","-1.0859375","0.5888672","-0.4375","73.0625","-22.90625","-112.40625"
"1537529910709","143","-1.2324219","0.22753906","-0.3017578","23.5","-17.5625","-132.625"
"1537529910709","144","-1.1591797","0.2607422","-0.28808594","21.25","16.875","-134.75"
"1537529910710","145","-1.0800781","0.40527344","-0.2109375","77.65625","40.3125","-109.40625"
"1537529910710","146","-0.9003906","0.10253906","-0.38476562","87.40625","34.5","-80.84375"
"1537529910710","147","-0.92089844","-0.064453125","-0.35253906","83.6875","45.5625","-54.59375"
"1537529911104","148","-0.7685547","0.032226562","-0.25097656","109.6875","17.5","-16.71875"
"1537529911104","149","-0.6074219","0.12109375","-0.32226562","130.125","-4.5","12.65625"
"1537529911105","150","-0.734375","-0.056640625","-0.2734375","106.03125","9.5625","4.84375"
"1537529911105","151","-0.7753906","-0.17480469","-0.15332031","38.34375","23.53125","-24.03125"
"1537529911106","152","-0.6621094","-0.19238281","-0.234375","-24.78125","43.5","-42.40625"
"1537529911304","153","-0.71484375","-0.421875","-0.4404297","-65.53125","69.71875","-49.46875"
"1537529911305","154","-1.0488281","-0.8808594","-0.45703125","-48.03125","51.125","-28.78125"
"1537529911504","155","-0.99316406","-0.81640625","-0.5605469","61.84375","40.4375","-0.21875"
"1537529911504","156","-0.66796875","-0.3466797","-0.5966797","101.75","28.09375","29.4375"
"1537529911505","157","-0.8417969","0.03125","-0.3642578","67.28125","36.59375","73.625"
"1537529911506","158","-1.9921875","-1.1230469","-0.56152344","74.40625","64.65625","52.09375"
"1537529911506","159","-0.7832031","0.5761719","-0.21777344","119.625","-65.28125","-19.15625"
"1537529911506","160","-0.1015625","1.6191406","-0.7324219","-30.03125","128.75","40.3125"
"1537529911506","161","-1.0537109","-0.20898438","-0.78027344","-160.625","44.65625","75.875"
"1537529911701","162","-1.1552734","-0.8222656","-0.2861328","-34.0625","-50.1875","51.84375"
"1537529911701","163","-0.7265625","0.15527344","-0.3154297","50.65625","22.5","71.1875"
"1537529911701","164","-0.59765625","0.328125","-0.62597656","17.46875","31.84375","72.90625"
"1537529911701","165","-0.80078125","-0.12597656","-0.5107422","-68.96875","3.6875","27.71875"
"1537529911703","166","-0.8310547","-0.09667969","-0.4326172","-49.1875","-0.15625","25.34375"
"1537529911703","167","-0.81640625","0.078125","-0.4736328","-27.9375","1.625","26.1875"
"1537529911704","168","-0.8378906","0.19726562","-0.4609375","-45.28125","-0.53125","29.375"
"1537529911704","169","-0.8857422","0.27539062","-0.50878906","-63.59375","-1.0","27.59375"
"1537529911899","170","-1.0009766","0.17089844","-0.578125","-69.625","-10.09375","41.21875"
"1537529911900","171","-1.0664062","0.11621094","-0.546875","-92.28125","-16.5","47.6875"
"1537529911900","172","-1.15625","0.046875","-0.66503906","-135.8125","-31.15625","51.09375"
"1537529911900","173","-1.0664062","-0.19140625","-0.6533203","-128.34375","-35.1875","43.78125"
"1537529911901","174","-0.8173828","-0.36328125","-0.53125","-66.21875","-13.75","-16.8125"
"1537529912098","175","-0.9042969","-0.16601562","-0.24121094","-48.625","-14.375","-84.40625"
"1537529912100","176","-0.8457031","0.18554688","-0.09277344","-1.65625","-0.9375","-152.03125"
"1537529912100","177","-1.6660156","0.6875","-0.2607422","12.75","26.09375","-160.9375"
"1537529912100","178","-1.2695312","0.5107422","-0.17871094","-29.21875","29.75","-175.34375"
"1537529912100","179","-1.3105469","0.20800781","-0.18261719","-49.3125","54.09375","-193.28125"
"1537529912299","180","-1.0576172","0.10546875","-0.07714844","-3.65625","38.375","-146.71875"
"1537529912300","181","-0.890625","-0.20800781","-0.20214844","87.21875","28.65625","-111.1875"
"1537529912300","182","-0.81347656","-0.087890625","-0.30566406","113.28125","31.71875","-84.9375"
"1537529912300","183","-0.5175781","0.1796875","-0.3623047","87.59375","3.4375","-48.125"
"1537529912495","184","-0.30859375","0.1875","-0.31445312","31.8125","-8.75","-15.84375"
"1537529912495","185","-0.36132812","-0.13183594","-0.29785156","-26.78125","27.4375","-4.0"
"1537529912497","186","-0.8105469","-0.63964844","-0.21191406","-73.125","35.4375","-1.03125"
"1537529912497","187","-1.3447266","-1.3203125","-0.4921875","14.28125","21.625","20.21875"
"1537529912497","188","-1.0751953","-1.0263672","-0.7001953","125.625","-16.15625","6.65625"
"1537529912694","189","-0.5498047","-0.30566406","-0.44726562","62.75","5.875","2.34375"
"1537529912695","190","-1.1123047","0.27148438","-0.3330078","76.71875","59.65625","61.65625"
"1537529912695","191","-1.9921875","-1.2167969","-0.32910156","58.21875","-1.5625","9.25"
"1537529912695","192","-0.6484375","0.58984375","-0.4248047","0.4375","-54.78125","-18.15625"
"1537529912696","193","-0.5029297","1.1113281","-0.91503906","-8.84375","102.4375","107.75"
"1537529912893","194","-1.0507812","-0.58496094","-0.80078125","-60.96875","-14.25","109.6875"
"1537529912893","195","-0.8066406","-0.17480469","-0.15917969","13.625","-32.5","84.84375"
"1537529912894","196","-0.7451172","0.25390625","-0.50390625","21.71875","27.25","91.21875"
"1537529912895","197","-0.79589844","-0.0146484375","-0.5283203","-44.375","6.1875","86.3125"
"1537529912895","198","-0.8251953","-0.16503906","-0.40625","-79.15625","-6.0","64.65625"
"1537529913092","199","-0.8017578","-0.103515625","-0.328125","-36.5","0.625","71.6875"
"1537529913092","200","-0.8955078","0.19726562","-0.47558594","1.03125","5.46875","77.15625"
"1537529913093","201","-0.7910156","0.3173828","-0.4423828","-39.3125","5.46875","84.84375"
"1537529913093","202","-0.8359375","0.23925781","-0.56933594","-99.0625","2.40625","72.09375"
"1537529913093","203","-0.9609375","-0.09082031","-0.3642578","-112.46875","-27.0625","72.65625"
"1537529913293","204","-0.98339844","-0.17773438","-0.625","-59.6875","-0.875","38.65625"
"1537529913293","205","-1.0205078","0.038085938","-0.6269531","-45.59375","-7.53125","24.25"
"1537529913293","206","-0.9951172","0.12792969","-0.58691406","-48.8125","-20.28125","36.75"
"1537529913293","207","-1.0087891","-0.045898438","-0.6376953","-6.71875","-21.9375","39.3125"
"1537529913294","208","-1.0634766","-0.08886719","-0.27734375","22.84375","-22.75","-13.78125"
"1537529913489","209","-0.8613281","0.171875","-0.1015625","31.0","-39.65625","-98.90625"
"1537529913489","210","-0.9316406","0.27539062","-0.15136719","4.9375","-20.90625","-153.0625"
"1537529913490","211","-1.3955078","0.6269531","-0.5419922","49.625","12.65625","-139.5"
"1537529913490","212","-1.3007812","0.30859375","-0.30273438","21.5","3.03125","-158.4375"
"1537529913491","213","-1.2119141","0.34472656","-0.28027344","38.09375","49.46875","-153.0625"
"1537529913687","214","-0.8935547","0.25097656","-0.19042969","70.1875","19.375","-110.09375"
"1537529913688","215","-0.82714844","-0.068359375","-0.3564453","85.09375","49.71875","-76.46875"
"1537529913689","216","-0.85546875","0.053710938","-0.3408203","70.9375","60.21875","-53.5"
"1537529913690","217","-0.61621094","0.14355469","-0.20703125","83.25","1.625","-11.46875"
"1537529913690","218","-0.54589844","0.047851562","-0.31640625","79.46875","-9.84375","12.28125"
"1537529914085","219","-0.75683594","-0.17871094","-0.22167969","56.03125","9.1875","6.84375"
"1537529914086","220","-0.76464844","-0.39648438","-0.13769531","-8.1875","12.0","-17.6875"
"1537529914086","221","-0.73046875","-0.39453125","-0.359375","-35.875","30.4375","-38.4375"
"1537529914086","222","-0.9560547","-0.5341797","-0.4814453","-45.96875","42.8125","-43.4375"
"1537529914087","223","-1.0898438","-0.7480469","-0.4111328","-20.5625","18.21875","-28.65625"
"1537529914087","224","-0.7988281","-0.55859375","-0.5595703","32.34375","18.34375","-4.0625"
"1537529914088","225","-0.53222656","-0.18457031","-0.27734375","22.09375","32.6875","32.6875"
"1537529914089","226","-1.9921875","-0.44335938","-0.70996094","52.75","93.0625","85.28125"
"1537529914089","227","-1.0380859","-0.5673828","0.046875","141.96875","-79.375","-19.5625"
"1537529914286","228","-0.4873047","0.4033203","-0.7841797","-144.53125","94.5625","46.15625"
"1537529914286","229","-1.5751953","-1.0048828","-0.9453125","-49.875","25.71875","38.03125"
"1537529914287","230","-0.7636719","-0.07519531","-0.25878906","-8.46875","0.03125","41.65625"
"1537529914287","231","-0.62890625","0.234375","-0.60546875","30.15625","21.34375","65.5"
"1537529914287","232","-0.8046875","0.087890625","-0.7753906","-81.0","28.84375","43.84375"
"1537529914485","233","-0.86816406","-0.03125","-0.5097656","-120.0625","-3.09375","27.78125"
"1537529914485","234","-0.8017578","-0.13867188","-0.4873047","-95.5625","1.5","24.375"
"1537529914486","235","-0.8183594","-0.048828125","-0.5410156","-82.34375","-5.78125","19.5"
"1537529914486","236","-0.8066406","-0.041992188","-0.48632812","-68.78125","-7.0625","15.34375"
"1537529914486","237","-0.79785156","0.028320312","-0.5078125","-77.15625","-2.15625","9.40625"
"1537529914681","238","-0.88964844","0.018554688","-0.4765625","-78.96875","-6.5","11.3125"
"1537529914681","239","-0.84375","-0.0126953125","-0.4609375","-62.0625","-7.53125","11.4375"
"1537529914682","240","-0.8339844","0.08691406","-0.5292969","-36.875","-2.28125","21.4375"
"1537529914682","241","-1.0009766","0.17578125","-0.5527344","-56.21875","-1.5","24.0625"
"1537529914684","242","-0.9892578","0.17382812","-0.46777344","-109.96875","-15.21875","22.40625"
"1537529914881","243","-1.0136719","0.041015625","-0.52246094","-113.875","-32.4375","31.8125"
"1537529914881","244","-0.9941406","-0.17773438","-0.6894531","-105.53125","-28.59375","33.65625"
"1537529914882","245","-0.9814453","-0.16601562","-0.5566406","-75.4375","-15.84375","21.3125"
"1537529914882","246","-0.99609375","-0.09765625","-0.44726562","-35.03125","-1.75","-26.03125"
"1537529914883","247","-0.9355469","0.08203125","-0.14648438","-79.71875","-26.28125","-111.96875"
"1537529915079","248","-0.8310547","0.30273438","-0.13769531","-32.28125","-4.1875","-172.21875"
"1537529915080","249","-1.4433594","0.5390625","-0.33007812","-84.21875","1.875","-182.40625"
"1537529915080","250","-1.2275391","0.1796875","-0.33007812","-71.15625","31.65625","-175.21875"
"1537529915081","251","-1.2880859","0.025390625","-0.25878906","-29.65625","46.71875","-173.8125"
"1537529915082","252","-1.0019531","0.12597656","-0.16894531","40.21875","14.375","-115.75"
"1537529915277","253","-0.91796875","-0.060546875","-0.28710938","109.0","27.9375","-84.875"
"1537529915478","254","-0.74316406","-0.0087890625","-0.3203125","75.3125","20.90625","-61.0625"
"1537529915675","255","-0.43652344","0.0703125","-0.28808594","30.65625","0.46875","-37.09375"
"1537529915676","256","-0.37402344","-0.022460938","-0.20117188","-21.0625","7.0","-16.53125"
"1537529915877","257","-0.58691406","-0.36816406","-0.26171875","-35.53125","30.25","-3.8125"
"1537529915877","258","-0.80371094","-0.7294922","-0.29882812","-33.375","45.875","2.65625"
"1537529915877","259","-0.9316406","-0.7080078","-0.4033203","23.5","22.125","10.8125"
"1537529915877","260","-1.046875","-0.8496094","-0.57910156","44.0","0.46875","3.6875"
"1537529915878","261","-0.8984375","-0.76171875","-0.5419922","62.5625","3.5","1.65625"
"1537529915878","262","-0.6513672","-0.40039062","-0.58203125","88.03125","19.5","22.65625"
"1537529915878","263","-1.0810547","0.12792969","-0.296875","92.28125","43.0","83.09375"
"1537529915878","264","-0.8828125","-0.53515625","-0.37695312","11.78125","-43.5625","78.5625"
"1537529915879","265","-0.7548828","-0.08203125","-0.38085938","102.4375","14.25","94.0"
"1537529916073","266","-0.8671875","0.15136719","-0.5205078","84.125","18.78125","99.25"
"1537529916073","267","-0.875","-0.107421875","-0.31640625","-32.78125","9.90625","65.9375"
"1537529916073","268","-0.81933594","-0.091796875","-0.45410156","-35.15625","1.5625","53.3125"
"1537529916074","269","-0.78222656","-0.103515625","-0.40429688","10.0","5.59375","58.625"
"1537529916074","270","-0.82128906","-0.14941406","-0.42285156","29.375","5.46875","57.875"
"1537529916076","271","-0.90722656","-0.028320312","-0.48828125","37.3125","4.25","57.875"
"1537529916076","272","-0.8671875","0.35253906","-0.45703125","15.03125","12.46875","66.78125"
"1537529916274","273","-0.94628906","0.2705078","-0.57421875","-21.25","23.90625","63.0"
"1537529916274","274","-0.9560547","-0.119140625","-0.5751953","-63.21875","-4.96875","48.125"
"1537529916472","275","-1.0380859","-0.20410156","-0.5654297","-38.03125","-20.96875","42.75"
"1537529916473","276","-1.1660156","-0.3564453","-0.59277344","-1.71875","-28.46875","29.375"
"1537529916473","277","-1.0332031","-0.18945312","-0.34472656","-9.8125","-62.53125","-18.0"
"1537529916474","278","-0.71777344","0.22265625","-0.31445312","8.625","-69.3125","-63.59375"
"1537529916475","279","-1.109375","0.390625","-0.5136719","47.6875","-23.09375","-93.84375"
"1537529916475","280","-1.1503906","0.17089844","-0.4814453","60.375","-19.9375","-95.375"
"1537529916476","281","-1.2724609","0.23632812","-0.36132812","59.75","7.21875","-115.03125"
"1537529916476","282","-1.0742188","0.45214844","-0.31445312","43.84375","23.59375","-110.625"
"1537529916669","283","-0.86816406","0.18945312","-0.3251953","78.6875","-10.65625","-87.9375"
"1537529916670","284","-0.9453125","-0.06738281","-0.3076172","80.375","-2.96875","-71.46875"
"1537529916670","285","-0.85253906","0.044921875","-0.31933594","62.875","12.59375","-49.25"
"1537529916670","286","-0.61328125","0.13671875","-0.2939453","46.03125","3.03125","-23.1875"
"1537529916671","287","-0.5986328","0.049804688","-0.20019531","35.90625","-0.9375","2.40625"
"1537529916870","288","-0.7451172","-0.16992188","-0.125","35.34375","-1.625","17.96875"
"1537529916871","289","-0.9140625","-0.44433594","-0.111328125","30.46875","-10.53125","25.09375"
"1537529916871","290","-0.93847656","-0.62109375","-0.23535156","21.0625","-8.09375","17.15625"
"1537529916871","291","-1.0380859","-0.7548828","-0.2890625","33.34375","-10.71875","7.34375"
"1537529916871","292","-1.0048828","-0.54296875","-0.44433594","58.0625","22.375","-6.375"
"1537529917067","293","-0.8574219","-0.4609375","-0.31054688","14.90625","39.40625","-9.1875"
"1537529917068","294","-0.9550781","-0.12402344","-0.3828125","-27.40625","65.46875","5.8125"
"1537529917068","295","-1.6289062","-0.53027344","-0.4921875","55.0625","63.6875","29.625"
"1537529917070","296","-1.0419922","0.17480469","-0.109375","165.21875","-51.375","7.21875"
"1537529917070","297","-0.37402344","0.7841797","-0.9873047","77.15625","94.6875","34.3125"
"1537529917266","298","-0.74316406","0.2607422","-0.6171875","-76.84375","40.0","31.28125"
"1537529917266","299","-1.2724609","-0.07421875","-0.37304688","-102.96875","22.25","29.125"
"1537529917266","300","-1.09375","-0.025390625","-0.27246094","-33.5","9.625","45.84375"
"1537529917267","301","-0.7949219","-0.0029296875","-0.45410156","-32.71875","9.5","61.3125"
"1537529917268","302","-0.8095703","-0.05078125","-0.48535156","-35.28125","13.34375","70.625"
"1537529917464","303","-0.86816406","-0.13183594","-0.38378906","-47.96875","0.46875","48.0"
"1537529917464","304","-0.8515625","-0.005859375","-0.4033203","-39.0","0.8125","35.0"
"1537529917467","305","-0.8798828","0.0390625","-0.33398438","-40.9375","-5.59375","22.84375"
"1537529917467","306","-0.91308594","0.0087890625","-0.30664062","-55.53125","-8.6875","11.125"
"1537529917467","307","-0.9638672","0.060546875","-0.421875","-63.09375","-10.15625","7.46875"
"1537529917663","308","-0.8955078","0.060546875","-0.5576172","-65.125","-9.25","19.375"
"1537529917663","309","-0.9042969","0.05078125","-0.5253906","-57.125","-16.15625","32.71875"
"1537529917663","310","-0.9511719","-0.16992188","-0.65234375","-35.34375","-18.71875","41.65625"
"1537529917664","311","-1.0322266","-0.36035156","-0.6464844","-21.34375","-27.75","53.0625"
"1537529917862","312","-1.0439453","-0.32714844","-0.53027344","-2.625","-34.9375","66.59375"
"1537529917863","313","-1.0332031","-0.3408203","-0.5576172","-1.65625","-23.90625","15.40625"
"1537529917863","314","-0.88183594","-0.13769531","-0.453125","-50.09375","-51.4375","-57.96875"
"1537529917865","315","-0.80566406","0.36523438","-0.359375","70.1875","-20.1875","-86.96875"
"1537529917865","316","-1.2753906","0.43066406","-0.4423828","94.78125","2.21875","-92.5625"
"1537529918060","317","-1.1367188","0.18554688","-0.3564453","87.40625","25.0","-94.28125"
"1537529918061","318","-1.2138672","0.234375","-0.31640625","94.96875","39.75","-90.125"
"1537529918061","319","-0.9433594","0.28808594","-0.19140625","119.4375","22.0","-52.59375"
"1537529918062","320","-0.81640625","-0.020507812","-0.4013672","178.84375","27.875","-38.625"
"1537529918063","321","-0.81640625","-0.11328125","-0.5175781","128.96875","57.71875","-38.625"
"1537529918259","322","-0.6513672","0.16015625","-0.39160156","90.8125","35.1875","-24.28125"
"1537529918260","323","-0.73535156","0.09863281","-0.31640625","99.1875","22.84375","-7.0"
"1537529918260","324","-0.8720703","-0.14355469","-0.15332031","103.03125","15.15625","-0.09375"
"1537529918261","325","-0.86328125","-0.23632812","-0.140625","68.65625","13.875","-1.75"
"1537529918458","326","-0.796875","-0.16210938","-0.20214844","47.375","4.0625","1.375"
"1537529918459","327","-0.93359375","-0.33203125","-0.29296875","31.1875","-2.71875","1.71875"
"1537529918459","328","-1.1035156","-0.8720703","-0.54785156","-23.6875","0.34375","-18.71875"
"1537529918459","329","-0.8671875","-0.6035156","-0.5654297","-4.34375","46.46875","-33.25"
"1537529918461","330","-0.61035156","-0.37109375","-0.41796875","56.40625","56.3125","16.6875"
"1537529918462","331","-0.9628906","-0.22265625","-0.12011719","69.34375","24.9375","60.0625"
"1537529918657","332","-1.984375","-1.3154297","-0.35839844","202.75","-11.5625","57.09375"
"1537529918657","333","-0.68066406","0.45898438","-0.4033203","86.84375","-39.34375","-5.59375"
"1537529918657","334","-0.46972656","1.1328125","-0.86621094","-9.40625","96.34375","57.875"
"1537529918657","335","-1.0537109","-0.41503906","-0.8310547","-92.46875","20.34375","66.78125"
"1537529918658","336","-0.8691406","-0.53222656","-0.31933594","-19.09375","-6.375","54.59375"
"1537529918855","337","-0.8671875","-0.01953125","-0.390625","103.09375","21.5625","92.71875"
"1537529918855","338","-0.8496094","-0.02734375","-0.39746094","97.53125","17.59375","103.0"
"1537529918857","339","-0.9589844","-0.03125","-0.3701172","32.40625","12.96875","84.0"
"1537529918857","340","-0.8466797","0.018554688","-0.36914062","1.90625","13.9375","72.15625"
"1537529918858","341","-0.7861328","-0.056640625","-0.44628906","5.25","6.875","68.0"
"1537529919056","342","-0.7246094","-0.19042969","-0.44335938","22.78125","8.625","65.25"
"1537529919057","343","-0.8808594","-0.20410156","-0.40820312","34.0625","22.0625","54.09375"
"1537529919057","344","-0.8886719","0.02734375","-0.4296875","51.875","-0.9375","38.84375"
"1537529919057","345","-0.9003906","0.26367188","-0.5390625","36.125","19.25","48.78125"
"1537529919057","346","-0.9482422","0.15234375","-0.5908203","-14.03125","6.875","64.34375"
"1537529919253","347","-0.95996094","0.09375","-0.5263672","-51.6875","1.375","59.15625"
"1537529919253","348","-0.9433594","0.09667969","-0.5185547","-18.1875","-5.84375","78.03125"
"1537529919253","349","-1.0126953","-0.15429688","-0.66796875","-17.5625","-15.15625","72.28125"
"1537529919255","350","-1.0800781","-0.3017578","-0.6425781","-47.125","-25.0625","55.5625"
"1537529919255","351","-1.1162109","-0.30273438","-0.47070312","-17.8125","-44.53125","39.4375"
"1537529919453","352","-0.7871094","-0.032226562","-0.2529297","-3.09375","-73.15625","-7.5"
"1537529919453","353","-0.7480469","0.35351562","-0.28027344","73.96875","-40.3125","-58.09375"
"1537529919453","354","-1.1728516","0.37109375","-0.45214844","115.0625","-27.9375","-70.78125"
"1537529919453","355","-1.1523438","0.22167969","-0.3720703","83.4375","-13.65625","-92.28125"
"1537529919454","356","-1.21875","0.4892578","-0.47460938","59.03125","-7.40625","-106.1875"
"1537529919651","357","-1.0029297","0.5078125","-0.38085938","41.625","-2.84375","-98.8125"
"1537529919651","358","-0.93359375","0.14648438","-0.4658203","37.34375","21.75","-97.46875"
"1537529919651","359","-0.9589844","-0.017578125","-0.3095703","38.28125","35.25","-74.6875"
"1537529919851","360","-0.7294922","-0.0126953125","-0.30566406","62.875","16.375","-47.84375"
"1537529919852","361","-0.6386719","0.09082031","-0.3330078","108.71875","11.125","-21.03125"
"1537529919853","362","-0.6640625","0.044921875","-0.2265625","104.0625","1.1875","-10.34375"
"1537529919853","363","-0.7080078","-0.045898438","-0.14746094","40.34375","-3.4375","-21.21875"
"1537529919853","364","-0.7480469","-0.28125","-0.26367188","-26.1875","11.3125","-39.65625"
"1537529919853","365","-0.7216797","-0.5292969","-0.4140625","-37.59375","33.78125","-51.5"
"1537529919853","366","-0.8828125","-0.7519531","-0.5136719","-43.625","54.59375","-53.3125"
"1537529920047","367","-1.0214844","-0.6142578","-0.45214844","24.125","31.46875","-29.78125"
"1537529920048","368","-0.7597656","-0.46875","-0.55859375","95.65625","27.875","12.03125"
"1537529920048","369","-0.5654297","-0.11328125","-0.2529297","91.625","17.59375","58.25"
"1537529920049","370","-1.9921875","-0.46679688","-0.5908203","72.5625","105.8125","90.28125"
"1537529920050","371","-1.0820312","-0.3017578","0.087890625","120.0","-80.0","-38.125"
"1537529920247","372","-0.35253906","1.1992188","-0.5830078","-63.34375","34.15625","-18.40625"
"1537529920247","373","-0.71875","0.18554688","-0.84277344","-152.59375","78.46875","54.53125"
"1537529920248","374","-1.3652344","-1.1181641","-0.7451172","-34.96875","-7.0625","41.8125"
"1537529920248","375","-0.75","-0.13574219","-0.2861328","54.5625","15.71875","72.90625"
"1537529920249","376","-0.5644531","0.14941406","-0.5751953","83.875","30.0625","107.5"
"1537529920445","377","-0.89160156","0.00390625","-0.49609375","-36.125","17.375","74.59375"
"1537529920445","378","-0.9033203","-0.017578125","-0.34570312","-54.875","-0.59375","60.75"
"1537529920446","379","-0.8105469","-0.234375","-0.41015625","-40.09375","5.21875","63.9375"
"1537529920447","380","-0.79003906","-0.16113281","-0.5029297","-22.46875","3.5","61.3125"
"1537529920447","381","-0.83203125","-0.072265625","-0.43066406","-7.5625","2.71875","54.71875"
"1537529920644","382","-0.7998047","0.068359375","-0.4560547","-4.9375","0.15625","44.5"
"1537529920644","383","-0.8076172","0.18847656","-0.5019531","-39.84375","-1.25","30.78125"
"1537529920645","384","-0.90234375","0.15136719","-0.60058594","-82.5","7.65625","20.28125"
"1537529920645","385","-0.97265625","-0.021484375","-0.5722656","-102.09375","-15.15625","19.375"
"1537529920646","386","-0.98339844","-0.061523438","-0.5644531","-100.59375","-26.09375","33.96875"
"1537529920845","387","-1.0253906","-0.09472656","-0.63671875","-83.0","-35.6875","41.65625"
"1537529921044","388","-1.0849609","-0.11035156","-0.578125","-68.90625","-29.75","13.625"
"1537529921044","389","-1.0283203","0.01171875","-0.38867188","-61.09375","-9.4375","-57.21875"
"1537529921044","390","-0.9824219","0.35351562","-0.15527344","-48.15625","-18.34375","-100.5"
"1537529921044","391","-1.3085938","0.3154297","-0.20898438","-14.09375","26.9375","-122.71875"
"1537529921046","392","-1.1513672","0.296875","-0.11621094","-32.09375","25.90625","-122.0"
"1537529921046","393","-0.97265625","0.3095703","-0.057617188","-31.71875","22.84375","-139.4375"
"1537529921046","394","-0.9140625","0.28027344","-0.12792969","-21.53125","29.6875","-120.46875"
"1537529921047","395","-0.9814453","0.07714844","-0.21191406","3.84375","27.5","-100.5"
"1537529921241","396","-1.0058594","-0.03125","-0.38085938","-16.21875","24.3125","-84.09375"
"1537529921241","397","-0.82714844","-0.057617188","-0.3544922","-30.5625","25.375","-68.09375"
"1537529921241","398","-0.6875","-0.07910156","-0.22851562","-30.03125","23.21875","-48.3125"
"1537529921241","399","-0.62597656","-0.19824219","-0.19238281","4.9375","5.78125","-25.1875"
"1537529921243","400","-0.64453125","-0.36035156","-0.3046875","19.0","5.53125","-6.625"
"1537529921243","401","-0.6269531","-0.5205078","-0.41992188","-11.71875","33.65625","-3.15625"
"1537529921439","402","-0.7734375","-0.65625","-0.4501953","-23.96875","25.1875","-3.40625"
"1537529921440","403","-0.9296875","-0.6933594","-0.39648438","24.46875","7.53125","9.71875"
"1537529921440","404","-1.0175781","-0.7050781","-0.39648438","73.25","-3.5625","10.28125"
"1537529921441","405","-0.8701172","-0.3828125","-0.5097656","65.0","-0.40625","-2.90625"
"1537529921442","406","-0.5683594","0.06640625","-0.31152344","29.125","25.1875","14.25"
"1537529921638","407","-1.3525391","-0.091796875","-0.41796875","-3.09375","78.28125","54.28125"
"1537529921838","408","-1.7607422","-0.89941406","-0.064453125","12.75","-50.8125","-30.875"
"1537529922035","409","-0.6503906","0.63964844","-0.5253906","-19.96875","-23.34375","-20.0"
"1537529922234","410","-0.5107422","0.7363281","-0.9423828","-61.875","84.4375","66.90625"
"1537529922234","411","-1.1972656","-0.609375","-0.75878906","-84.09375","-12.65625","45.6875"
"1537529922235","412","-0.9121094","-0.0146484375","-0.26367188","26.75","-9.375","54.28125"
"1537529922235","413","-0.78027344","0.2841797","-0.5283203","-3.15625","15.46875","58.75"
"1537529922236","414","-0.8544922","0.037109375","-0.5839844","-65.78125","-19.6875","42.5"
"1537529922237","415","-0.7861328","-0.16113281","-0.6044922","-107.34375","-20.0625","20.03125"
"1537529922238","416","-0.73828125","-0.22363281","-0.58691406","-113.15625","-5.59375","2.03125"
"1537529922238","417","-0.8496094","-0.22558594","-0.49609375","-67.0","-15.40625","4.59375"
"1537529922238","418","-0.890625","0.10546875","-0.4560547","-37.09375","-4.0","44.9375"
"1537529922436","419","-0.83203125","0.13671875","-0.42285156","-59.75","-5.78125","40.0"
"1537529922436","420","-0.99121094","0.013671875","-0.33203125","24.65625","-76.9375","-40.5625"
"1537529922436","421","-0.84765625","0.359375","-0.28710938","13.4375","-61.0625","-103.1875"
"1537529922437","422","-1.2919922","0.18359375","-0.73046875","29.84375","-67.53125","-103.0"
"1537529922437","423","-1.1806641","0.025390625","-0.40234375","9.59375","-43.125","-94.28125"
"1537529922437","424","-0.9970703","0.3701172","-0.40722656","11.40625","16.3125","-121.125"
"1537529922632","425","-0.7949219","0.16015625","-0.30566406","32.15625","0.75","-78.71875"
"1537529922632","426","-0.9013672","-0.22265625","-0.26464844","123.0625","4.0625","-43.1875"
"1537529922632","427","-0.890625","-0.1796875","-0.45996094","170.46875","45.4375","-25.5"
"1537529922633","428","-0.7080078","0.09277344","-0.56640625","130.5625","38.0625","-17.1875"
"1537529922832","429","-0.7138672","0.16210938","-0.44921875","93.8125","23.90625","-8.59375"
"1537529922833","430","-0.86816406","-0.049804688","-0.234375","82.46875","29.75","-4.375"
"1537529922833","431","-0.8544922","-0.2548828","-0.25097656","69.84375","27.375","-8.53125"
"1537529922833","432","-0.7207031","-0.24804688","-0.35058594","50.90625","44.40625","-10.65625"
"1537529922834","433","-0.6689453","-0.23144531","-0.41992188","34.96875","47.09375","-12.0"
"1537529923029","434","-0.7285156","-0.3310547","-0.53027344","13.96875","61.0625","-15.125"
"1537529923030","435","-0.75683594","-0.5234375","-0.58203125","-9.28125","65.875","-15.71875"
"1537529923030","436","-0.7470703","-0.69628906","-0.42578125","30.40625","66.6875","4.59375"
"1537529923030","437","-0.45898438","-0.44433594","-0.30273438","62.4375","34.15625","44.625"
"1537529923031","438","-1.9921875","-0.56640625","-0.7001953","103.9375","116.125","101.65625"
"1537529923227","439","-0.9765625","0.3642578","0.3935547","226.25","-138.6875","-46.4375"
"1537529923228","440","0.0625","2.008789","-1.0126953","-42.65625","44.84375","7.53125"
"1537529923228","441","-0.71191406","-0.0107421875","-0.81933594","-263.59375","66.8125","42.8125"
"1537529923228","442","-1.609375","-1.3574219","-0.72265625","-70.3125","-14.5","8.0625"
"1537529923229","443","-0.86328125","-0.15429688","-0.234375","57.625","16.8125","48.25"
"1537529923430","444","-0.59765625","0.32421875","-0.6484375","75.8125","29.375","92.25"
"1537529923430","445","-0.82714844","0.08984375","-0.6171875","-48.8125","-0.34375","55.0"
"1537529923430","446","-0.8466797","-0.038085938","-0.4736328","-97.59375","-4.3125","32.3125"
"1537529923430","447","-0.84472656","-0.2548828","-0.5205078","-84.59375","0.15625","33.84375"
"1537529923430","448","-0.82421875","-0.19238281","-0.42871094","-80.625","-0.09375","40.90625"
"1537529923626","449","-0.86328125","-0.16601562","-0.375","-24.09375","6.25","45.1875"
"1537529923626","450","-0.8388672","-0.013671875","-0.4794922","11.34375","-1.8125","50.5625"
"1537529923627","451","-0.8808594","-0.10058594","-0.44335938","1.78125","-12.0625","42.5"
"1537529923627","452","-0.82421875","-0.03125","-0.49121094","-14.15625","-2.03125","34.5"
"1537529923825","453","-0.8125","0.21386719","-0.55566406","-35.625","-2.59375","30.65625"
"1537529923826","454","-0.9511719","0.1640625","-0.5917969","-69.09375","0.46875","28.78125"
"1537529923826","455","-1.0078125","-0.0146484375","-0.5332031","-103.15625","-14.3125","22.40625"
"1537529923826","456","-1.0830078","-0.20214844","-0.59472656","-98.4375","-32.9375","27.125"
"1537529923827","457","-1.0478516","-0.4267578","-0.48535156","-52.78125","-27.5625","22.46875"
"1537529923828","458","-0.9433594","-0.3203125","-0.2626953","-11.71875","-56.90625","-30.5"
"1537529924024","459","-0.8691406","0.26660156","-0.31054688","72.28125","-38.65625","-70.0625"
"1537529924024","460","-1.140625","0.4482422","-0.46875","70.375","1.0625","-86.59375"
"1537529924024","461","-1.140625","0.24023438","-0.37304688","34.4375","-11.375","-99.59375"
"1537529924025","462","-1.1845703","0.18457031","-0.38085938","21.90625","5.53125","-117.34375"
"1537529924025","463","-0.9580078","0.20996094","-0.3564453","10.625","8.28125","-100.875"
"1537529924222","464","-0.92089844","-0.0087890625","-0.32226562","63.125","14.5625","-75.53125"
"1537529924222","465","-0.93652344","-0.11425781","-0.41210938","115.4375","28.53125","-52.65625"
"1537529924222","466","-0.8886719","-0.03515625","-0.546875","125.125","31.78125","-22.4375"
"1537529924223","467","-0.6669922","0.15722656","-0.4248047","97.28125","13.34375","-5.09375"
"1537529924224","468","-0.6347656","0.11425781","-0.20507812","78.375","13.8125","10.75"
"1537529924420","469","-0.7675781","-0.09667969","-0.11035156","51.75","18.53125","20.53125"
"1537529924421","470","-0.9042969","-0.234375","-0.18945312","25.8125","9.375","23.875"
"1537529924421","471","-0.9033203","-0.29785156","-0.34472656","19.46875","1.6875","23.75"
"1537529924421","472","-0.93652344","-0.5361328","-0.42578125","7.6875","-4.59375","18.4375"
"1537529924422","473","-0.9863281","-0.71484375","-0.4638672","12.15625","1.125","-0.03125"
"1537529924619","474","-0.8876953","-0.5107422","-0.52441406","65.75","29.375","-8.53125"
"1537529924620","475","-0.7597656","-0.40234375","-0.36035156","60.5625","46.71875","-4.75"
"1537529924620","476","-0.6699219","-0.36914062","-0.3701172","41.625","38.96875","11.5"
"1537529924620","477","-1.375","-0.017578125","-0.66015625","83.5625","76.5625","54.46875"
"1537529924621","478","-1.5332031","-0.59472656","-0.080078125","107.125","-39.71875","19.5625"
"1537529924820","479","-0.9140625","0.40625","-0.5205078","120.90625","-41.59375","4.90625"
"1537529924820","480","-0.3232422","0.8515625","-0.96875","-5.375","85.96875","54.46875"
"1537529924820","481","-0.9716797","-0.14160156","-0.6123047","-125.3125","39.21875","35.125"
"1537529924820","482","-1.1005859","-0.39746094","-0.26367188","-1.53125","-13.21875","49.59375"
"1537529924821","483","-0.92089844","-0.06933594","-0.31835938","48.46875","19.9375","65.625"
"1537529925017","484","-0.88964844","0.060546875","-0.4794922","27.21875","9.0","66.4375"
"1537529925017","485","-0.83203125","-0.0048828125","-0.46289062","-20.625","-0.09375","48.3125"
"1537529925017","486","-0.8173828","-0.13378906","-0.45214844","-43.34375","10.65625","42.5625"
"1537529925019","487","-0.8544922","-0.15136719","-0.4375","-39.71875","0.75","39.8125"
"1537529925019","488","-0.8535156","-0.20507812","-0.40429688","-2.8125","5.59375","41.59375"
"1537529925216","489","-0.8408203","-0.17578125","-0.421875","17.78125","7.0","39.8125"
"1537529925216","490","-0.8779297","-0.10644531","-0.41796875","16.84375","5.21875","35.3125"
"1537529925217","491","-0.88183594","-0.0107421875","-0.45898438","9.53125","0.9375","33.65625"
"1537529925218","492","-0.8535156","0.13867188","-0.52734375","5.5625","-1.375","37.25"
"1537529925218","493","-0.8955078","0.1875","-0.5488281","-10.6875","-1.375","48.78125"
"1537529925416","494","-0.96972656","0.053710938","-0.5917969","-24.53125","5.21875","53.25"
"1537529925416","495","-1.046875","-0.07714844","-0.56933594","-33.125","-14.375","57.09375"
"1537529925417","496","-1.0429688","-0.20898438","-0.54589844","-23.125","-25.96875","57.40625"
"1537529925417","497","-1.0019531","-0.14941406","-0.48828125","-19.65625","-29.21875","41.8125"
"1537529925417","498","-0.94628906","-0.1484375","-0.38964844","-9.625","-29.03125","-13.09375"
"1537529925612","499","-0.7363281","0.01953125","-0.36132812","7.21875","-36.65625","-61.875"
"1537529925613","500","-1.0332031","0.12988281","-0.33691406","59.875","-15.71875","-94.71875"
"1537529925614","501","-1.2890625","0.29296875","-0.44140625","33.5625","0.875","-108.8125"
"1537529925614","502","-1.1757812","0.38378906","-0.32128906","6.65625","22.75","-121.75"
"1537529925614","503","-1.0400391","0.24902344","-0.29101562","5.125","19.0","-111.0625"
"1537529925813","504","-0.95214844","-0.0859375","-0.27246094","56.40625","5.78125","-78.78125"
"1537529925814","505","-0.97753906","-0.23632812","-0.32421875","105.53125","9.75","-63.09375"
"1537529925815","506","-0.84277344","0.0048828125","-0.46679688","116.15625","12.0625","-41.65625"
"1537529925815","507","-0.60058594","0.19921875","-0.35351562","81.0625","4.53125","-27.15625"
"1537529925815","508","-0.6269531","0.030273438","-0.25683594","33.625","11.4375","-17.8125"
"1537529926013","509","-0.7285156","-0.19921875","-0.1875","-7.875","21.9375","-13.78125"
"1537529926013","510","-0.8017578","-0.3408203","-0.21191406","-15.125","21.875","-5.96875"
"1537529926410","511","-0.8222656","-0.39257812","-0.28125","-5.125","4.65625","-5.40625"
"1537529926410","512","-0.88183594","-0.48242188","-0.4013672","20.4375","9.625","-5.59375"
"1537529926410","513","-0.88378906","-0.6015625","-0.4423828","-15.125","33.59375","-8.21875"
"1537529926411","514","-0.93359375","-0.66015625","-0.37304688","2.4375","27.25","-1.9375"
"1537529926412","515","-0.71777344","-0.5361328","-0.49414062","24.84375","36.78125","12.03125"
"1537529926413","516","-1.2285156","-0.28125","-0.4091797","49.6875","44.09375","49.40625"
"1537529926414","517","-1.8232422","-0.75390625","-0.16210938","91.0625","-5.40625","39.21875"
"1537529926414","518","-0.765625","0.359375","-0.41210938","91.375","-59.71875","-6.875"
"1537529926414","519","-0.18847656","1.0419922","-0.703125","-94.53125","73.8125","17.59375"
"1537529926607","520","-1.1328125","-0.23828125","-0.7138672","-120.125","47.8125","37.90625"
"1537529926607","521","-0.8925781","0.115234375","-0.6123047","-69.28125","8.28125","38.96875"
"1537529926608","522","-0.8261719","-0.076171875","-0.4794922","-100.75","9.4375","28.03125"
"1537529926608","523","-0.89453125","-0.13671875","-0.52734375","-79.03125","1.0625","27.78125"
"1537529926608","524","-0.80371094","-0.14355469","-0.51660156","-37.59375","0.9375","34.875"
"1537529926609","525","-0.8154297","-0.109375","-0.49316406","-27.09375","5.71875","26.75"
"1537529926807","526","-0.81347656","-0.032226562","-0.46875","-36.1875","2.53125","14.71875"
"1537529926808","527","-0.8378906","-0.047851562","-0.46289062","-50.84375","1.6875","7.03125"
"1537529926808","528","-0.85058594","-0.05859375","-0.49023438","-53.9375","0.8125","5.28125"
"1537529926808","529","-0.86621094","-0.01171875","-0.5449219","-37.71875","0.59375","15.53125"
"1537529926808","530","-0.8798828","0.038085938","-0.56347656","-31.375","4.53125","27.0"
"1537529927006","531","-0.9433594","0.083984375","-0.5810547","-44.78125","-0.34375","28.09375"
"1537529927006","532","-0.9482422","0.037109375","-0.54785156","-81.46875","-7.21875","32.0625"
"1537529927007","533","-1.0039062","-0.1796875","-0.5917969","-90.28125","-20.53125","34.9375"
"1537529927007","534","-0.9892578","-0.17871094","-0.515625","-64.15625","-21.6875","27.90625"
"1537529927008","535","-0.90527344","-0.20117188","-0.36035156","-38.875","-10.53125","-35.125"
"1537529927204","536","-0.8701172","0.123046875","-0.2939453","-39.84375","-36.09375","-99.46875"
"1537529927205","537","-1.1835938","0.2861328","-0.27539062","-19.03125","-17.0","-147.9375"
"1537529927206","538","-1.3515625","0.36621094","-0.34277344","-72.9375","-3.6875","-157.9375"
"1537529927206","539","-1.1992188","0.3232422","-0.22949219","-86.96875","23.90625","-169.46875"
"1537529927206","540","-1.0927734","0.1328125","-0.1796875","-78.78125","8.625","-154.03125"
"1537529927601","541","-0.9707031","-0.08886719","-0.15625","0.96875","-2.96875","-114.4375"
"1537529927601","542","-0.9863281","-0.15234375","-0.265625","69.59375","1.6875","-88.59375"
"1537529927601","543","-0.9160156","-0.034179688","-0.359375","56.9375","-25.71875","-58.625"
"1537529927601","544","-0.62890625","0.15722656","-0.30859375","20.75","-43.25","-40.09375"
"1537529927602","545","-0.51660156","-0.0703125","-0.35058594","-38.03125","-3.28125","-26.96875"
"1537529927602","546","-0.66015625","-0.35058594","-0.33984375","-64.03125","15.59375","-17.6875"
"1537529927603","547","-0.7314453","-0.56933594","-0.25585938","-65.90625","16.09375","0.09375"
"1537529927604","548","-0.78515625","-0.48828125","-0.1875","-29.21875","-9.90625","14.3125"
"1537529927604","549","-0.9248047","-0.8798828","-0.25976562","26.5","-28.46875","8.0625"
"1537529927802","550","-1.0292969","-1.0078125","-0.38671875","40.40625","-9.0625","-11.34375"
"1537529927802","551","-0.78808594","-0.31445312","-0.33203125","16.0625","20.78125","-16.34375"
"1537529927802","552","-0.96875","0.08691406","-0.12890625","-39.4375","36.28125","0.75"
"1537529927803","553","-1.9921875","-0.6269531","-0.53222656","-21.28125","29.03125","1.53125"
"1537529927803","554","-0.80566406","-0.14355469","-0.19042969","78.5625","-47.15625","0.15625"
"1537529927998","555","-0.4482422","0.8310547","-0.65722656","-60.0","64.46875","17.96875"
"1537529927999","556","-0.95703125","0.083984375","-0.7011719","-91.5","46.40625","48.46875"
"1537529927999","557","-0.9863281","-0.5605469","-0.4345703","-41.4375","-2.34375","45.0"
"1537529927999","558","-0.796875","-0.0048828125","-0.3623047","35.59375","7.71875","52.03125"
"1537529928000","559","-0.7294922","0.11035156","-0.53125","11.96875","20.90625","42.0625"
"1537529928395","560","-0.8378906","0.06738281","-0.6064453","-51.6875","16.75","21.0625"
"1537529928396","561","-0.87109375","-0.028320312","-0.48828125","-103.03125","10.15625","10.15625"
"1537529928397","562","-0.89746094","-0.10644531","-0.52246094","-79.46875","2.03125","6.25"
"1537529928398","563","-0.796875","-0.13964844","-0.56347656","-48.75","4.84375","16.625"
"1537529928400","564","-0.85546875","-0.09667969","-0.5019531","-44.625","3.03125","17.96875"
"1537529928401","565","-0.83691406","0.0078125","-0.5097656","-44.6875","1.125","12.53125"
"1537529928402","566","-0.79003906","-0.049804688","-0.5097656","-61.8125","2.90625","-1.75"
"1537529928402","567","-0.81152344","-0.103515625","-0.48632812","-72.9375","2.78125","-11.34375"
"1537529928402","568","-0.83203125","-0.057617188","-0.4951172","-49.90625","2.09375","-3.8125"
"1537529928595","569","-0.8828125","0.0068359375","-0.56152344","-27.34375","3.21875","8.75"
"1537529928595","570","-0.9609375","0.06738281","-0.56152344","-32.21875","-3.625","17.96875"
"1537529928792","571","-0.96875","0.052734375","-0.5185547","-49.8125","-5.78125","25.53125"
"1537529928994","572","-0.95703125","-0.018554688","-0.5498047","-61.53125","-8.34375","28.875"
"1537529928994","573","-1.0009766","-0.14355469","-0.55859375","-66.46875","-17.25","30.96875"
"1537529928994","574","-0.9609375","-0.051757812","-0.48535156","-59.3125","-5.15625","7.15625"
"1537529928994","575","-1.0263672","-0.18457031","-0.2548828","-85.6875","-17.5","-64.0"
"1537529928994","576","-0.89453125","0.12792969","-0.2763672","-83.1875","-54.90625","-128.03125"
"1537529928997","577","-1.1367188","0.28710938","-0.28808594","-73.96875","-24.375","-152.6875"
"1537529928997","578","-1.1875","0.23828125","-0.3515625","-66.65625","-0.59375","-142.875"
"1537529928997","579","-1.2050781","0.11621094","-0.30078125","-53.9375","14.9375","-154.09375"
"1537529928997","580","-1.078125","0.1015625","-0.19042969","-33.0625","3.8125","-131.09375"
"1537529929191","581","-0.7207031","-0.10253906","-0.29296875","-65.71875","5.84375","-33.5"
"1537529929191","582","-0.7314453","-0.3125","-0.28808594","-54.25","-1.0625","-12.125"
"1537529929192","583","-0.7402344","-0.49121094","-0.32226562","-37.21875","8.4375","5.28125"
"1537529929192","584","-0.75878906","-0.57128906","-0.39648438","-33.0","16.9375","4.59375"
"1537529929192","585","-0.8535156","-0.75","-0.3720703","-40.9375","-0.28125","-7.5625"
"1537529929391","586","-0.95214844","-0.7109375","-0.2705078","5.0","-19.875","-16.59375"
"1537529929391","587","-0.9345703","-0.5078125","-0.3564453","44.3125","-8.9375","-14.8125"
"1537529929392","588","-0.87109375","-0.2890625","-0.25683594","-23.375","7.125","-15.375"
"1537529929393","589","-1.1621094","0.049804688","-0.2998047","-68.90625","32.125","-0.65625"
"1537529929394","590","-1.5742188","-0.30664062","-0.5498047","-66.34375","-3.8125","9.34375"
"1537529929588","591","-0.92578125","-0.41601562","-0.3330078","-2.875","-31.53125","-17.0"
"1537529929588","592","-0.45117188","0.5234375","-0.6660156","-76.03125","15.28125","-10.65625"
"1537529929589","593","-0.82128906","0.28808594","-0.74121094","-116.9375","75.65625","19.96875"
"1537529929589","594","-1.1308594","-0.40039062","-0.42382812","-47.3125","-13.875","36.59375"
"1537529929590","595","-0.8310547","-0.03125","-0.44628906","12.875","-8.46875","37.1875"
"1537529929787","596","-0.65234375","0.22265625","-0.5917969","-13.46875","18.15625","27.53125"
"1537529929787","597","-0.79003906","0.08105469","-0.63183594","-86.90625","13.53125","8.9375"
"1537529929788","598","-0.9248047","-0.051757812","-0.49121094","-130.3125","0.03125","-2.96875"
"1537529929789","599","-0.8466797","-0.15136719","-0.53515625","-93.0","3.375","-3.40625"
"1537529929790","600","-0.78027344","-0.10546875","-0.58691406","-69.03125","5.875","-4.3125"
"1537529929986","601","-0.82714844","-0.07714844","-0.51953125","-58.09375","-1.6875","-1.09375"
"1537529929986","602","-0.86621094","-0.047851562","-0.5332031","-43.28125","-1.25","4.65625"
"1537529929986","603","-0.87597656","-0.034179688","-0.5205078","-58.71875","-4.4375","6.0625"
"1537529929987","604","-0.8261719","-0.07519531","-0.4716797","-53.71875","-6.25","4.46875"
"1537529929987","605","-0.7714844","-0.057617188","-0.5449219","-31.84375","-3.5","0.375"
"1537529930184","606","-0.828125","0.005859375","-0.57128906","-26.65625","-2.59375","0.3125"
"1537529930184","607","-0.8935547","0.11425781","-0.54296875","-43.6875","-2.59375","1.78125"
"1537529930185","608","-0.90625","0.16699219","-0.5751953","-74.34375","-7.28125","10.53125"
"1537529930185","609","-0.94140625","0.056640625","-0.5527344","-97.59375","-13.46875","17.53125"
"1537529930186","610","-0.9609375","-0.08105469","-0.53222656","-109.375","-25.46875","31.9375"
"1537529930385","611","-1.0390625","-0.125","-0.5283203","-67.9375","-22.96875","46.59375"
"1537529930386","612","-1.0595703","-0.09863281","-0.53515625","-26.96875","-1.5625","24.75"
"1537529930387","613","-0.9785156","-0.05859375","-0.37402344","-44.1875","1.9375","-41.53125"
"1537529930387","614","-0.7626953","0.099609375","-0.19140625","-75.0","-25.0625","-127.125"
"1537529930387","615","-1.0439453","0.22363281","-0.24707031","-89.34375","-21.5","-173.625"
"1537529930781","616","-1.3310547","0.26171875","-0.29882812","-96.375","5.78125","-167.15625"
"1537529930781","617","-1.2080078","0.29101562","-0.19921875","-79.28125","34.21875","-163.96875"
"1537529930781","618","-1.1279297","0.0703125","-0.18457031","-47.53125","18.59375","-143.71875"
"1537529930781","619","-1.0048828","-0.099609375","-0.23144531","45.28125","10.46875","-108.5"
"1537529930783","620","-0.97558594","-0.14453125","-0.3232422","86.4375","10.53125","-79.21875"
"1537529930783","621","-0.76953125","0.025390625","-0.40039062","46.34375","-8.34375","-61.03125"
"1537529930783","622","-0.58984375","0.036132812","-0.28222656","0.3125","-15.34375","-49.1875"
"1537529930784","623","-0.57910156","-0.17578125","-0.19238281","-16.40625","-1.375","-23.1875"
"1537529930785","624","-0.50097656","-0.38085938","-0.1875","-21.78125","-0.28125","-5.21875"
"1537529930981","625","-0.6855469","-0.47265625","-0.1875","-40.78125","16.21875","-8.78125"
"1537529930981","626","-0.9482422","-0.5498047","-0.44140625","-58.28125","15.59375","-16.21875"
"1537529930981","627","-0.98339844","-0.7050781","-0.55371094","-18.84375","18.71875","-5.40625"
"1537529930982","628","-0.93066406","-0.89453125","-0.3623047","37.25","0.8125","15.28125"
"1537529930983","629","-0.6357422","-0.6113281","-0.45214844","34.25","22.1875","17.28125"
"1537529930983","630","-0.7519531","0.056640625","-0.19628906","59.40625","41.40625","56.15625"
"1537529931179","631","-1.9921875","-0.69628906","-0.76171875","95.84375","63.9375","27.90625"
"1537529931179","632","-0.7714844","0.3779297","-0.31152344","65.125","-54.96875","-27.8125"
"1537529931179","633","-0.20507812","1.5078125","-0.7763672","-97.03125","81.9375","14.71875"
"1537529931179","634","-1.2070312","-0.30273438","-0.81152344","-126.53125","40.1875","54.78125"
"1537529931180","635","-1.0107422","-0.6455078","-0.2919922","-41.5625","-61.5","33.21875"
"1537529931378","636","-0.71484375","0.22753906","-0.40722656","4.9375","10.53125","55.4375"
"1537529931379","637","-0.7392578","0.08886719","-0.6269531","-29.34375","13.8125","46.96875"
"1537529931381","638","-0.83203125","-0.087890625","-0.54003906","-104.65625","-14.9375","30.28125"
"1537529931575","639","-0.859375","-0.22753906","-0.4482422","-99.46875","-4.84375","25.15625"
"1537529931576","640","-0.8027344","-0.23535156","-0.4921875","-63.15625","-17.125","23.40625"
"1537529931576","641","-0.7314453","-0.18261719","-0.4873047","-24.03125","-3.8125","23.875"
"1537529931576","642","-0.83984375","-0.09765625","-0.4658203","-34.1875","4.25","15.34375"
"1537529931577","643","-0.93066406","0.02734375","-0.4873047","-32.28125","-10.34375","27.3125"
"1537529931579","644","-0.8701172","0.07324219","-0.45410156","-32.71875","-12.125","41.71875"
"1537529931579","645","-0.90234375","0.11816406","-0.5253906","-28.5625","-7.0","53.5"
"1537529931975","646","-0.9160156","0.06738281","-0.5253906","-28.625","-12.375","55.0625"
"1537529931975","647","-0.94628906","0.06738281","-0.5205078","-41.1875","-18.90625","48.0"
"1537529931976","648","-0.9785156","0.016601562","-0.5371094","-80.25","-25.0625","39.03125"
"1537529931976","649","-1.1572266","-0.22558594","-0.61328125","-93.625","-37.1875","26.9375"
"1537529931978","650","-0.9121094","-0.18945312","-0.3671875","-95.875","-12.25","-37.59375"
"1537529931978","651","-0.8310547","0.0","-0.31347656","-75.625","-43.5625","-108.6875"
"1537529931979","652","-1.1816406","0.24902344","-0.14648438","35.09375","-11.25","-108.5"
"1537529931979","653","-1.3037109","0.37890625","-0.30566406","28.25","25.90625","-119.0"
"1537529931979","654","-1.2060547","0.296875","-0.3017578","3.90625","24.8125","-135.90625"
"1537529932371","655","-0.96972656","0.0859375","-0.109375","30.40625","13.40625","-100.09375"
"1537529932371","656","-0.89746094","-0.11035156","-0.22363281","81.5625","10.28125","-79.625"
"1537529932372","657","-0.80566406","-0.05859375","-0.39648438","79.15625","25.25","-60.09375"
"1537529932372","658","-0.6503906","0.09082031","-0.38378906","41.25","20.53125","-45.9375"
"1537529932372","659","-0.63671875","0.07324219","-0.3388672","13.90625","19.625","-27.15625"
"1537529932374","660","-0.7480469","-0.21972656","-0.28027344","2.1875","26.59375","-10.90625"
"1537529932374","661","-0.8066406","-0.40722656","-0.21972656","-3.40625","26.34375","0.3125"
"1537529932374","662","-0.7705078","-0.4169922","-0.26464844","2.09375","16.09375","5.375"
"1537529932376","663","-0.8339844","-0.5830078","-0.37109375","2.15625","5.46875","7.09375"
"1537529932569","664","-0.9316406","-0.9716797","-0.4345703","-14.21875","6.3125","-1.09375"
"1537529932570","665","-0.79003906","-0.7607422","-0.58691406","36.75","25.40625","-4.0"
"1537529932570","666","-0.54003906","-0.41308594","-0.43652344","93.4375","31.40625","28.03125"
"1537529932570","667","-1.15625","0.15527344","-0.47265625","105.40625","25.375","74.125"
"1537529932571","668","-1.8789062","-0.8388672","-0.36621094","107.84375","-14.9375","28.46875"
"1537529932571","669","-0.70214844","0.55566406","-0.40625","49.25","-63.25","-10.1875"
"1537529932768","670","-0.32910156","1.1552734","-0.77246094","-58.15625","89.9375","69.0"
"1537529932769","671","-1.2099609","-0.64941406","-0.7832031","-70.6875","6.25","71.0"
"1537529932769","672","-0.7841797","-0.43359375","-0.30078125","15.4375","-28.65625","50.8125"
"1537529932769","673","-0.85546875","0.25390625","-0.4404297","60.0625","21.03125","67.40625"
"1537529932968","674","-0.8417969","0.09667969","-0.50390625","-19.59375","-0.40625","56.78125"
"1537529932969","675","-0.8466797","-0.12402344","-0.4658203","-75.125","-5.59375","42.0"
"1537529932969","676","-0.86816406","-0.234375","-0.42089844","-76.03125","1.0","32.3125"
"1537529932969","677","-0.84472656","-0.13671875","-0.44726562","-34.25","-4.375","38.53125"
"1537529932969","678","-0.78808594","-0.17871094","-0.4267578","9.34375","-1.125","48.84375"
"1537529933166","679","-0.7529297","-0.091796875","-0.44628906","24.84375","6.5625","52.3125"
"1537529933166","680","-1.0732422","-0.048828125","-0.41992188","30.15625","4.25","45.71875"
"1537529933166","681","-0.79785156","0.2529297","-0.4609375","-1.9375","-3.4375","46.03125"
"1537529933167","682","-0.83496094","0.35253906","-0.5390625","-21.96875","5.46875","49.21875"
"1537529933167","683","-0.9951172","0.047851562","-0.4873047","-64.8125","-15.71875","44.6875"
"1537529933364","684","-1.03125","-0.08886719","-0.54785156","-68.0625","-21.09375","42.75"
"1537529933365","685","-1.0537109","-0.1640625","-0.48046875","-40.59375","-33.0625","57.875"
"1537529933366","686","-1.0048828","-0.35839844","-0.6357422","-18.375","-12.59375","32.4375"
"1537529933367","687","-0.9404297","-0.2861328","-0.48632812","-0.65625","-26.46875","-10.34375"
"1537529933368","688","-1.0","-0.10546875","-0.26464844","11.40625","-48.1875","-57.78125"
"1537529933563","689","-0.9921875","0.24609375","-0.2919922","61.46875","-30.375","-88.96875"
"1537529933563","690","-1.2294922","0.51953125","-0.47558594","65.9375","-22.5625","-99.90625"
"1537529933563","691","-1.0693359","0.22460938","-0.34277344","30.15625","-1.5","-109.21875"
"1537529933564","692","-1.1074219","0.1328125","-0.39648438","25.59375","25.0","-119.96875"
"1537529933762","693","-0.89160156","0.08984375","-0.359375","58.71875","17.0625","-80.375"
"1537529933762","694","-0.8095703","-0.13574219","-0.34765625","93.9375","33.40625","-61.75"
"1537529933762","695","-0.8730469","-0.036132812","-0.40820312","118.09375","53.8125","-41.0"
"1537529933763","696","-0.73046875","0.08691406","-0.35253906","103.09375","19.375","-4.4375"
"1537529933764","697","-0.7089844","0.016601562","-0.29492188","79.15625","4.25","13.6875"
"1537529933764","698","-0.7314453","-0.16894531","-0.17871094","49.875","17.59375","9.25"
"1537529933960","699","-0.7246094","-0.27148438","-0.16210938","18.5","34.03125","-0.59375"
"1537529934159","700","-0.77734375","-0.30566406","-0.24804688","-3.40625","25.96875","-12.1875"
"1537529934160","701","-0.90527344","-0.5332031","-0.39160156","0.6875","-3.15625","-14.9375"
"1537529934160","702","-0.84277344","-0.8701172","-0.5888672","-9.625","16.5625","-18.0625"
"1537529934160","703","-0.9042969","-0.5576172","-0.53125","11.96875","38.78125","-13.65625"
"1537529934161","704","-0.69628906","-0.45410156","-0.45117188","96.3125","38.78125","23.625"
"1537529934162","705","-0.5527344","0.15917969","0.0107421875","94.625","11.5625","50.25"
"1537529934162","706","-1.9921875","-0.62109375","-0.78222656","75.9375","58.9375","40.0"
"1537529934163","707","-0.98828125","-0.0859375","-0.083984375","90.71875","-31.15625","-19.75"
"1537529934163","708","-0.36621094","1.359375","-0.92871094","-59.875","69.65625","16.5"
"1537529934359","709","-0.88964844","-0.123046875","-0.70996094","-119.125","24.5625","78.75"
"1537529934360","710","-1.0146484","-1.046875","-0.39941406","-9.28125","-17.78125","53.0"
"1537529934360","711","-0.8251953","0.13574219","-0.3466797","89.90625","22.5625","72.34375"
"1537529934360","712","-0.69921875","0.3310547","-0.53515625","49.5","19.9375","79.90625"
"1537529934361","713","-0.9033203","0.034179688","-0.4814453","-55.84375","1.3125","56.125"
"1537529934559","714","-0.89453125","-0.18066406","-0.39648438","-99.1875","10.59375","34.4375"
"1537529934560","715","-0.8535156","-0.1484375","-0.46484375","-71.09375","2.90625","35.84375"
"1537529934560","716","-0.76171875","-0.22460938","-0.42382812","-17.6875","-4.25","43.21875"
"1537529934560","717","-0.71191406","-0.22558594","-0.3857422","0.5","6.6875","38.84375"
"1537529934560","718","-0.890625","-0.046875","-0.42578125","14.71875","7.84375","19.3125"
"1537529934756","719","-0.9326172","0.17773438","-0.47070312","4.40625","-5.09375","22.46875"
"1537529934756","720","-0.9033203","0.3046875","-0.56640625","-33.8125","2.71875","39.3125"
"1537529934757","721","-0.94628906","0.020507812","-0.6376953","-62.96875","-0.40625","43.59375"
"1537529934757","722","-0.98828125","-0.09667969","-0.5673828","-57.84375","-8.15625","47.0625"
"1537529934757","723","-1.0869141","-0.14160156","-0.5839844","-50.03125","-27.9375","54.875"
"1537529934956","724","-1.2421875","-0.4033203","-0.64941406","-78.5","-41.90625","53.3125"
"1537529934956","725","-0.9033203","-0.37890625","-0.43359375","-55.71875","-29.9375","-10.53125"
"1537529934956","726","-0.66015625","0.0625","-0.3515625","0.625","-50.5","-73.84375"
"1537529934957","727","-1.1025391","0.24707031","-0.25585938","64.46875","-9.375","-118.8125"
"1537529934957","728","-1.3789062","0.29492188","-0.37109375","54.9375","11.0625","-118.21875"
"1537529935153","729","-1.2333984","0.27441406","-0.32128906","14.65625","24.25","-132.5625"
"1537529935153","730","-1.0849609","0.27148438","-0.26464844","3.96875","21.75","-125.03125"
"1537529935153","731","-0.8720703","0.06347656","-0.25390625","58.0","1.1875","-89.46875"
"1537529935154","732","-0.87890625","-0.19335938","-0.41308594","99.90625","20.53125","-63.34375"
"1537529935155","733","-0.7890625","0.0234375","-0.40527344","94.65625","35.96875","-36.53125"
"1537529935355","734","-0.5703125","0.16699219","-0.3466797","75.875","20.125","-4.5"
"1537529935356","735","-0.50683594","0.06640625","-0.23144531","47.5625","6.5625","12.78125"
"1537529935356","736","-0.6933594","-0.2265625","-0.13964844","17.71875","15.53125","11.90625"
"1537529935356","737","-0.86328125","-0.47460938","-0.22070312","-6.90625","22.5","2.8125"
"1537529935356","738","-0.84472656","-0.4736328","-0.4296875","4.40625","39.65625","-4.375"
"1537529935749","739","-0.9589844","-0.671875","-0.49023438","-24.71875","26.40625","-4.5625"
"1537529935749","740","-0.97265625","-0.84472656","-0.55371094","16.0625","10.71875","-8.03125"
"1537529935750","741","-0.6279297","-0.4345703","-0.6484375","56.46875","45.3125","4.0"
"1537529935750","742","-1.3164062","-0.12402344","-0.32617188","81.84375","59.65625","50.0"
"1537529935751","743","-1.8769531","-1.0566406","-0.115234375","144.34375","-59.90625","25.71875"
"1537529935751","744","-0.52246094","0.55566406","-0.5175781","66.78125","-56.96875","-28.3125"
"1537529935753","745","-0.28710938","1.3730469","-0.9316406","-75.8125","108.71875","32.84375"
"1537529935753","746","-1.4824219","-0.58203125","-0.96777344","-120.40625","16.5625","66.84375"
"1537529935754","747","-0.8515625","-0.578125","-0.24121094","-31.96875","-39.40625","51.40625"
"1537529935950","748","-0.70214844","0.07421875","-0.4658203","79.84375","20.21875","88.46875"
"1537529935950","749","-0.79003906","0.08691406","-0.6123047","49.0625","24.875","92.125"
"1537529935951","750","-0.8642578","0.016601562","-0.47070312","-52.78125","8.40625","64.59375"
"1537529935951","751","-0.8251953","-0.09375","-0.390625","-77.875","5.65625","46.65625"
"1537529935952","752","-0.8203125","-0.06738281","-0.47070312","-55.96875","5.28125","41.9375"
"1537529935952","753","-0.7949219","-0.12207031","-0.45117188","-44.3125","3.625","33.84375"
"1537529936147","754","-0.8046875","-0.04296875","-0.48339844","-34.25","0.8125","28.875"
"1537529936147","755","-0.9003906","0.060546875","-0.49609375","-22.8125","1.5625","37.6875"
"1537529936147","756","-0.9082031","0.095703125","-0.49902344","-35.875","-1.96875","43.71875"
"1537529936149","757","-0.9736328","0.08496094","-0.58691406","-43.875","-0.9375","46.96875"
"1537529936149","758","-0.921875","0.047851562","-0.58496094","-48.15625","-10.03125","55.8125"
"1537529936347","759","-0.99609375","-0.12011719","-0.5654297","-69.34375","-24.8125","56.15625"
"1537529936347","760","-1.0410156","-0.20019531","-0.6376953","-62.375","-33.90625","58.1875"
"1537529936348","761","-1.0166016","-0.13378906","-0.5517578","-51.21875","-24.8125","15.34375"
"1537529936348","762","-0.7734375","-0.0029296875","-0.3095703","-66.53125","-34.53125","-68.09375"
"1537529936348","763","-0.7988281","0.37109375","-0.20605469","-16.96875","-29.09375","-121.4375"
"1537529936546","764","-1.3291016","0.31347656","-0.22167969","7.03125","11.125","-153.125"
"1537529936546","765","-1.3867188","0.18847656","-0.33007812","-18.78125","35.25","-161.53125"
"1537529936546","766","-1.2841797","0.28125","-0.203125","-33.625","48.5625","-170.875"
"1537529936547","767","-1.0527344","0.30273438","-0.10546875","-6.9375","24.25","-136.15625"
"1537529936547","768","-0.9033203","-0.14355469","-0.19042969","65.9375","18.46875","-100.9375"
"1537529936745","769","-0.9169922","-0.1484375","-0.24023438","93.4375","26.8125","-70.59375"
"1537529936745","770","-0.6621094","0.095703125","-0.32714844","85.03125","0.40625","-30.3125"
"1537529936745","771","-0.45117188","0.22460938","-0.3955078","32.0","-12.96875","-9.25"
"1537529936746","772","-0.4892578","-0.06640625","-0.3310547","-43.75","10.90625","-8.53125"
"1537529936746","773","-0.7470703","-0.58203125","-0.2890625","-76.71875","10.21875","-17.5"
"1537529936943","774","-0.87109375","-0.7890625","-0.17675781","-20.0","1.75","-9.5625"
"1537529936944","775","-0.99902344","-0.8623047","-0.34472656","59.75","1.75","-4.3125"
"1537529936944","776","-1.0849609","-1.0","-0.3359375","34.125","-14.3125","-14.75"
"1537529936944","777","-0.76464844","-0.32617188","-0.49121094","22.46875","9.90625","-15.125"
"1537529936944","778","-0.5371094","0.2109375","-0.20898438","24.46875","38.59375","24.6875"
"1537529937140","779","-1.9921875","-0.5986328","-0.4638672","7.15625","48.6875","53.0625"
"1537529937141","780","-0.87597656","-0.49023438","-0.01953125","75.8125","-29.625","-4.5"
"1537529937141","781","-0.40722656","0.96972656","-0.7871094","-37.90625","29.5625","14.90625"
"1537529937141","782","-0.69921875","0.28125","-0.5839844","-116.3125","36.46875","46.59375"
"1537529937142","783","-1.2294922","-0.87402344","-0.6171875","-37.65625","18.34375","36.21875"
"1537529937339","784","-0.7607422","-0.020507812","-0.3984375","9.59375","8.15625","46.59375"
"1537529937340","785","-0.71972656","0.18554688","-0.50097656","5.1875","19.0","56.0625"
"1537529937340","786","-0.91015625","0.026367188","-0.58691406","-38.8125","4.4375","47.875"
"1537529937341","787","-0.8300781","-0.09277344","-0.4482422","-82.8125","9.4375","37.96875"
"1537529937342","788","-0.8232422","-0.07714844","-0.4970703","-80.4375","7.40625","27.84375"
"1537529937538","789","-0.8671875","-0.16015625","-0.46972656","-53.59375","-1.3125","28.46875"
"1537529937737","790","-0.8300781","-0.1875","-0.42382812","-42.78125","4.78125","26.5"
"1537529937938","791","-0.8017578","-0.076171875","-0.45117188","-37.78125","2.28125","17.59375"
"1537529937938","792","-0.79296875","-0.017578125","-0.46972656","-29.0625","2.46875","18.625"
"1537529937939","793","-0.8300781","0.005859375","-0.50878906","-28.375","1.5","25.28125"
"1537529937940","794","-0.9140625","0.028320312","-0.53808594","-28.8125","2.34375","38.03125"
"1537529938134","795","-0.8779297","0.07714844","-0.5517578","-28.75","5.15625","46.78125"
"1537529938135","796","-0.9453125","-0.001953125","-0.55371094","-35.09375","-1.4375","48.65625"
"1537529938135","797","-0.9453125","-0.08496094","-0.5644531","-56.4375","-10.40625","43.71875"
"1537529938135","798","-1.2099609","-0.20507812","-0.5830078","-50.71875","-21.40625","37.90625"
"1537529938136","799","-1.1357422","-0.10644531","-0.45410156","-43.09375","-18.90625","1.3125"
"1537529938137","800","-1.1279297","0.2626953","-0.33789062","-24.09375","2.78125","-134.1875"
"1537529938137","801","-1.1464844","0.23632812","-0.31835938","-29.34375","-9.375","-133.84375"
"1537529938138","802","-0.9394531","0.17480469","-0.18652344","18.75","-3.9375","-119.65625"
"1537529938138","803","-0.92871094","-0.049804688","-0.3701172","66.65625","29.5625","-113.9375"
"1537529938334","804","-0.8330078","0.064453125","-0.40722656","23.4375","25.0","-92.6875"
"1537529938533","805","-0.66308594","0.12988281","-0.3251953","0.3125","10.46875","-69.5"
"1537529938533","806","-0.5986328","0.005859375","-0.2265625","-1.875","2.21875","-33.1875"
"1537529938536","807","-0.5996094","-0.28808594","-0.19433594","-21.40625","8.5","-9.8125"
"1537529938536","808","-0.7216797","-0.5703125","-0.2626953","-25.1875","14.0625","1.25"
"1537529938536","809","-0.75097656","-0.64746094","-0.4111328","7.09375","9.25","6.84375"
"1537529938536","810","-0.8779297","-0.62109375","-0.3701172","45.34375","-2.71875","7.15625"
"1537529938537","811","-1.1894531","-0.8310547","-0.3466797","54.875","-19.5625","7.96875"
"1537529938537","812","-0.8691406","-0.58203125","-0.5917969","50.0","7.34375","3.0625"
"1537529938537","813","-0.55566406","0.0107421875","-0.20996094","53.65625","43.65625","23.8125"
"1537529938731","814","-1.9921875","-0.13867188","-0.24804688","50.125","60.28125","66.25"
"1537529938731","815","-1.0976562","-0.7519531","-0.28027344","37.0625","-18.84375","-6.8125"
"1537529938929","816","-0.49609375","0.7080078","-0.58496094","-51.6875","-2.03125","1.84375"
"1537529938930","817","-0.5830078","0.5048828","-0.67089844","-75.8125","55.6875","60.875"
"1537529938931","818","-1.1367188","-0.64453125","-0.6816406","-25.875","20.34375","75.65625"
"1537529938931","819","-0.8076172","-0.07910156","-0.35742188","46.5","-6.75","76.875"
"1537529938931","820","-0.7998047","0.23828125","-0.4404297","34.96875","20.28125","72.03125"
"1537529939327","821","-0.82128906","0.06347656","-0.53808594","-24.78125","0.53125","58.375"
"1537529939327","822","-0.8095703","-0.095703125","-0.48242188","-80.625","6.75","32.5"
"1537529939329","823","-0.8496094","-0.12402344","-0.46191406","-81.125","5.21875","20.09375"
"1537529939329","824","-0.8466797","-0.17089844","-0.45410156","-41.875","-1.3125","25.03125"
"1537529939329","825","-0.7949219","-0.10546875","-0.4658203","-17.15625","4.25","29.1875"
"1537529939330","826","-0.8730469","0.0","-0.49414062","-12.1875","6.875","28.875"
"1537529939330","827","-0.875","0.044921875","-0.4609375","-27.15625","1.0625","33.78125"
"1537529939331","828","-0.8125","0.005859375","-0.39746094","-34.25","-2.09375","32.78125"
"1537529939332","829","-0.8857422","0.00390625","-0.5332031","-15.3125","-1.96875","32.25"
"1537529939526","830","-0.9248047","0.044921875","-0.5644531","-24.21875","-2.53125","35.1875"
"1537529939526","831","-0.9433594","0.3125","-0.51953125","-20.375","-35.125","-68.53125"
"1537529939526","832","-0.96875","0.3623047","-0.3984375","36.6875","-22.375","-70.125"
"1537529939526","833","-1.0546875","0.05078125","-0.2890625","32.0","-16.9375","-86.71875"
"1537529939527","834","-1.1425781","0.08203125","-0.3642578","37.125","3.625","-95.25"
"1537529939528","835","-0.99609375","0.20996094","-0.36035156","42.3125","-2.84375","-80.65625"
"1537529939724","836","-0.89160156","0.041992188","-0.40625","103.21875","20.0625","-69.8125"
"1537529939725","837","-0.9140625","-0.103515625","-0.49121094","116.40625","28.34375","-63.53125"
"1537529939726","838","-0.80566406","0.076171875","-0.49414062","88.1875","23.34375","-48.75"
"1537529939727","839","-0.70703125","0.17675781","-0.375","85.40625","12.0","-27.03125"
"1537529939727","840","-0.69628906","0.018554688","-0.15332031","74.78125","14.5","-18.78125"
"1537529940122","841","-0.70410156","-0.14941406","-0.14160156","27.90625","17.65625","-12.125"
"1537529940122","842","-0.70410156","-0.265625","-0.17773438","2.5","2.21875","-16.78125"
"1537529940122","843","-0.6669922","-0.35351562","-0.34472656","6.78125","5.15625","-29.78125"
"1537529940123","844","-0.76953125","-0.43945312","-0.52246094","-31.4375","51.25","-41.90625"
"1537529940124","845","-0.9638672","-0.5859375","-0.4326172","-65.71875","44.09375","-31.46875"
"1537529940125","846","-0.9716797","-0.7890625","-0.6035156","-18.90625","17.375","-10.125"
"1537529940125","847","-0.8388672","-0.3359375","-0.484375","29.90625","38.0","23.625"
"1537529940125","848","-1.9921875","-0.58691406","-0.30078125","79.90625","35.375","75.75"
"1537529940126","849","-1.0839844","-0.12207031","-0.11816406","131.96875","-72.1875","-10.34375"
"1537529940321","850","-0.1796875","1.1425781","-0.93847656","-65.78125","52.65625","7.28125"
"1537529940322","851","-0.6425781","0.080078125","-0.6611328","-143.0625","54.34375","46.59375"
"1537529940323","852","-1.3242188","-0.93066406","-0.49609375","-58.03125","9.4375","41.34375"
"1537529940323","853","-0.8828125","-0.07519531","-0.2734375","46.8125","14.25","45.5625"
"1537529940323","854","-0.69140625","0.32128906","-0.5966797","47.78125","28.09375","60.6875"
"1537529940324","855","-0.796875","0.140625","-0.6689453","-53.46875","5.21875","42.375"
"1537529940520","856","-0.8222656","-0.08691406","-0.54296875","-115.78125","14.0625","20.46875"
"1537529940520","857","-0.87597656","-0.12890625","-0.5371094","-115.90625","6.4375","17.21875"
"1537529940520","858","-0.87109375","-0.19335938","-0.48632812","-46.125","-4.59375","30.53125"
"1537529940521","859","-0.7841797","-0.119140625","-0.49902344","-49.3125","9.1875","22.96875"
"1537529940521","860","-0.7734375","-0.036132812","-0.45214844","-46.4375","0.09375","10.40625"
"1537529940717","861","-0.83984375","-0.0126953125","-0.46972656","-57.1875","0.21875","-2.71875"
"1537529940718","862","-0.82910156","-0.0068359375","-0.50097656","-73.84375","-2.28125","-7.0"
"1537529940718","863","-0.8457031","0.06738281","-0.55859375","-63.84375","-1.875","5.21875"
"1537529940719","864","-0.8847656","0.07910156","-0.58203125","-56.8125","-1.625","17.09375"
"1537529940720","865","-0.95996094","0.10449219","-0.56640625","-70.125","-8.09375","21.8125"
"1537529940917","866","-1.0058594","0.0","-0.49609375","-104.25","-22.75","25.46875"
"1537529940917","867","-0.9404297","-0.11230469","-0.55078125","-115.84375","-41.90625","25.28125"
"1537529940919","868","-0.9394531","-0.103515625","-0.5722656","-123.71875","-22.625","0.8125"
"1537529940919","869","-0.7988281","-0.17089844","-0.4013672","-116.375","-6.75","-74.03125"
"1537529940919","870","-0.98046875","0.19726562","-0.0625","-70.96875","-19.375","-135.125"
"1537529941118","871","-1.2714844","0.5595703","-0.19140625","-41.1875","13.8125","-153.78125"
"1537529941118","872","-1.3632812","0.34375","-0.27441406","-49.90625","30.125","-156.34375"
"1537529941118","873","-1.2773438","0.21191406","-0.21386719","-69.9375","34.15625","-165.75"
"1537529941118","874","-1.1240234","0.15625","-0.078125","-82.9375","25.90625","-148.65625"
"1537529941118","875","-0.9042969","0.020507812","-0.111328125","-10.8125","19.6875","-112.46875"
"1537529941315","876","-0.9501953","-0.05859375","-0.2265625","51.75","11.9375","-78.84375"
"1537529941316","877","-0.86328125","-0.0146484375","-0.35546875","22.84375","-33.21875","-50.21875"
"1537529941316","878","-0.6582031","0.07324219","-0.4013672","-39.4375","-45.3125","-37.34375"
"1537529941317","879","-0.66015625","-0.12011719","-0.44726562","-66.78125","-1.375","-24.46875"
"1537529941317","880","-0.6855469","-0.421875","-0.42285156","-87.65625","14.3125","-23.0"
"1537529941513","881","-0.65527344","-0.5625","-0.35351562","-70.75","11.8125","-19.4375"
"1537529941513","882","-0.7470703","-0.5234375","-0.37890625","-34.65625","1.96875","-15.1875"
"1537529941513","883","-0.8300781","-0.66503906","-0.37695312","-19.40625","0.03125","-19.875"
"1537529941514","884","-0.92285156","-0.6455078","-0.2841797","-10.0625","-9.4375","-31.84375"
"1537529941515","885","-0.89160156","-0.3779297","-0.328125","-3.71875","-4.71875","-31.15625"
"1537529941711","886","-0.87597656","-0.34179688","-0.3408203","-21.0","13.40625","-18.71875"
"1537529941911","887","-0.8310547","-0.2919922","-0.37890625","-57.90625","10.96875","-3.9375"
"1537529941911","888","-1.0283203","-0.24902344","-0.5761719","-58.53125","12.0625","28.9375"
"1537529941913","889","-1.9052734","-0.8300781","-0.765625","29.0625","45.125","31.5625"
"1537529941914","890","-0.72558594","0.2919922","-0.14746094","73.25","-54.59375","-34.71875"
"1537529941914","891","-0.23242188","0.9980469","-1.0742188","-86.1875","64.65625","10.15625"
"1537529941914","892","-1.0117188","0.053710938","-0.6035156","-180.65625","13.40625","25.53125"
"1537529941914","893","-1.0927734","-0.6328125","-0.328125","-48.875","-40.75","20.65625"
"1537529941914","894","-0.7734375","0.12988281","-0.47851562","3.1875","21.9375","26.375"
"1537529941915","895","-0.7060547","0.3154297","-0.6464844","-13.0625","4.53125","24.3125"
"1537529942110","896","-0.8232422","0.11035156","-0.63183594","-120.46875","-1.0625","1.3125"
"1537529942308","897","-0.7988281","-0.02734375","-0.61328125","-164.65625","4.96875","-16.34375"
"1537529942509","898","-0.7919922","-0.123046875","-0.66503906","-134.34375","-0.875","-19.9375"
"1537529942509","899","-0.8095703","-0.20117188","-0.57714844","-117.0625","-4.84375","-24.15625"
"1537529942509","900","-0.81152344","-0.2265625","-0.51660156","-86.96875","-6.3125","-18.65625"
"1537529942510","901","-0.8486328","-0.09667969","-0.5253906","-63.09375","-5.21875","-3.875"
"1537529942511","902","-0.8232422","-0.0625","-0.46875","-59.5","-5.65625","3.5"
"1537529942511","903","-0.82714844","-0.09277344","-0.4765625","-47.78125","-6.375","0.75"
"1537529942512","904","-0.87402344","0.024414062","-0.5361328","-22.34375","-6.875","7.09375"
"1537529942512","905","-0.91015625","0.19921875","-0.5263672","-33.25","-2.28125","16.375"
"1537529942512","906","-0.9785156","0.16699219","-0.53222656","-63.03125","-11.4375","16.25"
"1537529942706","907","-0.7421875","0.033203125","-0.30859375","-84.71875","-18.40625","-139.9375"
"1537529942706","908","-1.1962891","0.2529297","-0.2109375","-48.59375","2.40625","-167.34375"
"1537529942706","909","-1.4228516","0.35351562","-0.33398438","-73.40625","27.25","-158.625"
"1537529942706","910","-1.2109375","0.24023438","-0.21191406","-63.65625","36.90625","-165.21875"
"1537529942907","911","-1.1113281","0.03125","-0.16503906","-50.09375","7.28125","-137.3125"
"1537529942908","912","-0.9863281","-0.10058594","-0.1328125","49.875","4.53125","-99.15625"
"1537529942909","913","-0.9501953","-0.072265625","-0.20996094","124.40625","7.0","-66.375"
"1537529942909","914","-0.7363281","0.06738281","-0.40820312","88.09375","-9.5625","-52.28125"
"1537529942909","915","-0.515625","0.20214844","-0.36914062","0.125","-6.1875","-52.96875"
"1537529942909","916","-0.49121094","-0.009765625","-0.23144531","-57.6875","19.8125","-40.25"
"1537529943104","917","-0.59765625","-0.4404297","-0.22265625","-61.34375","21.40625","-14.1875"
"1537529943105","918","-0.7480469","-0.82910156","-0.12011719","-34.71875","15.21875","14.78125"
"1537529943105","919","-0.85058594","-0.80859375","-0.3779297","17.34375","2.90625","18.28125"
"1537529943105","920","-1.2041016","-0.85546875","-0.57421875","30.8125","2.71875","5.375"
"1537529943302","921","-0.9765625","-0.74316406","-0.4169922","48.03125","-5.53125","-7.78125"
"1537529943302","922","-0.48632812","-0.087890625","-0.328125","-23.0625","25.46875","-8.09375"
"1537529943303","923","-1.3837891","0.32226562","-0.35546875","43.78125","75.40625","60.3125"
"1537529943303","924","-1.8134766","-1.2226562","-0.42285156","43.9375","-39.28125","13.75"
"1537529943304","925","-0.7109375","0.5019531","-0.43652344","19.21875","-47.5625","-23.78125"
"1537529943502","926","-0.17285156","1.1884766","-0.7207031","-48.875","79.0625","37.5"
"1537529943502","927","-1.1054688","-0.4580078","-0.83496094","-82.21875","26.15625","71.1875"
"1537529943502","928","-0.9404297","-0.47070312","-0.31445312","-7.1875","-58.4375","52.21875"
"1537529943502","929","-0.7841797","0.18066406","-0.41992188","50.65625","21.03125","62.9375"
"1537529943503","930","-0.8154297","0.23339844","-0.58496094","0.90625","10.53125","60.5"
"1537529943898","931","-0.88183594","-0.04296875","-0.5332031","-82.5","-7.21875","46.09375"
"1537529943901","932","-0.82910156","-0.15039062","-0.46484375","-115.34375","3.3125","27.0"
"1537529943901","933","-0.7871094","-0.11035156","-0.47265625","-81.53125","-2.09375","24.4375"
"1537529943902","934","-0.76171875","-0.28027344","-0.42578125","-39.96875","-3.5","20.71875"
"1537529943902","935","-0.8027344","-0.2578125","-0.4482422","-26.71875","-4.59375","8.0625"
"1537529943902","936","-0.8730469","-0.016601562","-0.44921875","-19.71875","-8.03125","11.8125"
"1537529943903","937","-0.8798828","0.11230469","-0.54589844","-28.6875","-2.65625","29.875"
"1537529943903","938","-0.9267578","0.16796875","-0.6279297","-34.0625","4.1875","54.875"
"1537529943904","939","-1.0009766","-0.049804688","-0.53222656","-28.0","-8.6875","66.4375"
"1537529944097","940","-1.03125","-0.020507812","-0.49121094","-55.96875","-21.875","52.375"
"1537529944097","941","-1.0029297","-0.28808594","-0.59375","-75.1875","-32.875","23.21875"
"1537529944296","942","-0.8310547","-0.296875","-0.33789062","-52.125","-46.40625","-35.625"
"1537529944296","943","-0.88378906","0.059570312","-0.37597656","32.53125","-26.65625","-88.1875"
"1537529944296","944","-1.265625","0.29492188","-0.34375","41.75","-3.15625","-129.125"
"1537529944296","945","-1.3300781","0.35742188","-0.40429688","5.375","12.65625","-142.8125"
"1537529944298","946","-1.2617188","0.2626953","-0.3935547","-6.9375","35.375","-150.0"
"1537529944299","947","-1.0478516","0.030273438","-0.32128906","-4.15625","4.71875","-121.75"
"1537529944299","948","-0.92871094","-0.16308594","-0.234375","73.5625","11.0625","-94.21875"
"1537529944300","949","-0.8496094","-0.0859375","-0.27929688","120.625","22.5625","-73.21875"
"1537529944496","950","-0.6142578","0.06542969","-0.37304688","118.90625","14.0625","-46.90625"
"1537529944497","951","-0.47851562","0.18359375","-0.30859375","67.5","6.625","-30.0625"
"1537529944497","952","-0.49414062","0.043945312","-0.20410156","-2.375","18.875","-14.9375"
"1537529944497","953","-0.62890625","-0.21386719","-0.15429688","-60.65625","30.5","0.03125"
"1537529944497","954","-0.94433594","-0.73046875","-0.2626953","-45.28125","15.09375","22.53125"
"1537529944693","955","-1.1054688","-1.1503906","-0.7685547","3.46875","28.03125","7.09375"
"1537529944693","956","-0.9501953","-0.7832031","-0.60546875","70.25","19.5625","-12.4375"
"1537529944693","957","-0.48828125","-0.20214844","-0.35546875","24.46875","27.9375","3.0625"
"1537529944694","958","-1.9921875","-0.12695312","-0.4580078","100.03125","101.34375","78.5"
"1537529944694","959","-1.0947266","-0.6142578","-9.765625E-4","90.40625","-47.8125","-7.0625"
"1537529944893","960","-0.5292969","1.0537109","-0.54589844","-22.09375","-2.15625","-0.34375"
"1537529944895","961","-0.6035156","0.515625","-0.8798828","-81.96875","74.1875","82.53125"
"1537529944895","962","-1.1025391","-0.80078125","-0.7001953","-15.25","-0.03125","68.6875"
"1537529944895","963","-0.7734375","-0.16015625","-0.32910156","44.75","-10.59375","79.5"
"1537529944895","964","-0.76171875","0.24414062","-0.52734375","72.40625","33.40625","91.375"
"1537529945289","965","-0.8154297","0.11328125","-0.62597656","-6.65625","23.28125","75.53125"
"1537529945289","966","-0.8535156","-0.03125","-0.4345703","-70.4375","5.15625","53.4375"
"1537529945290","967","-0.81640625","-0.09667969","-0.4404297","-60.96875","12.71875","49.8125"
"1537529945291","968","-0.8173828","-0.10058594","-0.46972656","-31.5","5.46875","54.34375"
"1537529945291","969","-0.91503906","-0.13574219","-0.43554688","-19.65625","5.21875","52.5"
"1537529945291","970","-0.8105469","0.12402344","-0.48242188","-35.53125","4.96875","46.03125"
"1537529945293","971","-0.86035156","0.14257812","-0.50097656","-61.625","-1.0625","41.40625"
"1537529945293","972","-0.90722656","-0.005859375","-0.57714844","-75.25","3.03125","33.15625"
"1537529945294","973","-0.9824219","-0.14941406","-0.546875","-63.78125","-3.6875","36.15625"
"1537529945488","974","-1.2783203","-0.24023438","-0.7011719","-65.125","-21.9375","24.5625"
"1537529945488","975","-0.97558594","-0.36816406","-0.34472656","-82.09375","-30.96875","-30.8125"
"1537529945488","976","-0.57714844","-0.07324219","-0.3935547","-44.0625","-64.0","-111.125"
"1537529945488","977","-1.4355469","0.25195312","-0.3544922","35.21875","-26.65625","-163.5"
"1537529945489","978","-1.2646484","0.47558594","-0.38378906","10.6875","15.78125","-132.125"
"1537529945687","979","-1.1660156","0.19433594","-0.32714844","-3.09375","27.75","-161.1875"
"1537529945688","980","-1.0126953","0.024414062","-0.28515625","-2.1875","2.03125","-124.625"
"1537529945688","981","-0.8203125","-0.17285156","-0.23046875","80.4375","16.875","-84.5"
"1537529945688","982","-0.7939453","-0.08203125","-0.28320312","131.78125","31.9375","-66.15625"
"1537529945689","983","-0.6894531","0.119140625","-0.50683594","124.03125","30.0625","-37.03125"
"1537529945888","984","-0.5205078","0.27441406","-0.3798828","75.125","9.90625","-9.9375"
"1537529945888","985","-0.4560547","0.080078125","-0.20898438","16.96875","16.03125","3.1875"
"1537529945889","986","-0.640625","-0.26953125","-0.12207031","-39.65625","31.9375","7.15625"
"1537529945889","987","-1.0761719","-0.6542969","-0.29492188","-42.96875","15.71875","14.1875"
"1537529945889","988","-1.1425781","-0.9160156","-0.71191406","7.375","44.53125","12.40625"
"1537529946086","989","-1.0009766","-0.7861328","-0.46777344","32.0","17.125","-1.09375"
"1537529946087","990","-0.6269531","-0.54296875","-0.546875","3.125","23.78125","-4.6875"
"1537529946088","991","-1.2480469","-0.00390625","-0.4375","110.96875","61.375","57.6875"
"1537529946088","992","-1.7070312","-1.0234375","-0.16503906","119.8125","-68.03125","33.40625"
"1537529946088","993","-0.48242188","0.6484375","-0.5283203","18.5","-27.8125","-10.59375"
"1537529946283","994","-0.4970703","1.1455078","-0.82421875","-73.1875","81.625","79.59375"
"1537529946283","995","-1.3115234","-0.7402344","-0.9609375","-82.625","8.5625","66.25"
"1537529946284","996","-0.7294922","-0.27539062","-0.203125","-40.28125","-46.28125","60.3125"
"1537529946285","997","-0.68066406","0.11328125","-0.515625","24.71875","21.21875","78.21875"
"1537529946285","998","-0.7705078","-0.041992188","-0.5957031","-22.34375","10.78125","63.75"
"1537529946481","999","-0.8046875","-0.08496094","-0.48242188","-70.5","-7.40625","53.0625"
"1537529946679","1000","-0.8378906","-0.19140625","-0.41210938","-50.71875","-0.6875","51.78125"
"1537529946881","1001","-0.82714844","-0.18164062","-0.40625","-17.5625","-5.84375","45.90625"
"1537529946882","1002","-0.765625","-0.04296875","-0.3955078","-3.90625","-1.4375","38.03125"
"1537529946882","1003","-0.8496094","0.16503906","-0.5126953","-12.5625","4.59375","41.46875"
"1537529946882","1004","-0.91015625","0.22558594","-0.5341797","-52.84375","-7.59375","41.40625"
"1537529946883","1005","-1.0634766","0.038085938","-0.5800781","-73.96875","-6.8125","44.625"
"1537529946884","1006","-1.0634766","-0.1484375","-0.45410156","-86.96875","-32.375","64.59375"
"1537529946884","1007","-1.0888672","-0.16699219","-0.56347656","-51.25","-31.90625","67.21875"
"1537529946884","1008","-1.1269531","-0.21972656","-0.7207031","-40.28125","-18.53125","48.78125"
"1537529946885","1009","-0.7871094","-0.3466797","-0.29785156","-47.34375","-38.78125","-34.09375"
"1537529947078","1010","-1.0351562","0.11035156","-0.1171875","46.5625","9.4375","-104.34375"
"1537529947078","1011","-0.7841797","0.0","-0.27148438","130.1875","19.1875","-73.03125"
"1537529947079","1012","-0.7607422","-0.016601562","-0.48535156","116.46875","37.625","-61.03125"
"1537529947080","1013","-0.6953125","0.22949219","-0.39160156","80.15625","42.625","-37.75"
"1537529947080","1014","-0.5107422","0.19726562","-0.2841797","42.96875","10.96875","-14.5625"
"1537529947277","1015","-0.5683594","-0.10449219","-0.23632812","6.09375","9.6875","-11.34375"
"1537529947277","1016","-0.80566406","-0.36035156","-0.18554688","-29.84375","27.875","-15.46875"
"1537529947277","1017","-0.84765625","-0.54003906","-0.34570312","-22.53125","37.4375","-16.875"
"1537529947277","1018","-0.96484375","-0.7763672","-0.5751953","-8.40625","29.8125","-15.78125"
"1537529947278","1019","-0.9892578","-0.81933594","-0.5751953","10.0625","7.0625","-14.9375"
"1537529947478","1020","-0.66503906","-0.39648438","-0.6035156","58.125","18.875","7.78125"
"1537529947479","1021","-0.8847656","-0.056640625","-0.25585938","72.625","28.03125","54.78125"
"1537529947479","1022","-1.9921875","-1.0380859","-0.5410156","108.40625","17.5625","36.625"
"1537529947479","1023","-0.64453125","0.4375","-0.3095703","90.75","-73.6875","-19.6875"
"1537529947480","1024","-0.20703125","1.4638672","-0.7441406","-55.34375","84.75","38.78125"
"1537529947875","1025","-1.2744141","-0.3408203","-0.8613281","-123.53125","24.375","68.1875"
"1537529947875","1026","-0.8955078","-0.7109375","-0.25683594","-43.15625","-47.15625","39.15625"
"1537529948074","1027","-0.7998047","0.10839844","-0.3642578","61.40625","14.0625","69.71875"
"1537529948074","1028","-0.84277344","0.20996094","-0.5410156","41.09375","7.90625","78.6875"
"1537529948074","1029","-0.85058594","-0.029296875","-0.5185547","-50.90625","-1.0625","63.1875"
"1537529948075","1030","-0.7734375","-0.21972656","-0.4453125","-87.59375","4.90625","42.75"
"1537529948076","1031","-0.8300781","-0.19335938","-0.46972656","-76.40625","2.65625","36.8125"
"1537529948077","1032","-0.8720703","-0.25097656","-0.4013672","-25.875","-3.3125","41.40625"
"1537529948078","1033","-0.79785156","-0.14941406","-0.38183594","-4.6875","-5.71875","39.15625"
"1537529948078","1034","-0.83203125","0.0146484375","-0.4560547","9.53125","-5.84375","38.59375"
"1537529948078","1035","-0.85546875","0.14941406","-0.57421875","-4.03125","-2.84375","40.78125"
"1537529948273","1036","-1.046875","-0.29003906","-0.57714844","-41.1875","-36.96875","50.875"
"1537529948273","1037","-0.9707031","-0.33007812","-0.5371094","-27.03125","-22.625","13.15625"
"1537529948273","1038","-0.76171875","-0.13085938","-0.23242188","-9.6875","-58.3125","-45.40625"
"1537529948274","1039","-0.8359375","0.17773438","-0.27929688","56.78125","-34.03125","-95.3125"
"1537529948274","1040","-1.5605469","0.43945312","-0.5205078","69.46875","-15.0","-123.625"
"1537529948469","1041","-1.1621094","0.45703125","-0.37597656","11.84375","-4.0","-112.28125"
"1537529948469","1042","-1.1396484","0.203125","-0.36816406","3.375","21.15625","-135.90625"
"1537529948469","1043","-0.8730469","0.0234375","-0.35058594","23.125","11.3125","-92.75"
"1537529948471","1044","-0.8125","-0.20605469","-0.35253906","110.0","28.78125","-55.46875"
"1537529948471","1045","-0.79003906","-0.099609375","-0.4013672","160.03125","47.34375","-27.6875"
"1537529948668","1046","-0.5839844","0.16601562","-0.51953125","148.25","30.78125","12.90625"
"1537529948668","1047","-0.5097656","0.203125","-0.37597656","100.71875","26.875","25.90625"
"1537529948668","1048","-0.80078125","-0.05859375","-0.064453125","48.21875","25.3125","27.0625"
"1537529948669","1049","-1.0136719","-0.6455078","-0.09863281","106.75","-6.125","15.21875"
"1537529948670","1050","-0.7871094","-0.5410156","-0.46191406","51.46875","55.5625","-42.71875"
"1537529948868","1051","-0.87890625","-0.4296875","-0.49316406","-31.625","53.75","-54.90625"
"1537529948869","1052","-0.875","-0.4951172","-0.54785156","-47.0","35.78125","-27.5"
"1537529948869","1053","-0.63671875","-0.45117188","-0.5986328","40.78125","36.09375","22.65625"
"1537529948869","1054","-0.79296875","-0.34375","-0.21289062","85.46875","31.71875","69.125"
"1537529948870","1055","-1.9921875","-1.5234375","-0.3486328","183.96875","18.9375","77.03125"
"1537529949068","1056","-0.6582031","0.6357422","-0.1953125","88.25","-49.15625","0.875"
"1537529949069","1057","-0.41308594","1.4208984","-1.1445312","-10.8125","108.1875","80.84375"
"1537529949069","1058","-1.1699219","-0.48046875","-0.84375","-117.71875","-5.65625","92.71875"
"1537529949070","1059","-0.86035156","-0.63183594","-0.09863281","-12.03125","-18.21875","73.875"
"1537529949070","1060","-0.7841797","-0.0146484375","-0.36816406","114.8125","22.90625","109.21875"
"1537529949465","1061","-0.75878906","0.11816406","-0.5263672","75.875","18.65625","112.3125"
"1537529949465","1062","-0.96875","0.02734375","-0.40039062","-10.90625","5.59375","77.78125"
"1537529949465","1063","-0.88671875","-0.032226562","-0.3779297","-44.5","1.25","61.46875"
"1537529949466","1064","-0.8330078","0.0126953125","-0.49316406","-22.6875","0.8125","58.5"
"1537529949467","1065","-0.8574219","-0.06542969","-0.44921875","1.09375","8.03125","65.5625"
"1537529949468","1066","-0.8125","-0.02734375","-0.4892578","10.1875","3.09375","76.0"
"1537529949468","1067","-0.9716797","0.09375","-0.45996094","16.84375","5.9375","79.0625"
"1537529949468","1068","-0.8984375","0.11035156","-0.49902344","-27.03125","1.0625","55.75"
"1537529949468","1069","-0.99316406","-0.17285156","-0.5332031","-52.59375","-7.71875","39.375"
"1537529949662","1070","-1.1132812","-0.29492188","-0.5595703","-11.46875","-38.4375","2.40625"
"1537529949662","1071","-0.95996094","-0.0625","-0.4169922","2.875","-76.03125","-28.1875"
"1537529949662","1072","-0.7314453","0.2734375","-0.30859375","22.84375","-41.59375","-74.03125"
"1537529949662","1073","-1.3603516","0.5","-0.6455078","80.6875","-26.15625","-110.21875"
"1537529949663","1074","-1.2851562","0.14941406","-0.47070312","42.96875","1.25","-124.0"
"1537529949862","1075","-1.1992188","0.15039062","-0.34375","20.34375","22.84375","-137.1875"
"1537529949863","1076","-0.9404297","0.17480469","-0.24121094","46.40625","21.9375","-107.34375"
"1537529949863","1077","-0.8642578","-0.053710938","-0.3046875","101.625","34.34375","-82.4375"
"1537529949863","1078","-0.8701172","0.044921875","-0.28027344","131.53125","42.6875","-59.0"
"1537529949863","1079","-0.69140625","0.125","-0.33007812","117.625","19.375","-28.125"
"1537529950059","1080","-0.52734375","0.21582031","-0.2626953","84.65625","13.09375","-17.125"
"1537529950060","1081","-0.56347656","0.033203125","-0.11230469","31.0","15.21875","-15.59375"
"1537529950060","1082","-0.7519531","-0.27539062","-0.09375","-31.25","13.8125","-19.375"
"1537529950062","1083","-1.0097656","-0.6796875","-0.3544922","-52.125","20.96875","-20.6875"
"1537529950062","1084","-1.0087891","-0.92578125","-0.66308594","-50.53125","41.59375","-22.8125"
"1537529950258","1085","-1.0185547","-0.8408203","-0.48339844","39.8125","11.6875","-1.6875"
"1537529950259","1086","-0.63378906","-0.09277344","-0.38183594","50.84375","15.46875","24.625"
"1537529950259","1087","-1.9462891","-0.4033203","-0.296875","89.90625","76.4375","76.375"
"1537529950260","1088","-0.984375","-0.24804688","-0.14648438","94.3125","-25.78125","7.34375"
"1537529950260","1089","-0.46484375","0.87597656","-0.6982422","-34.1875","34.75","14.125"
"1537529950457","1090","-0.9003906","0.31933594","-0.8105469","-54.6875","54.71875","91.15625"
"1537529950458","1091","-0.9453125","-0.7011719","-0.5527344","-17.03125","-10.46875","75.15625"
"1537529950458","1092","-0.80566406","0.026367188","-0.34472656","54.5","20.0","77.96875"
"1537529950459","1093","-0.83203125","0.27441406","-0.49804688","42.3125","24.25","85.46875"
"1537529950460","1094","-0.8642578","0.0546875","-0.4794922","-43.4375","4.84375","71.3125"
"1537529950654","1095","-0.8222656","-0.14648438","-0.4111328","-91.0","9.5625","48.0"
"1537529950656","1096","-0.85253906","-0.12597656","-0.45410156","-94.21875","6.6875","32.3125"
"1537529950656","1097","-0.80371094","-0.20800781","-0.4326172","-50.46875","-9.0625","32.375"
"1537529950657","1098","-0.72753906","-0.25878906","-0.49121094","-28.875","6.75","24.96875"
"1537529950855","1099","-0.83203125","-0.125","-0.4658203","-40.46875","2.46875","11.625"
"1537529950855","1100","-0.88671875","0.21289062","-0.43945312","-46.25","1.625","23.75"
"1537529950856","1101","-0.9423828","0.25390625","-0.6142578","-53.46875","9.90625","39.15625"
"1537529950856","1102","-1.1201172","-0.109375","-0.66503906","-57.125","-11.09375","51.21875"
"1537529950857","1103","-0.97265625","-0.23339844","-0.54003906","-52.5","-28.65625","59.78125"
"1537529950857","1104","-1.0878906","-0.17480469","-0.62402344","-21.53125","-17.1875","59.59375"
"1537529951054","1105","-1.0019531","-0.24609375","-0.53027344","-40.875","-14.125","-4.1875"
"1537529951054","1106","-0.71777344","0.038085938","-0.34765625","-44.78125","-40.5","-82.6875"
"1537529951054","1107","-1.0361328","0.234375","-0.19824219","17.59375","-15.84375","-123.9375"
"1537529951054","1108","-1.4101562","0.30371094","-0.34179688","22.65625","16.75","-141.34375"
"1537529951054","1109","-1.2978516","0.2939453","-0.24414062","0.0","31.59375","-147.9375"
"1537529951253","1110","-1.1728516","0.3798828","-0.17285156","-18.0","28.84375","-158.4375"
"1537529951253","1111","-0.93066406","0.15722656","-0.20214844","0.375","8.21875","-125.21875"
"1537529951254","1112","-0.94433594","-0.16113281","-0.24121094","31.875","9.625","-96.0"
"1537529951254","1113","-0.8613281","-0.07421875","-0.24121094","59.75","11.875","-70.28125"
"1537529951453","1114","-0.62402344","0.06933594","-0.29882812","43.78125","-9.6875","-39.21875"
"1537529951453","1115","-0.46777344","0.049804688","-0.31933594","-6.03125","-14.6875","-19.34375"
"1537529951453","1116","-0.6142578","-0.27441406","-0.24609375","-41.125","-3.28125","-12.25"
"1537529951455","1117","-0.75","-0.6933594","-0.2861328","-54.4375","0.40625","-19.15625"
"1537529951455","1118","-0.81152344","-0.67871094","-0.31835938","-11.90625","11.1875","-18.65625"
"1537529951455","1119","-1.0507812","-0.8027344","-0.37695312","18.5","-1.96875","-8.53125"
"1537529951649","1120","-1.0605469","-0.9638672","-0.36035156","52.5","-21.15625","-1.6875"
"1537529951650","1121","-0.6640625","-0.2626953","-0.43847656","22.03125","16.4375","-1.1875"
"1537529951650","1122","-1.3398438","0.21289062","-0.4404297","30.8125","82.5","34.0625"
"1537529951651","1123","-1.6660156","-0.74902344","-0.049804688","1.34375","-47.53125","6.0"
"1537529951651","1124","-0.66015625","0.40625","-0.5908203","-14.8125","-17.65625","-10.71875"
"1537529951848","1125","-0.49804688","0.7285156","-0.63183594","-67.25","74.25","43.84375"
"1537529951849","1126","-1.1865234","-0.515625","-0.84375","-36.875","20.96875","60.75"
"1537529951849","1127","-0.82421875","-0.23828125","-0.37890625","-22.5625","-16.5625","49.03125"
"1537529951850","1128","-0.7607422","0.11328125","-0.3955078","18.4375","16.375","64.03125"
"1537529951851","1129","-0.8222656","-0.0146484375","-0.5253906","-43.8125","2.03125","53.84375"
"1537529952046","1130","-0.81152344","-0.1640625","-0.5253906","-77.25","0.875","38.96875"
"1537529952046","1131","-0.8330078","-0.19335938","-0.4423828","-80.125","8.5","35.78125"
"1537529952047","1132","-0.8378906","-0.17089844","-0.45117188","-49.0625","-5.09375","40.53125"
"1537529952048","1133","-0.8105469","-0.14746094","-0.4658203","-24.96875","0.03125","45.78125"
"1537529952048","1134","-0.79003906","-0.059570312","-0.4716797","-41.75","9.6875","34.5625"
"1537529952246","1135","-0.796875","0.0","-0.46875","-53.46875","-1.0","24.3125"
"1537529952246","1136","-0.8183594","0.044921875","-0.5283203","-56.5","3.4375","23.09375"
"1537529952247","1137","-0.9082031","0.056640625","-0.60839844","-57.84375","-0.46875","28.34375"
"1537529952247","1138","-1.0039062","-0.022460938","-0.6064453","-63.90625","-10.90625","36.03125"
"1537529952447","1139","-0.9628906","-0.14746094","-0.5644531","-69.34375","-26.59375","29.0"
"1537529952448","1140","-1.0175781","-0.3125","-0.5673828","-57.25","-29.8125","21.125"
"1537529952449","1141","-0.9316406","-0.25097656","-0.43652344","-66.46875","-11.875","-30.875"
"1537529952450","1142","-1.0917969","0.017578125","-0.07421875","-91.96875","-18.28125","-124.5"
"1537529952450","1143","-1.2304688","0.69921875","-0.26367188","-71.59375","-9.625","-150.0625"
"1537529952450","1144","-1.2675781","0.50390625","-0.2548828","-62.5625","27.3125","-138.03125"
"1537529952643","1145","-1.25","-0.08105469","-0.17675781","-64.21875","39.21875","-153.65625"
"1537529952643","1146","-1.1513672","-0.0068359375","-0.07714844","-70.96875","28.65625","-151.90625"
"1537529952644","1147","-0.95214844","0.08984375","-0.076171875","-8.125","24.4375","-113.8125"
"1537529952644","1148","-0.92089844","0.01171875","-0.1953125","52.625","9.78125","-85.0"
"1537529952645","1149","-0.8261719","-0.07324219","-0.3125","34.1875","-28.28125","-53.5"
"1537529952842","1150","-0.6142578","-0.083984375","-0.4140625","-13.25","-39.875","-33.90625"
"1537529952842","1151","-0.5214844","-0.12890625","-0.42382812","-50.34375","-4.5625","-27.5"
"1537529952842","1152","-0.55371094","-0.34375","-0.37890625","-87.34375","22.4375","-25.125"
"1537529952843","1153","-0.6582031","-0.6191406","-0.31054688","-60.53125","7.71875","-10.0"
"1537529952844","1154","-0.87109375","-0.75878906","-0.26757812","-18.5625","-3.09375","-8.90625"
"1537529953040","1155","-1.1708984","-1.1035156","-0.2109375","73.90625","-34.53125","0.3125"
"1537529953041","1156","-0.9980469","-0.8417969","-0.48242188","48.84375","-19.5","-14.1875"
"1537529953041","1157","-0.85253906","-0.095703125","-0.4345703","-0.375","27.0","-10.34375"
"1537529953041","1158","-1.4130859","-0.046875","-0.6611328","35.28125","71.1875","20.65625"
"1537529953042","1159","-1.1826172","-0.16992188","-0.09375","30.65625","-54.15625","-8.78125"
"1537529953439","1160","-0.6230469","0.47070312","-0.47460938","-96.78125","24.3125","-5.96875"
"1537529953638","1161","-0.96875","0.36523438","-0.77734375","-87.9375","56.0","37.6875"
"1537529953836","1162","-0.9140625","-0.37109375","-0.6669922","-60.0","-7.34375","46.03125"
"1537529953836","1163","-0.74121094","-0.13085938","-0.359375","-25.1875","-11.09375","60.3125"
"1537529953836","1164","-0.83691406","-0.034179688","-0.47265625","-1.875","10.53125","63.875"
"1537529953836","1165","-0.8173828","0.021484375","-0.53222656","-52.65625","0.59375","50.0"
"1537529953838","1166","-0.75683594","-0.087890625","-0.5029297","-73.0625","-3.5625","41.15625"
"1537529953838","1167","-0.828125","-0.20996094","-0.47753906","-85.375","-2.21875","30.90625"
"1537529953838","1168","-0.7607422","-0.19042969","-0.4814453","-58.03125","-5.46875","34.5"
"1537529954035","1169","-0.8251953","-0.15429688","-0.4501953","-35.53125","2.21875","29.875"
"1537529954036","1170","-1.0234375","-0.14355469","-0.51660156","-53.59375","-27.5","59.53125"
"1537529954036","1171","-1.5175781","0.7519531","-0.4609375","41.75","32.4375","-144.09375"
"1537529954036","1172","-1.2626953","0.39453125","-0.31640625","-23.3125","26.875","-149.28125"
"1537529954036","1173","-1.3164062","0.07421875","-0.23144531","-48.9375","27.875","-173.1875"
"1537529954037","1174","-1.0927734","0.017578125","-0.1171875","-27.59375","11.9375","-129.25"
"1537529954038","1175","-0.8779297","-0.087890625","-0.19238281","75.4375","13.875","-100.6875"
"1537529954232","1176","-0.90234375","-0.056640625","-0.2919922","105.59375","33.21875","-79.9375"
"1537529954234","1177","-0.6796875","0.11230469","-0.35546875","82.84375","6.25","-39.96875"
"1537529954234","1178","-0.49121094","0.1328125","-0.3408203","19.71875","-12.0625","-15.46875"
"1537529954234","1179","-0.42382812","-0.001953125","-0.26757812","-19.59375","0.21875","0.375"
"1537529954235","1180","-0.6425781","-0.39746094","-0.24414062","-66.78125","21.15625","1.78125"
"1537529954432","1181","-0.9736328","-0.91015625","-0.40527344","-54.375","14.3125","-0.03125"
"1537529954433","1182","-1.1865234","-1.0556641","-0.6230469","23.6875","14.5625","-5.28125"
"1537529954433","1183","-1.0332031","-0.9033203","-0.43945312","85.46875","-15.09375","3.4375"
"1537529954433","1184","-0.50683594","-0.018554688","-0.3408203","10.3125","10.46875","2.40625"
"1537529954434","1185","-1.5029297","0.36523438","-0.11230469","68.65625","90.1875","68.5"
"1537529954633","1186","-1.7636719","-0.9980469","-0.3076172","-41.75","-48.25","4.96875"
"1537529954633","1187","-0.67089844","0.4091797","-0.6386719","-19.46875","-35.84375","-10.0625"
"1537529954633","1188","-0.23144531","0.984375","-0.75097656","-45.59375","71.0","54.78125"
"1537529954634","1189","-1.0244141","-0.48535156","-0.7734375","-62.125","13.46875","80.21875"
"1537529954634","1190","-0.9394531","-0.3076172","-0.23632812","22.90625","-36.46875","73.25"
"1537529954830","1191","-0.8886719","0.25097656","-0.4140625","72.6875","28.78125","80.28125"
"1537529954830","1192","-0.7451172","0.27441406","-0.5390625","-31.6875","-3.4375","66.65625"
"1537529954830","1193","-0.8574219","-0.14453125","-0.43164062","-73.90625","-1.9375","48.65625"
"1537529954831","1194","-0.7910156","-0.23925781","-0.46191406","-95.21875","4.59375","29.5625"
"1537529954831","1195","-0.78027344","-0.14453125","-0.46191406","-56.15625","7.0","25.53125"
"1537529955030","1196","-0.80859375","-0.20507812","-0.37109375","-14.8125","0.59375","27.53125"
"1537529955030","1197","-0.8642578","-0.11621094","-0.45117188","14.03125","1.96875","31.03125"
"1537529955030","1198","-0.8964844","0.103515625","-0.5048828","15.15625","-0.03125","46.78125"
"1537529955030","1199","-0.85253906","0.30566406","-0.59277344","-18.625","5.09375","58.625"
"1537529955030","1200","-1.0117188","0.076171875","-0.61035156","-45.15625","2.59375","54.46875"
"1537529955227","1201","-1.0292969","-0.15332031","-0.5595703","-55.34375","-14.5625","47.875"
"1537529955227","1202","-1.1279297","-0.30664062","-0.5371094","-60.78125","-43.5625","40.90625"
"1537529955228","1203","-1.2519531","-0.39160156","-0.6201172","-60.46875","-30.71875","6.90625"
"1537529955228","1204","-0.8339844","-0.28222656","-0.41992188","-92.65625","-83.21875","-59.5625"
"1537529955228","1205","-0.7050781","0.16210938","-0.25976562","32.96875","-27.9375","-98.96875"
"1537529955426","1206","-1.4121094","0.3486328","-0.5078125","129.21875","-5.875","-110.09375"
"1537529955426","1207","-1.2451172","0.15917969","-0.328125","89.59375","22.5","-125.28125"
"1537529955426","1208","-1.2509766","0.39160156","-0.35058594","66.46875","28.28125","-140.90625"
"1537529955427","1209","-0.9121094","0.26757812","-0.31152344","54.9375","-9.75","-108.8125"
"1537529955427","1210","-0.8066406","0.0107421875","-0.36816406","53.28125","5.59375","-100.1875"
"1537529955625","1211","-0.74902344","0.018554688","-0.3095703","56.03125","32.75","-80.59375"
"1537529955626","1212","-0.5996094","0.041992188","-0.2939453","57.6875","40.5625","-48.375"
"1537529955627","1213","-0.47070312","0.08105469","-0.21289062","53.28125","3.6875","-21.28125"
"1537529955627","1214","-0.6386719","-0.029296875","-0.15136719","16.3125","10.53125","-2.4375"
"1537529955627","1215","-1.0136719","-0.4013672","-0.2763672","-51.8125","16.875","0.3125"
"1537529955823","1216","-0.9970703","-0.86816406","-0.49121094","-47.78125","-2.90625","-7.1875"
"1537529955824","1217","-0.95410156","-0.87597656","-0.671875","-11.78125","30.84375","-8.65625"
"1537529955825","1218","-0.91015625","-0.6503906","-0.4296875","72.09375","5.71875","14.53125"
"1537529955825","1219","-0.49609375","-0.078125","-0.22558594","57.9375","22.90625","43.40625"
"1537529955825","1220","-1.7089844","0.0078125","-0.39453125","63.65625","94.21875","117.875"
"1537529956023","1221","-1.4199219","-1.2529297","-0.25976562","62.8125","-35.96875","7.09375"
"1537529956023","1222","-0.6191406","0.70214844","-0.55566406","29.71875","-11.4375","-2.25"
"1537529956024","1223","-0.20019531","0.8222656","-0.76171875","-61.59375","52.53125","78.375"
"1537529956024","1224","-1.4101562","-0.5527344","-0.71875","-38.3125","15.71875","76.9375"
"1537529956026","1225","-0.88964844","-0.17675781","-0.30371094","6.21875","-17.65625","71.375"
"1537529956220","1226","-0.7470703","0.234375","-0.38964844","26.96875","21.28125","79.71875"
"1537529956220","1227","-0.80078125","0.044921875","-0.47753906","-21.78125","-10.53125","74.0625"
"1537529956221","1228","-0.74121094","-0.22363281","-0.47460938","-44.375","14.25","63.96875"
"1537529956221","1229","-0.9199219","-0.203125","-0.4560547","-52.5","14.6875","39.6875"
"1537529956222","1230","-0.7998047","-0.022460938","-0.39257812","-30.34375","-6.0","32.375"
"1537529956421","1231","-0.7597656","-0.0029296875","-0.453125","-4.375","1.6875","36.875"
"1537529956422","1232","-0.91015625","0.033203125","-0.5175781","-18.0","-4.125","38.71875"
"1537529956422","1233","-0.9482422","0.15820312","-0.51953125","-45.28125","1.25","37.0"
"1537529956422","1234","-1.0332031","0.076171875","-0.5908203","-51.625","-9.25","39.75"
"1537529956422","1235","-1.0097656","-0.140625","-0.48242188","-48.53125","-14.5","45.71875"
"1537529956620","1236","-1.0664062","-0.38671875","-0.5644531","-51.5","-33.59375","43.34375"
"1537529956620","1237","-1.1953125","-0.40820312","-0.54296875","-35.15625","-40.625","23.59375"
"1537529956620","1238","-0.7441406","-0.203125","-0.375","-58.40625","-46.25","-59.4375"
"1537529956620","1239","-0.9160156","0.37695312","-0.48242188","-19.09375","-35.96875","-120.46875"
"1537529956621","1240","-1.3808594","0.50390625","-0.4404297","77.6875","8.75","-120.59375"
"1537529956817","1241","-1.2832031","0.16601562","-0.29003906","53.90625","39.15625","-131.375"
"1537529956817","1242","-1.2773438","0.18164062","-0.28808594","33.40625","33.78125","-132.90625"
"1537529956818","1243","-0.9267578","0.16894531","-0.19824219","77.09375","4.0625","-83.46875"
"1537529956818","1244","-0.7998047","0.051757812","-0.3466797","113.46875","17.84375","-62.34375"
"1537529956819","1245","-0.7294922","0.059570312","-0.38476562","103.75","33.125","-36.78125"
"1537529957018","1246","-0.5878906","0.19335938","-0.37402344","66.65625","33.96875","-4.4375"
"1537529957018","1247","-0.51953125","0.19921875","-0.24511719","46.875","21.9375","24.875"
"1537529957018","1248","-0.6328125","-0.15332031","-0.06542969","53.53125","4.3125","31.875"
"1537529957019","1249","-0.76953125","-0.43847656","-0.28710938","28.21875","16.15625","2.15625"
"1537529957019","1250","-0.94628906","-0.55371094","-0.5722656","-35.6875","71.75","-38.5"
"1537529957215","1251","-1.140625","-0.8203125","-0.3544922","-70.75","17.25","-43.4375"
"1537529957215","1252","-0.90527344","-0.8232422","-0.66796875","-13.78125","18.9375","-21.15625"
"1537529957215","1253","-0.58691406","-0.24609375","-0.45703125","44.25","30.25","13.03125"
"1537529957215","1254","-1.6894531","0.19824219","-0.0859375","71.53125","61.0625","87.96875"
"1537529957216","1255","-1.640625","-1.2666016","-0.2939453","129.40625","-70.96875","9.96875"
"1537529957415","1256","-0.5","0.88671875","-0.6640625","-11.90625","-15.90625","-16.15625"
"1537529957416","1257","-0.19921875","1.1123047","-0.8095703","-128.03125","90.84375","51.53125"
"1537529957416","1258","-1.4326172","-0.80566406","-0.81152344","-86.40625","13.15625","65.25"
"1537529957416","1259","-0.82910156","-0.44335938","-0.30371094","-12.75","-46.71875","53.0"
"1537529957416","1260","-0.6875","0.2734375","-0.5498047","60.90625","32.0","74.78125"
"1537529957810","1261","-0.71972656","0.17089844","-0.63183594","-27.65625","5.40625","62.34375"
"1537529957811","1262","-0.859375","-0.07421875","-0.47070312","-94.59375","-5.59375","38.59375"
"1537529957811","1263","-0.81933594","-0.14453125","-0.48339844","-96.4375","3.25","26.75"
"1537529957811","1264","-0.8125","-0.123046875","-0.44433594","-67.8125","-6.1875","24.5625"
"1537529957812","1265","-0.81640625","-0.14746094","-0.43164062","-36.96875","-0.15625","30.78125"
"1537529957812","1266","-0.8798828","-0.03125","-0.5263672","-23.375","4.90625","37.5625"
"1537529957813","1267","-0.8564453","0.21972656","-0.48535156","-36.625","-3.15625","43.84375"
"1537529957814","1268","-0.96777344","0.1640625","-0.5703125","-45.84375","-3.03125","41.40625"
"1537529957815","1269","-0.98535156","-0.036132812","-0.49121094","-80.3125","-15.09375","36.15625"
"1537529958013","1270","-0.9453125","-0.09667969","-0.58203125","-56.8125","-18.78125","24.375"
"1537529958013","1271","-1.0205078","-0.2265625","-0.7529297","-66.71875","-10.96875","8.875"
"1537529958013","1272","-1.03125","-0.47070312","-0.5107422","-81.78125","-37.3125","-25.3125"
"1537529958014","1273","-0.9609375","-0.08886719","-0.24804688","-31.0","-74.375","-67.1875"
"1537529958014","1274","-0.9091797","0.4375","-0.31445312","28.6875","-1.5","-99.46875"
"1537529958014","1275","-1.2021484","0.2861328","-0.47753906","53.53125","-15.28125","-119.96875"
"1537529958209","1276","-1.2861328","0.0126953125","-0.29296875","39.0625","-11.4375","-134.1875"
"1537529958209","1277","-1.2451172","0.3779297","-0.3466797","28.5625","34.6875","-145.1875"
"1537529958209","1278","-0.86035156","0.22363281","-0.30078125","7.28125","-2.03125","-110.09375"
"1537529958209","1279","-0.81152344","-0.056640625","-0.25195312","31.625","14.3125","-93.375"
"1537529958209","1280","-0.875","-0.080078125","-0.265625","74.84375","33.0","-59.4375"
